"Serial number","Datum ID","Session ID","Data format version","Firmware version","App version","Date / time local","Timezone offset (mins)","Date local (yyyy/MM/dd)","Time local (hh:mm:ss)","GPS lat (ddmm.mmmmm)","GPS long (dddmm.mmmmm)","GPS speed (km/h)","GPS sat count","Timebase (s)","Status","Battery remaining (%)","Accel X","Accel Y","Accel Z","Tape position","Flow setpoint (mL/min)","Flow total (mL/min)","Flow1 (mL/min)","Flow2 (mL/min)","Sample temp (C)","Sample RH (%)","Sample dewpoint (C)","Internal pressure (Pa)","Internal temp (C)","Optical config","UV Sen1","UV Sen2","UV Ref","UV ATN1","UV ATN2","UV K","Blue Sen1","Blue Sen2","Blue Ref","Blue ATN1","Blue ATN2","Blue K","Green Sen1","Green Sen2","Green Ref","Green ATN1","Green ATN2","Green K","Red Sen1","Red Sen2","Red Ref","Red ATN1","Red ATN2","Red K","IR Sen1","IR Sen2","IR Ref","IR ATN1","IR ATN2","IR K","UV BC1","UV BC2","UV BCc","Blue BC1","Blue BC2","Blue BCc","Green BC1","Green BC2","Green BCc","Red BC1","Red BC2","Red BCc","IR BC1","IR BC2","IR BCc","Readable status"
"MA200-0416","48333","104","1","1.10","1.6","2023-07-09T11:05:01","120","2023/07/09","11:05:01","0","0","0.0","1","300","66","90","3755","-1156","22696","12","150","150.56","119.16","31.40","24.29","44.2","11.31","89668","24.00","DUALSPOT-UV-BLUE-GREEN-RED-IR","838279","723086","904421","0.000000","0.000000","0.000000","795586","904280","765062","0.000000","0.000000","0.000000","887149","905539","813931","0.000000","0.000000","0.000000","876060","927462","866277","0.000000","0.000000","0.000000","743843","853333","952944","0.000000","0.000000","0.000000","","","","","","","","","","","","","","","","Start up-DualSpot on"
"MA200-0416","48334","104","1","1.10","1.6","2023-07-09T11:10:01","120","2023/07/09","11:10:01","0","0","0.0","4","300","64","89","3692","-1284","22912","12","150","149.40","118.84","30.56","24.40","41.9","10.60","89660","23.88","DUALSPOT-UV-BLUE-GREEN-RED-IR","838751","726956","910538","0.000000","0.000000","0.000000","791371","902216","764042","0.000000","0.000000","0.000000","888735","909280","817955","0.000000","0.000000","0.000000","872678","925524","864948","0.000000","0.000000","0.000000","741889","851961","951633","0.000000","0.000000","0.000000","","","","","","","","","","","","","","","","DualSpot on"
"MA200-0416","48335","104","1","1.10","1.6","2023-07-09T11:15:01","120","2023/07/09","11:15:01","0","0","0.0","12","300","64","88","3660","-1236","22648","12","150","149.94","119.54","30.39","24.38","41.2","10.34","89656","23.88","DUALSPOT-UV-BLUE-GREEN-RED-IR","828677","721404","904831","0.575321","0.136156","0.000000","789834","902919","765292","0.358277","0.086832","0.000000","882531","904824","814505","0.279563","0.069320","0.000000","872580","926847","866661","0.206387","0.051200","0.000000","742336","853305","953416","0.123003","0.027659","0.000000","2826","2631","2826","2221","2117","2221","1941","1893","1941","1732","1690","1732","1437","1271","1437","DualSpot on"
"MA200-0416","48336","104","1","1.10","1.6","2023-07-09T11:20:01","120","2023/07/09","11:20:01","0","0","0.0","13","300","64","88","3687","-1204","22900","12","150","149.86","119.48","30.38","24.40","41.0","10.27","89648","24.00","DUALSPOT-UV-BLUE-GREEN-RED-IR","826750","722920","908003","1.159874","0.276573","0.000000","783547","898103","761827","0.703096","0.168712","0.000000","881288","905396","815507","0.540632","0.130671","0.000000","866785","922016","862567","0.397652","0.096958","0.000000","742528","854284","954724","0.238351","0.052343","0.000000","2873","2714","2873","2139","1998","2139","1814","1676","1814","1606","1511","1606","1348","1135","1348","DualSpot on"
"MA200-0416","48337","104","1","1.10","1.6","2023-07-09T11:25:01","120","2023/07/09","11:25:01","0","0","0.0","13","300","64","86","3696","-1264","23200","12","150","149.59","119.88","29.71","24.45","40.7","10.24","89644","24.06","DUALSPOT-UV-BLUE-GREEN-RED-IR","823876","723541","909995","1.726377","0.411235","0.000000","782474","899127","763300","1.033318","0.247545","0.000000","876175","901816","812729","0.786215","0.187552","0.000000","868240","924808","865495","0.572872","0.136238","0.000000","738815","850713","950996","0.346040","0.075901","0.000000","2775","2662","2775","2042","1966","2042","1700","1589","1700","1466","1326","1466","1254","1107","1254","DualSpot on"
"MA200-0416","48338","104","1","1.10","1.6","2023-07-09T11:30:01","120","2023/07/09","11:30:01","0","0","0.0","12","300","64","86","3671","-1288","22900","12","150","149.73","119.54","30.19","24.50","40.3","10.14","89632","24.13","DUALSPOT-UV-BLUE-GREEN-RED-IR","814555","718107","904313","2.239305","0.539260","0.000000","781848","900481","765026","1.339286","0.321996","0.000000","874987","902159","813519","1.016808","0.243955","0.000000","867537","925239","866242","0.737857","0.174939","0.000000","738147","850603","951093","0.447805","0.103128","0.000000","2520","2491","2520","1897","1828","1897","1601","1551","1601","1384","1286","1384","1189","1260","1189","DualSpot on"
"MA200-0416","48339","104","1","1.10","1.6","2023-07-09T11:35:01","120","2023/07/09","11:35:01","-15.7870734333992","35.035429995507","0.4","12","300","64","86","3780","-1132","22688","12","150","149.59","119.84","29.75","24.58","40.2","10.14","89628","24.19","DUALSPOT-UV-BLUE-GREEN-RED-IR","814588","721120","909367","2.794873","0.676473","0.000000","778006","898308","763747","1.667910","0.396961","0.000000","874885","903805","815444","1.267159","0.298476","0.000000","863034","921814","863332","0.921080","0.213086","0.000000","739337","852787","953796","0.561599","0.126976","0.000000","2723","2708","2723","2032","1867","2032","1734","1521","1734","1533","1286","1533","1326","1119","1326","DualSpot on"
"MA200-0416","48340","104","1","1.10","1.6","2023-07-09T11:40:01","120","2023/07/09","11:40:01","0","0","0.0","12","300","64","85","3744","-1140","22868","12","150","150.56","119.65","30.92","24.61","39.1","9.77","89616","24.13","DUALSPOT-UV-BLUE-GREEN-RED-IR","806957","716735","904828","3.236749","0.788736","-0.007045","777016","899029","764914","1.944142","0.466663","0.000000","875133","905526","817425","1.480514","0.351148","0.000000","864862","924821","866480","1.078727","0.249737","0.000000","736343","849955","950811","0.661401","0.150431","0.000000","2169","2132","2120","1711","1671","1711","1480","1414","1480","1321","1189","1321","1165","1059","1165","DualSpot on"
"MA200-0416","48341","104","1","1.10","1.6","2023-07-09T11:45:01","120","2023/07/09","11:45:01","0","0","0.0","11","300","64","85","3760","-1156","23064","12","150","150.20","119.08","31.12","24.61","39.5","9.91","89608","24.19","DUALSPOT-UV-BLUE-GREEN-RED-IR","803884","717520","907289","3.883800","0.947935","-0.021665","770799","894368","761552","2.308255","0.549596","0.000000","870154","902315","815028","1.754421","0.411939","0.000000","859759","920861","863160","1.281538","0.294226","0.000000","737460","852038","953408","0.782121","0.176651","0.000000","3191","3004","2943","2266","1975","2266","1909","1621","1909","1708","1434","1708","1416","1176","1416","DualSpot on"
"MA200-0416","48342","104","1","1.10","1.6","2023-07-09T11:50:01","120","2023/07/09","11:50:01","0","0","0.0","11","300","64","84","3576","-1120","23484","12","150","150.62","119.69","30.93","24.70","39.4","9.95","89608","24.31","DUALSPOT-UV-BLUE-GREEN-RED-IR","796615","713803","903767","4.407878","1.079685","-0.008514","770947","896689","764086","2.623844","0.623447","0.000000","870001","903853","816853","1.996398","0.466054","0.000000","861818","924345","866742","1.460361","0.331705","0.000000","733990","848766","949976","0.892482","0.200330","0.000000","2571","2501","2478","1954","1769","1954","1678","1452","1678","1498","1215","1498","1288","1069","1288","DualSpot on"
"MA200-0416","48343","104","1","1.10","1.6","2023-07-09T11:55:01","120","2023/07/09","11:55:01","0","0","0.0","11","300","64","84","3644","-1220","23428","12","150","150.05","119.73","30.32","24.76","38.6","9.72","0","0.00","DUALSPOT-UV-BLUE-GREEN-RED-IR","794922","714382","905402","4.801889","1.181310","0.004984","770131","897450","765217","2.875942","0.683851","0.000000","868630","903798","817166","2.191949","0.510734","0.000000","854563","917624","860707","1.605676","0.363266","0.000000","737842","853867","955834","0.985677","0.220642","0.000000","1932","1968","1980","1560","1476","1560","1355","1223","1355","1217","1044","1217","1087","935","1087","DualSpot on"
"MA200-0416","48344","104","1","1.10","1.6","2023-07-09T12:00:01","120","2023/07/09","12:00:01","-15.78762000799179","35.035994824022055","0.3","11","300","64","83","3804","-1264","22972","12","150","149.39","119.05","30.33","24.79","38.4","9.64","0","0.00","DUALSPOT-UV-BLUE-GREEN-RED-IR","791469","713353","904988","5.189852","1.279884","-0.000709","763447","891378","760477","3.127396","0.743366","-0.032863","866262","902660","816506","2.388460","0.556582","0.000000","852343","916303","859730","1.752298","0.393289","0.000000","731735","847399","948831","1.076963","0.240660","0.000000","1914","1908","1907","1565","1454","1419","1370","1254","1370","1235","993","1235","1071","921","1071","DualSpot on"
"MA200-0416","48345","104","1","1.10","1.6","2023-07-09T12:05:01","120","2023/07/09","12:05:01","-15.787174463272095","35.03523999452591","0.5","11","300","64","83","3716","-1280","22760","12","150","149.83","119.69","30.14","24.78","38.2","9.56","0","0.00","DUALSPOT-UV-BLUE-GREEN-RED-IR","793051","716885","910428","5.593006","1.383771","0.005365","765518","895605","764588","3.395021","0.809890","-0.005078","863378","901113","815520","2.598578","0.606614","0.000000","855879","921204","864675","1.910129","0.430643","0.000000","734757","851519","953661","1.174228","0.262819","0.000000","1978","2024","2039","1657","1636","1629","1457","1378","1457","1322","1243","1322","1135","1027","1135","DualSpot on"
"MA200-0416","48346","104","1","1.10","1.6","2023-07-09T12:10:01","120","2023/07/09","12:10:01","-15.787126183509827","35.035284996032715","0.1","11","300","64","83","3744","-1208","22544","12","150","150.16","119.45","30.71","24.78","38.3","9.60","0","0.00","DUALSPOT-UV-BLUE-GREEN-RED-IR","789660","715904","910115","5.983729","1.486620","0.005142","763224","894666","764276","3.654124","0.873744","-0.015754","861415","900465","815321","2.802903","0.654995","0.000000","854179","920491","864290","2.063252","0.466740","0.000000","734015","851323","953631","1.268774","0.285118","0.000000","1921","1967","1982","1608","1541","1520","1420","1307","1420","1286","1179","1286","1105","1014","1105","DualSpot on"
"MA200-0416","48347","104","1","1.10","1.6","2023-07-09T12:15:01","120","2023/07/09","12:15:01","-15.787163972854614","35.03529465943575","0.3","11","300","64","83","3723","-1268","22648","12","150","149.39","119.53","29.86","24.80","38.2","9.59","89564","24.31","DUALSPOT-UV-BLUE-GREEN-RED-IR","781064","710698","904641","6.477171","1.612150","0.003713","761741","895240","765402","3.994778","0.955207","-0.014847","860356","901235","816562","3.079749","0.721520","-0.016934","854925","922793","866895","2.277487","0.516384","0.000000","733920","852172","954872","1.412874","0.315315","0.000000","2424","2469","2484","2112","2022","1994","1922","1849","1827","1798","1668","1798","1684","1412","1684","DualSpot on"
"MA200-0416","48348","104","1","1.10","1.6","2023-07-09T12:20:01","120","2023/07/09","12:20:01","-15.787052154541016","35.03526499122381","0.3","11","300","64","82","3676","-1236","22756","12","150","150.01","119.79","30.21","24.87","37.8","9.48","89560","24.38","DUALSPOT-UV-BLUE-GREEN-RED-IR","781401","713028","908558","6.868416","1.717722","0.012420","757503","891983","763151","4.255323","1.023847","0.013042","860219","902492","818119","3.283954","0.770926","-0.017088","848668","917129","861863","2.430533","0.551599","0.000000","734150","853029","956095","1.511743","0.339494","0.000000","1918","2052","2097","1612","1684","1707","1415","1357","1340","1281","1169","1281","1152","1118","1152","DualSpot on"
"MA200-0416","48349","104","1","1.10","1.6","2023-07-09T12:25:01","120","2023/07/09","12:25:01","-15.7871173620224","35.03522865846753","0.1","11","300","64","82","3676","-1248","22980","12","150","149.29","119.32","29.97","24.95","38.1","9.69","89536","24.50","DUALSPOT-UV-BLUE-GREEN-RED-IR","774245","708639","903907","7.272242","1.823585","0.007578","757158","893392","764827","4.522593","1.085592","-0.026103","854929","898402","814805","3.495777","0.819623","-0.035594","849681","919363","864265","2.591707","0.585877","0.000000","730382","849311","952130","1.612703","0.361274","0.000000","1987","2074","2103","1660","1527","1485","1473","1349","1310","1355","1147","1355","1182","1015","1182","DualSpot on"
"MA200-0416","48350","104","1","1.10","1.6","2023-07-09T12:30:01","120","2023/07/09","12:30:01","-15.787080228328705","35.03527699038386","0.6","11","300","64","82","3742","-1296","22953","12","150","149.54","119.52","30.03","25.06","38.0","9.76","89528","24.63","DUALSPOT-UV-BLUE-GREEN-RED-IR","776323","712693","910146","7.685834","1.935840","0.012619","754332","891884","764030","4.791062","1.151367","-0.007045","856105","901092","817654","3.706337","0.869077","-0.025086","846942","917552","862861","2.748974","0.620687","0.000000","732087","851988","955337","1.713590","0.385746","0.000000","2032","2195","2250","1665","1623","1610","1462","1367","1338","1320","1163","1320","1179","1138","1179","DualSpot on"
"MA200-0416","48351","104","1","1.10","1.6","2023-07-09T12:35:01","120","2023/07/09","12:35:01","-15.787069022655487","35.035371992737055","0.5","12","300","64","81","3742","-1200","22673","12","150","150.01","118.96","31.05","25.17","38.2","9.92","89520","24.75","DUALSPOT-UV-BLUE-GREEN-RED-IR","767907","707568","904734","8.184522","2.064952","-0.001313","753041","892575","765210","5.114733","1.227439","-0.029427","850543","897009","814408","3.959632","0.924372","-0.068484","841762","913311","859232","2.942075","0.660049","0.000000","727871","847910","951011","1.837436","0.411602","0.000000","2462","2442","2436","2017","1816","1753","1767","1478","1390","1628","1272","1628","1454","1163","1454","DualSpot on"
"MA200-0416","48352","104","1","1.10","1.6","2023-07-09T12:40:01","120","2023/07/09","12:40:01","-15.787103295326233","35.03526799380779","0.0","12","300","64","81","3792","-1248","22716","12","150","149.45","119.45","29.99","25.27","38.1","9.96","0","0.00","DUALSPOT-UV-BLUE-GREEN-RED-IR","763909","706511","904643","8.700026","2.205343","0.011693","750738","891899","765228","5.428265","1.304575","-0.005047","851753","899989","817554","4.201371","0.979698","-0.031083","846294","919555","865405","3.121030","0.696736","-0.099174","730067","851222","954987","1.952999","0.437249","0.000000","2534","2749","2821","1945","1906","1893","1680","1531","1486","1503","1227","1147","1351","1194","1351","DualSpot on"
"MA200-0416","48353","104","1","1.10","1.6","2023-07-09T12:45:01","120","2023/07/09","12:45:01","-15.787064909934998","35.035295493900776","0.2","12","300","64","81","3716","-1236","23004","12","150","149.80","119.33","30.47","25.32","37.7","9.84","0","0.00","DUALSPOT-UV-BLUE-GREEN-RED-IR","762647","708192","908257","9.260593","2.362636","0.012666","745598","888200","762758","5.788404","1.397628","0.002687","847448","897352","815705","4.484625","1.048064","-0.017140","834711","908462","855359","3.331585","0.744336","-0.051950","726932","848436","952160","2.087858","0.467773","0.000000","2759","3032","3125","2237","2264","2272","1970","1862","1830","1770","1567","1509","1578","1399","1578","DualSpot on"
"MA200-0416","48354","104","1","1.10","1.6","2023-07-09T12:50:01","120","2023/07/09","12:50:01","-15.787154138088226","35.03523499518633","0.2","12","300","64","80","3755","-1224","22820","12","150","149.32","119.21","30.10","25.35","37.5","9.80","0","0.00","DUALSPOT-UV-BLUE-GREEN-RED-IR","761886","709578","911076","9.670387","2.479749","0.015571","745416","889750","764648","6.062901","1.470453","0.010345","846686","897978","816741","4.701776","1.104701","0.008777","842017","917517","864241","3.494169","0.783956","-0.013491","727455","849707","953831","2.189838","0.494492","0.000000","2019","2285","2376","1706","1793","1821","1512","1562","1577","1368","1320","1306","1195","1239","1195","DualSpot on"
"MA200-0416","48355","104","1","1.10","1.6","2023-07-09T12:55:01","120","2023/07/09","12:55:01","-15.787078619003296","35.03514749184251","0.2","12","300","64","80","3804","-1324","23164","12","150","150.43","120.13","30.29","25.45","37.5","9.88","0","0.00","DUALSPOT-UV-BLUE-GREEN-RED-IR","756035","706659","908613","10.172596","2.621870","0.013911","741120","886812","762777","6.396477","1.558227","0.008518","842290","895066","814622","4.964197","1.171403","0.002112","838116","914631","861927","3.692762","0.830799","-0.024587","723994","846477","950491","2.316736","0.525407","0.000000","2455","2755","2860","2058","2148","2177","1813","1828","1832","1658","1551","1520","1475","1425","1475","DualSpot on"
"MA200-0416","48356","104","1","1.10","1.6","2023-07-09T13:00:01","120","2023/07/09","13:00:01","-15.787095248699188","35.035234827548265","0.1","12","300","64","80","3764","-1180","23012","12","150","149.73","119.67","30.06","25.49","37.6","9.97","0","0.00","DUALSPOT-UV-BLUE-GREEN-RED-IR","753292","706225","909099","10.588482","2.735578","0.010064","739480","886713","763259","6.677302","1.629026","0.000718","840468","894658","814682","5.185676","1.223147","-0.019424","837069","914704","862332","3.860429","0.866764","-0.060108","727776","851606","956478","2.423225","0.548260","0.000000","2041","2221","2284","1739","1746","1748","1536","1429","1395","1405","1200","1140","1243","1062","1243","DualSpot on"
"MA200-0416","48357","104","1","1.10","1.6","2023-07-09T13:05:01","120","2023/07/09","13:05:01","-15.78709328174591","35.03526348993182","0.2","11","300","64","79","3907","-1164","22552","12","150","149.73","118.87","30.86","25.58","37.1","9.83","0","0.00","DUALSPOT-UV-BLUE-GREEN-RED-IR","746367","701729","904436","10.996614","2.859026","0.016585","739096","888004","764905","6.945742","1.703567","0.012157","839994","895538","815950","5.397720","1.279396","0.005143","838025","916831","864687","4.019916","0.908505","0.002584","723652","847384","952012","2.525560","0.575938","0.000000","2016","2349","2466","1674","1790","1828","1480","1513","1523","1346","1357","1360","1202","1252","1202","DualSpot on"
"MA200-0416","48358","104","1","1.10","1.6","2023-07-09T13:10:01","120","2023/07/09","13:10:01","-15.787083983421326","35.035256158560514","0.1","11","300","64","79","3771","-1152","22660","12","150","150.16","119.37","30.79","25.61","36.7","9.69","0","0.00","DUALSPOT-UV-BLUE-GREEN-RED-IR","749063","705992","910873","11.344446","2.960680","0.013450","736679","886582","764159","7.177159","1.766122","0.008340","837826","894428","815351","5.581916","1.328188","0.006128","836255","915835","864033","4.157559","0.940817","-0.031612","722243","846307","951006","2.612228","0.597140","0.000000","1711","1939","2019","1437","1506","1528","1281","1315","1326","1156","1052","1022","1014","961","1014","DualSpot on"
"MA200-0416","48359","104","1","1.10","1.6","2023-07-09T13:15:01","120","2023/07/09","13:15:01","-15.787043631076813","35.03530182316899","0.0","11","300","64","78","3664","-1200","22408","12","150","150.01","119.11","30.90","25.63","36.3","9.55","0","0.00","DUALSPOT-UV-BLUE-GREEN-RED-IR","741693","700714","904935","11.680597","3.056078","0.009659","735881","887150","765148","7.413773","1.827909","0.001159","836847","894702","815994","5.774057","1.377171","-0.004037","835959","916540","865008","4.304544","0.975847","-0.027322","722103","846757","951701","2.708679","0.618387","0.000000","1657","1813","1868","1472","1482","1485","1339","1316","1308","1238","1137","1107","1131","960","1131","DualSpot on"
"MA200-0416","48360","104","1","1.10","1.6","2023-07-09T13:20:01","120","2023/07/09","13:20:01","-15.78707730770111","35.03527465835214","0.1","11","300","64","77","3828","-1228","23184","12","150","149.80","119.63","30.16","25.71","36.6","9.74","89480","25.25","DUALSPOT-UV-BLUE-GREEN-RED-IR","741902","702623","908257","12.019493","3.155111","0.014756","731616","883519","762473","7.646797","1.889617","0.008190","832844","891662","813571","5.960889","1.422643","-0.008008","832242","913502","862397","4.449052","1.010209","-0.017862","723628","849182","954624","2.801431","0.641622","0.000000","1663","1928","2022","1443","1516","1540","1296","1251","1237","1211","1142","1122","1083","1076","1083","DualSpot on"
"MA200-0416","48361","104","1","1.10","1.6","2023-07-09T13:25:01","120","2023/07/09","13:25:01","-15.787099421024323","35.03528416156769","0.1","11","300","64","77","3752","-1188","22984","12","150","149.92","119.25","30.67","25.75","35.7","9.43","89468","25.19","DUALSPOT-UV-BLUE-GREEN-RED-IR","736264","698932","904417","12.357998","3.255655","0.014060","727478","880002","759945","7.879670","1.954700","0.013116","833849","893947","816063","6.146205","1.472628","0.009804","833984","916387","865424","4.588500","1.043301","-0.024222","720389","845926","951192","2.891349","0.664355","0.000000","1667","1925","2017","1447","1573","1614","1290","1353","1372","1173","1082","1055","1053","1035","1053","DualSpot on"
"MA200-0416","48362","104","1","1.10","1.6","2023-07-09T13:30:01","120","2023/07/09","13:30:01","-15.787131607532501","35.035323325544596","0.1","10","300","64","76","-780","-4296","-25980","12","150","150.35","119.67","30.68","25.83","42.0","11.93","89460","25.00","DUALSPOT-UV-BLUE-GREEN-RED-IR","732397","700003","907449","13.219658","3.438034","-0.023349","723411","881151","761771","8.682181","2.064342","-0.182351","824795","889946","813099","6.879015","1.558989","-0.337173","823321","909855","859827","5.226914","1.109087","-0.603244","718315","846914","952823","3.350471","0.718213","-0.665964","4229","3491","3231","4971","2648","1924","5084","2336","1531","5352","2150","1288","5359","2451","1658","DualSpot on"
"MA200-0416","48363","104","1","1.10","1.6","2023-07-09T13:35:01","120","2023/07/09","13:35:01","-15.787109434604645","35.035267159342766","0.2","10","300","64","76","-748","-4096","-26132","12","150","150.08","119.71","30.37","26.01","45.1","13.18","89452","24.75","DUALSPOT-UV-BLUE-GREEN-RED-IR","727130","696905","904507","13.617414","3.558315","0.015159","723625","883089","763934","8.935537","2.127613","-0.002324","826478","893179","816441","7.079232","1.603115","-0.028841","825945","913935","863905","5.381016","1.137775","-0.094651","716031","845108","951067","3.485777","0.749158","-0.041084","1951","2326","2459","1568","1544","1537","1388","1206","1153","1291","947","855","1578","1423","1381","DualSpot on"
"MA200-0416","48364","104","1","1.10","1.6","2023-07-09T13:40:01","120","2023/07/09","13:40:01","-15.78704959154129","35.03530132770538","0.2","10","300","64","76","-892","-4284","-26153","12","150","149.51","119.61","29.90","26.12","45.7","13.51","89448","24.81","DUALSPOT-UV-BLUE-GREEN-RED-IR","728317","700300","910123","14.071230","3.689476","0.012426","720504","881269","762876","9.231394","2.199890","-0.003311","822766","890830","814694","7.314248","1.655107","-0.023840","823043","912028","862413","5.560534","1.172709","-0.070144","717381","847564","954123","3.616048","0.779469","-0.026714","2228","2576","2700","1833","1792","1779","1631","1443","1389","1505","1172","1083","1521","1416","1387","DualSpot on"
"MA200-0416","48365","104","1","1.10","1.6","2023-07-09T13:45:01","120","2023/07/09","13:45:01","-15.78707629442215","35.035282488912344","0.3","11","300","64","75","-932","-4344","-26160","12","150","150.14","119.46","30.68","26.24","45.3","13.48","89444","24.94","DUALSPOT-UV-BLUE-GREEN-RED-IR","722115","696755","906758","14.557556","3.827781","0.008720","720693","883507","765397","9.535105","2.276130","-0.003223","822355","891983","816233","7.552428","1.710558","-0.018236","824836","915326","865852","5.742439","1.209550","-0.063742","717832","848896","955890","3.741439","0.806164","-0.074584","2391","2647","2738","1884","1841","1828","1655","1500","1454","1527","1204","1118","1466","1215","1146","DualSpot on"
"MA200-0416","48366","104","1","1.10","1.6","2023-07-09T13:50:01","120","2023/07/09","13:50:01","-15.787091076374054","35.03530032560229","0.2","12","300","64","74","-827","-4275","-26225","12","150","149.57","119.45","30.11","26.35","44.3","13.23","0","0.00","DUALSPOT-UV-BLUE-GREEN-RED-IR","717199","694359","904898","15.030815","3.963611","0.010529","717249","881244","763995","9.827753","2.348924","-0.001816","818090","888933","813817","7.781530","1.761907","-0.021521","819970","911221","862257","5.916152","1.243215","-0.069999","714172","845402","952198","3.863266","0.831726","-0.070380","2327","2649","2764","1816","1791","1784","1592","1415","1363","1459","1121","1031","1424","1185","1120","DualSpot on"
"MA200-0416","48367","104","1","1.10","1.6","2023-07-09T13:55:01","120","2023/07/09","13:55:01","-15.787059128284454","35.035344660282135","0.2","12","300","64","74","-876","-4204","-26175","12","150","150.05","119.65","30.41","26.45","43.8","13.14","0","0.00","DUALSPOT-UV-BLUE-GREEN-RED-IR","714851","694554","906435","15.534449","4.110212","0.010619","716246","882110","765367","10.148440","2.429433","-0.001612","817043","889507","814867","8.036352","1.822280","-0.011963","820812","913532","864827","6.108615","1.284289","-0.041697","714075","846145","953289","3.993072","0.861026","-0.041662","2472","2831","2960","1986","1962","1955","1768","1648","1613","1613","1355","1286","1515","1346","1299","DualSpot on"
"MA200-0416","48368","104","1","1.10","1.6","2023-07-09T14:00:01","120","2023/07/09","14:00:01","-15.78711211681366","35.03530599176884","0.2","12","300","64","73","-867","-4204","-25975","12","150","150.23","120.01","30.21","26.55","43.9","13.25","89436","25.25","DUALSPOT-UV-BLUE-GREEN-RED-IR","709236","691853","904313","16.085836","4.265972","0.008856","711894","879022","763348","10.491080","2.512807","-0.004389","816934","891243","816965","8.302111","1.881891","-0.019775","817507","911325","863063","6.312812","1.324206","-0.062482","710832","843227","950299","4.130491","0.889263","-0.074068","2698","3027","3146","2116","2045","2023","1838","1637","1579","1707","1325","1224","1599","1305","1224","DualSpot on"
"MA200-0416","48369","104","1","1.10","1.6","2023-07-09T14:05:01","120","2023/07/09","14:05:01","-15.787069618701935","35.03526632487774","0.4","12","300","64","73","-944","-4416","-26047","12","150","149.51","119.69","29.82","26.67","43.4","13.19","89420","25.31","DUALSPOT-UV-BLUE-GREEN-RED-IR","708603","694478","909509","16.747194","4.455940","0.010303","708064","876883","762232","10.885419","2.610130","-0.001136","811881","887845","814365","8.605588","1.948982","-0.019788","818115","913699","865746","6.544039","1.370888","-0.048204","710984","844435","951978","4.285856","0.921739","-0.060155","3245","3742","3922","2442","2419","2412","2105","1868","1798","1938","1570","1473","1813","1521","1441","DualSpot on"
"MA200-0416","48370","104","1","1.10","1.6","2023-07-09T14:10:01","120","2023/07/09","14:10:01","-15.78705084323883","35.03533732518554","0.2","13","300","64","72","-965","-4338","-26207","12","150","150.35","119.25","31.09","26.78","42.9","13.10","89412","25.44","DUALSPOT-UV-BLUE-GREEN-RED-IR","700507","689299","904193","17.309882","4.617035","0.006811","706612","877409","763357","11.237268","2.697498","-0.005956","811269","889039","815986","8.881274","2.013426","-0.017395","814214","910844","863381","6.753970","1.415008","-0.048149","711776","846322","954371","4.426779","0.951227","-0.075920","2771","3043","3141","2187","2083","2050","1919","1720","1662","1766","1423","1332","1650","1324","1235","DualSpot on"
"MA200-0416","48371","104","1","1.10","1.6","2023-07-09T14:15:01","120","2023/07/09","14:15:01","-15.787042796611786","35.035376492887735","0.2","13","300","64","72","-832","-4320","-26184","12","150","149.92","120.10","29.83","26.89","42.6","13.10","89412","25.56","DUALSPOT-UV-BLUE-GREEN-RED-IR","700571","691739","908660","17.794396","4.756687","0.010101","702503","874313","761224","11.544597","2.772773","-0.001601","811222","890677","817947","9.124641","2.069044","-0.012615","815684","913875","866582","6.939810","1.451152","-0.054444","712130","847579","956048","4.553129","0.977793","-0.053317","2369","2750","2888","1897","1870","1862","1682","1548","1508","1552","1215","1126","1469","1244","1182","DualSpot on"
"MA200-0416","48372","104","1","1.10","1.6","2023-07-09T14:20:01","120","2023/07/09","14:20:01","-15.787072777748108","35.035218488425016","0.2","13","300","64","71","-828","-4268","-26324","12","150","149.63","119.41","30.22","26.99","41.6","12.82","89412","25.63","DUALSPOT-UV-BLUE-GREEN-RED-IR","694458","687950","904885","18.254120","4.894699","0.011111","702839","876767","763965","11.854986","2.855266","0.005227","806294","886949","815009","9.375543","2.130180","-0.005394","810076","908983","862293","7.134787","1.494592","-0.025003","707969","843497","951715","4.687216","1.010028","-0.014549","2261","2682","2836","1926","2023","2054","1744","1679","1660","1638","1442","1390","1568","1490","1468","DualSpot on"
"MA200-0416","48373","104","1","1.10","1.6","2023-07-09T14:25:01","120","2023/07/09","14:25:01","-15.787047147750854","35.03525182232261","0.1","13","300","64","71","-796","-4228","-26152","12","150","149.70","119.21","30.49","27.06","41.1","12.70","89416","25.69","DUALSPOT-UV-BLUE-GREEN-RED-IR","693485","689072","907524","18.686352","5.022634","0.009481","702101","877802","765466","12.155383","2.932884","0.001112","804766","886888","815456","9.619730","2.189696","-0.006721","810444","910746","864358","7.326320","1.537126","-0.027275","707663","843973","952538","4.820585","1.039303","-0.045715","2129","2464","2588","1868","1887","1893","1700","1620","1597","1611","1399","1343","1562","1341","1280","DualSpot on"
"MA200-0416","48374","104","1","1.10","1.6","2023-07-09T14:30:01","120","2023/07/09","14:30:01","-15.787194192409515","35.03519266098738","0.7","13","300","64","70","-848","-4296","-26152","12","150","149.63","119.85","29.78","27.13","40.7","12.63","89412","25.81","DUALSPOT-UV-BLUE-GREEN-RED-IR","692343","690009","910003","19.122908","5.155956","0.012483","697093","873430","762305","12.457600","3.015001","0.008814","804538","888248","817209","9.866623","2.252322","0.002661","811029","912699","866576","7.516921","1.581537","-0.011393","708146","845407","954471","4.948412","1.068194","-0.026345","2139","2629","2810","1869","2044","2099","1710","1745","1756","1595","1496","1469","1489","1355","1318","DualSpot on"
"MA200-0416","48375","104","1","1.10","1.6","2023-07-09T14:35:01","120","2023/07/09","14:35:01","-15.787107706069946","35.035315990448","0.0","13","300","64","70","-948","-4336","-26116","12","150","149.86","119.63","30.23","27.19","40.2","12.48","89412","25.81","DUALSPOT-UV-BLUE-GREEN-RED-IR","684976","685141","905029","19.647820","5.316942","0.011539","695309","873568","763187","12.829962","3.117342","0.008100","798652","883782","813754","10.169894","2.330816","0.003016","805292","907921","862552","7.755460","1.638537","-0.009524","707710","845918","955392","5.104639","1.105265","-0.016491","2577","3128","3332","2307","2510","2575","2104","2156","2171","2000","1891","1862","1824","1713","1682","DualSpot on"
"MA200-0416","48376","104","1","1.10","1.6","2023-07-09T14:40:01","120","2023/07/09","14:40:01","-15.787125825881958","35.03524782508612","0.1","13","300","64","69","-855","-4308","-26112","12","150","149.49","119.75","29.74","27.24","40.3","12.58","0","0.00","DUALSPOT-UV-BLUE-GREEN-RED-IR","680494","683237","904046","20.194020","5.486847","0.012747","692539","872542","763132","13.217653","3.223295","0.008866","795534","882363","813102","10.485334","2.413749","0.006744","802699","906644","861853","7.997448","1.698237","-0.001069","705841","844664","954334","5.261635","1.143831","-0.002695","2679","3355","3607","2400","2641","2718","2187","2315","2353","2027","2013","2010","1831","1811","1805","DualSpot on"
"MA200-0416","48377","104","1","1.10","1.6","2023-07-09T14:45:01","120","2023/07/09","14:45:01","-15.78708565235138","35.035227824002504","0.3","12","300","64","68","-932","-4332","-26212","12","150","150.69","119.45","31.24","27.31","40.1","12.58","0","0.00","DUALSPOT-UV-BLUE-GREEN-RED-IR","671799","681696","906058","21.700752","5.936949","0.007547","686354","871483","764317","14.271891","3.504045","0.001659","789413","881328","813967","11.362404","2.634966","-0.004271","798258","906578","863256","8.710526","1.867419","-0.015375","698900","839474","949525","5.742986","1.254674","-0.031425","7408","8462","8859","6542","6662","6701","6095","5879","5813","5989","5433","5281","5629","4956","4768","DualSpot on"
"MA200-0416","48378","104","1","1.10","1.6","2023-07-09T14:50:01","120","2023/07/09","14:50:01","-15.786986887454987","35.03536082431674","0.4","12","300","64","68","-928","-4416","-26160","12","150","149.73","119.71","30.02","27.38","39.6","12.42","89416","26.06","DUALSPOT-UV-BLUE-GREEN-RED-IR","670788","684036","911252","22.428956","6.163080","0.011021","681626","868893","763206","14.823280","3.655048","0.007335","787974","882796","816316","11.834623","2.757382","0.003547","793377","903673","861284","9.099618","1.960581","-0.006742","699257","841651","952560","6.014364","1.315437","-0.026458","3572","4423","4746","3414","3728","3831","3275","3385","3418","3260","3113","3072","3166","2827","2732","DualSpot on"
"MA200-0416","48379","104","1","1.10","1.6","2023-07-09T14:55:01","120","2023/07/09","14:55:01","-15.787039816379547","35.03529532626271","0.2","13","300","64","68","-920","-4280","-25988","12","150","149.46","119.34","30.13","27.40","38.8","12.15","89416","26.06","DUALSPOT-UV-BLUE-GREEN-RED-IR","663142","678350","904947","22.876522","6.304802","0.011356","679342","868147","763280","15.165846","3.749939","0.007540","786430","882961","817089","12.122368","2.832597","0.003641","792909","904748","862831","9.336728","2.018457","-0.004732","698746","842148","953506","6.182594","1.354016","-0.021505","2202","2762","2976","2128","2334","2402","2001","2072","2094","1993","1927","1909","1969","1788","1738","DualSpot on"
"MA200-0416","48380","104","1","1.10","1.6","2023-07-09T15:00:01","120","2023/07/09","15:00:01","-15.787061512470245","35.0353154912591","0.1","13","300","64","67","-1152","-4624","-25520","12","150","150.35","119.67","30.68","27.39","38.1","11.86","0","0.00","DUALSPOT-UV-BLUE-GREEN-RED-IR","660979","677832","905336","23.250864","6.425413","0.011257","677733","867879","763683","15.457405","3.835304","0.010270","784518","882369","817085","12.369937","2.901935","0.008699","791534","904507","862979","9.534413","2.068662","-0.001292","697623","841664","953267","6.318809","1.387899","-0.006302","1837","2308","2488","1806","2062","2146","1717","1876","1924","1657","1641","1637","1590","1542","1529","DualSpot on"
"MA200-0416","48381","104","1","1.10","1.6","2023-07-09T15:05:01","120","2023/07/09","15:05:01","-15.787074863910675","35.035310324281454","0.3","13","300","64","67","-920","-4272","-26140","12","150","149.45","119.57","29.88","27.41","37.8","11.76","0","0.00","DUALSPOT-UV-BLUE-GREEN-RED-IR","658774","677259","905588","23.607026","6.538191","0.011434","676090","867507","763950","15.729810","3.912981","0.010062","782721","881820","817144","12.600711","2.964676","0.008197","789779","903740","862702","9.718530","2.116155","0.004091","696719","841364","953199","6.443046","1.416676","-0.016011","1749","2217","2396","1688","1927","2006","1602","1743","1786","1544","1594","1608","1451","1345","1315","DualSpot on"
"MA200-0416","48382","104","1","1.10","1.6","2023-07-09T15:10:01","120","2023/07/09","15:10:01","-15.787133634090424","35.03524149209261","0.9","13","300","64","67","-832","-4264","-26152","12","150","149.84","119.08","30.76","27.42","38.3","11.96","89412","26.13","DUALSPOT-UV-BLUE-GREEN-RED-IR","655957","677171","907278","24.215382","6.730371","0.009742","673741","867519","765017","16.216692","4.050251","0.006699","776206","877177","813726","13.019902","3.077316","0.003844","787844","903920","863597","10.068299","2.206069","-0.000621","696070","842113","954594","6.683653","1.475522","-0.010966","3000","3669","3927","3031","3308","3400","2922","3040","3076","2946","2932","2928","2822","2672","2629","DualSpot on"
"MA200-0416","48383","104","1","1.10","1.6","2023-07-09T15:15:01","120","2023/07/09","15:15:01","-15.787072122097015","35.03534232825041","0.2","14","300","64","66","-932","-4284","-26144","12","150","149.54","119.63","29.91","27.46","38.2","11.95","89404","26.19","DUALSPOT-UV-BLUE-GREEN-RED-IR","652836","676487","907889","24.771092","6.907587","0.011157","671130","866882","765436","16.660837","4.177225","0.009641","773588","876682","814135","13.405927","3.183252","0.008461","787291","905385","865752","10.387885","2.288544","0.003810","695060","842334","955374","6.906774","1.530363","-0.003228","2728","3479","3770","2752","3146","3278","2678","2940","3021","2680","2766","2790","2605","2561","2548","DualSpot on"
"MA200-0416","48384","104","1","1.10","1.6","2023-07-09T15:20:01","120","2023/07/09","15:20:01","-15.787074089050293","35.035298489034176","0.1","14","300","64","65","-932","-4316","-26291","12","150","149.66","119.38","30.28","27.50","38.2","11.99","89404","26.19","DUALSPOT-UV-BLUE-GREEN-RED-IR","648752","674632","907020","25.298538","7.082205","0.011763","668163","865455","765051","17.052314","4.292364","0.010299","769848","874520","812876","13.737094","3.275973","0.008725","783220","902517","863616","10.660296","2.359884","0.003743","692390","840324","953547","7.096000","1.576478","-0.007502","2595","3386","3694","2431","2818","2948","2303","2542","2616","2289","2363","2384","2214","2127","2102","DualSpot on"
"MA200-0416","48385","104","1","1.10","1.6","2023-07-09T15:25:01","120","2023/07/09","15:25:01","-15.787141859531403","35.035312827676535","0.2","14","300","64","65","-1120","-4552","-26052","12","150","149.76","119.69","30.07","27.51","38.0","11.91","0","0.00","DUALSPOT-UV-BLUE-GREEN-RED-IR","646414","675035","909417","25.918476","7.285471","0.011490","661958","860418","761718","17.544226","4.436977","0.010564","768080","875233","814514","14.164561","3.394788","0.008652","783013","904670","866491","11.014924","2.453291","0.005306","692221","841655","955649","7.344208","1.637071","-0.005172","3042","3969","4332","3046","3564","3739","2965","3280","3379","2972","3116","3157","2896","2814","2790","DualSpot on"
"MA200-0416","48386","104","1","1.10","1.6","2023-07-09T15:30:01","120","2023/07/09","15:30:01","-15.787099599838257","35.03528616204858","0.7","13","300","64","65","-820","-4324","-25836","12","150","150.09","119.53","30.56","27.53","38.1","11.98","0","0.00","DUALSPOT-UV-BLUE-GREEN-RED-IR","642275","674101","910352","26.659988","7.527200","0.010389","658815","859650","762207","18.085088","4.591156","0.007374","764920","874568","814904","14.622749","3.518135","0.004446","780600","904447","867100","11.390397","2.548325","-0.001165","690618","841380","955925","7.605583","1.699354","-0.012640","3643","4645","5039","3354","3739","3870","3182","3350","3403","3151","3119","3110","3054","2846","2786","DualSpot on"
"MA200-0416","48387","104","1","1.10","1.6","2023-07-09T15:35:01","120","2023/07/09","15:35:01","-15.787083983421326","35.03531049191952","0.2","13","300","64","64","-1184","-4524","-26360","12","150","150.03","119.81","30.22","27.55","38.2","12.05","0","0.00","DUALSPOT-UV-BLUE-GREEN-RED-IR","634048","668038","903924","27.249172","7.723308","0.011321","656458","859140","762742","18.520842","4.719896","0.010096","762361","873920","815111","14.990346","3.619551","0.007345","773098","897711","861318","11.693826","2.627158","0.003194","689459","841341","956359","7.818023","1.749302","-0.012242","2888","3811","4177","2696","3158","3316","2547","2786","2862","2540","2617","2639","2477","2309","2260","DualSpot on"
"MA200-0416","48388","104","1","1.10","1.6","2023-07-09T15:40:01","120","2023/07/09","15:40:01","-15.787109017372131","35.035275824368","0.2","13","300","64","64","-1016","-4384","-26288","12","150","150.27","119.18","31.08","27.57","38.2","12.05","0","0.00","DUALSPOT-UV-BLUE-GREEN-RED-IR","631616","667460","904503","27.704116","7.874189","0.009931","654681","858837","763172","18.847980","4.813642","0.006215","760446","873481","815308","15.265689","3.694862","0.003961","771450","897309","861416","11.919189","2.684223","-0.003270","688470","841140","956458","7.975986","1.785746","-0.021889","2242","2851","3093","2034","2235","2304","1918","2011","2041","1897","1841","1825","1851","1637","1576","DualSpot on"
"MA200-0416","48389","104","1","1.10","1.6","2023-07-09T15:45:01","120","2023/07/09","15:45:01","-15.78709626197815","35.03530599176884","0.3","12","300","64","63","-1179","-4525","-25920","12","150","149.99","119.63","30.35","27.57","37.8","11.89","0","0.00","DUALSPOT-UV-BLUE-GREEN-RED-IR","629652","666899","904851","28.049428","7.992037","0.011605","653223","858422","763385","19.104394","4.893131","0.012024","759064","873190","815548","15.478824","3.756565","0.010142","771087","898032","862512","12.090419","2.728963","0.003067","683786","836142","951037","8.090420","1.812995","-0.010640","1695","2280","2513","1588","1941","2062","1479","1687","1754","1435","1478","1491","1336","1254","1230","DualSpot on"
"MA200-0416","48390","104","1","1.10","1.6","2023-07-09T15:50:01","120","2023/07/09","15:50:01","-15.78711986541748","35.03523999452591","0.1","12","300","64","63","-836","-4216","-26308","12","150","150.20","119.08","31.12","27.54","37.4","11.72","0","0.00","DUALSPOT-UV-BLUE-GREEN-RED-IR","628654","667255","906289","28.370812","8.103403","0.011040","651998","858258","763848","19.345100","4.968698","0.011009","757837","873046","815876","15.683044","3.817070","0.009564","769276","896941","861832","12.252541","2.775073","0.008351","683140","836018","951177","8.199692","1.840728","-0.004729","1585","2101","2308","1498","1799","1904","1423","1613","1675","1365","1486","1521","1281","1244","1234","DualSpot on"
"MA200-0416","48391","104","1","1.10","1.6","2023-07-09T15:55:01","120","2023/07/09","15:55:01","-15.787140250205994","35.03526049107313","0.5","12","300","64","63","-984","-4196","-26368","12","150","150.17","119.90","30.27","27.52","37.1","11.58","89408","26.25","DUALSPOT-UV-BLUE-GREEN-RED-IR","625055","664946","904192","28.709072","8.219124","0.011569","649896","857063","763384","19.607372","5.049480","0.011654","755565","871792","815266","15.903309","3.882706","0.012107","767562","896114","861481","12.432274","2.825260","0.009697","681804","835139","950468","8.318519","1.872454","0.008297","1657","2245","2481","1621","1978","2101","1525","1800","1888","1503","1663","1710","1384","1463","1487","DualSpot on"
"MA200-0416","48392","104","1","1.10","1.6","2023-07-09T16:00:01","120","2023/07/09","16:00:01","-15.787114560604095","35.0352523252368","0.6","13","300","64","62","-1165","-4607","-25996","12","150","149.90","119.17","30.72","27.47","37.2","11.56","89404","26.25","DUALSPOT-UV-BLUE-GREEN-RED-IR","622185","663352","903146","29.054070","8.340984","0.011762","647199","855029","762214","19.875528","5.135984","0.012733","754019","871358","815429","16.133587","3.954500","0.013455","766209","895685","861565","12.616289","2.881813","0.015798","681301","835274","950903","8.439102","1.903352","-0.000939","1700","2329","2583","1668","2087","2233","1604","1940","2049","1549","1846","1934","1413","1404","1402","DualSpot on"
"MA200-0416","48393","104","1","1.10","1.6","2023-07-09T16:05:01","120","2023/07/09","16:05:01","-15.787114560604095","35.03521765768528","0.3","13","300","64","62","-936","-4308","-26091","12","150","149.69","119.16","30.53","27.44","37.3","11.59","0","0.00","DUALSPOT-UV-BLUE-GREEN-RED-IR","624262","667098","909326","29.401272","8.459564","0.010840","645111","853815","761770","20.139618","5.216533","0.010160","751430","869734","814447","16.353853","4.018545","0.009284","763239","893373","859759","12.793430","2.929866","0.005551","679680","833952","949720","8.555256","1.933813","0.003472","1711","2281","2511","1642","1956","2065","1534","1741","1809","1491","1579","1605","1361","1393","1403","DualSpot on"
"MA200-0416","48394","104","1","1.10","1.6","2023-07-09T16:10:01","120","2023/07/09","16:10:01","-15.787104904651642","35.035195995122194","0.2","12","300","64","61","-896","-4332","-26208","12","150","149.33","118.81","30.51","27.42","37.3","11.54","0","0.00","DUALSPOT-UV-BLUE-GREEN-RED-IR","621717","665926","908852","29.758426","8.583170","0.011030","642848","852386","761132","20.405638","5.298919","0.010668","749434","868768","814064","16.575279","4.084438","0.010502","767417","899412","865986","12.970872","2.980601","0.009896","678777","833580","949564","8.670570","1.963734","0.001534","1765","2379","2628","1659","2001","2121","1547","1792","1873","1498","1668","1718","1355","1369","1374","DualSpot on"
"MA200-0416","48395","104","1","1.10","1.6","2023-07-09T16:15:01","120","2023/07/09","16:15:01","-15.787142515182495","35.03521915525198","0.3","12","300","64","61","-788","-4192","-26176","12","150","150.70","119.50","31.20","27.42","37.4","11.60","89420","26.19","DUALSPOT-UV-BLUE-GREEN-RED-IR","619299","664933","908669","30.130104","8.712379","0.010559","641102","851688","761152","20.678238","5.384094","0.010166","747835","868284","814192","16.803828","4.153633","0.010416","766450","899442","866467","13.154533","3.031659","0.005911","682139","838475","955441","8.793186","1.995028","-0.003389","1826","2432","2679","1691","2023","2141","1587","1841","1924","1541","1641","1671","1433","1401","1391","DualSpot on"
"MA200-0416","48396","104","1","1.10","1.6","2023-07-09T16:20:01","120","2023/07/09","16:20:01","-15.787108480930328","35.03527965769172","0.3","12","300","64","60","-615","-4261","-26100","12","150","149.80","119.59","30.20","27.40","37.5","11.62","89424","26.19","DUALSPOT-UV-BLUE-GREEN-RED-IR","616425","664172","909161","30.639390","8.879673","0.009710","638810","850997","761387","21.062094","5.495126","0.007806","745852","868082","814751","17.131238","4.242778","0.005495","764089","898492","866195","13.422487","3.101855","0.003455","676923","833262","949895","8.972916","2.036767","-0.012935","2501","3253","3560","2379","2725","2847","2272","2450","2509","2247","2331","2357","2099","1930","1881","DualSpot on"
"MA200-0416","48397","104","1","1.10","1.6","2023-07-09T16:25:01","120","2023/07/09","16:25:01","-15.78713196516037","35.03527798876166","0.3","13","300","64","60","-976","-4400","-25944","12","150","150.66","119.56","31.10","27.39","37.6","11.64","89432","26.19","DUALSPOT-UV-BLUE-GREEN-RED-IR","612461","662391","908490","31.216804","9.073709","0.009337","639387","854394","765453","21.509360","5.627222","0.007202","742573","866686","814271","17.516620","4.348881","0.004114","761577","897656","866080","13.743406","3.184897","-0.000503","679625","837955","955762","9.195930","2.089399","-0.014833","2836","3664","4003","2773","3148","3281","2676","2832","2883","2692","2678","2674","2605","2364","2292","DualSpot on"
"MA200-0416","48398","104","1","1.10","1.6","2023-07-09T16:30:01","120","2023/07/09","16:30:01","-15.787081599235535","35.03525448963046","0.5","13","300","64","60","-873","-3776","-26630","12","150","150.03","119.57","30.46","27.38","37.6","11.65","89436","26.19","DUALSPOT-UV-BLUE-GREEN-RED-IR","608854","661205","908738","31.833232","9.279327","0.009550","636372","853260","765489","21.981730","5.765356","0.007600","739644","865818","814372","17.924490","4.460376","0.004950","758796","896702","865909","14.086934","3.271842","-0.000599","677990","837543","955827","9.437790","2.144058","-0.018111","3028","3965","4350","2928","3362","3516","2832","3039","3107","2882","2863","2858","2825","2506","2413","DualSpot on"
"MA200-0416","48399","104","1","1.10","1.6","2023-07-09T16:35:01","120","2023/07/09","16:35:01","-15.787111580371857","35.03523916006088","0.4","13","300","64","59","-532","-4584","-25912","12","150","149.09","118.38","30.71","27.37","37.6","11.63","89440","26.13","DUALSPOT-UV-BLUE-GREEN-RED-IR","603833","657972","905901","32.353596","9.460276","0.010040","632877","850947","764297","22.381026","5.886265","0.008263","735484","863046","812569","18.269582","4.560626","0.007535","753886","892753","862759","14.374273","3.348893","0.002924","674932","835017","953384","9.636387","2.190909","-0.013791","2581","3460","3824","2500","2918","3067","2420","2710","2806","2435","2517","2542","2343","2131","2068","DualSpot on"
"MA200-0416","48400","104","1","1.10","1.6","2023-07-09T16:40:01","120","2023/07/09","16:40:01","-15.78711062669754","35.03519282862544","0.1","13","300","64","59","-896","-4336","-26156","12","150","149.45","119.29","30.15","27.34","37.7","11.66","0","0.00","DUALSPOT-UV-BLUE-GREEN-RED-IR","601635","658278","908309","32.976322","9.674198","0.010216","630687","850756","765226","22.845682","6.028124","0.009636","733484","863147","813591","18.664488","4.672765","0.007573","752715","893494","864217","14.699855","3.435284","0.004145","674452","835867","954846","9.859402","2.244111","-0.007967","3066","4166","4623","2887","3487","3702","2748","3087","3200","2738","2874","2915","2611","2464","2421","DualSpot on"
"MA200-0416","48401","104","1","1.10","1.6","2023-07-09T16:45:01","120","2023/07/09","16:45:01","-15.787118673324585","35.035233329981565","0.5","13","300","64","58","-784","-4436","-25875","12","150","149.90","119.61","30.29","27.30","37.7","11.62","0","0.00","DUALSPOT-UV-BLUE-GREEN-RED-IR","596050","655212","906356","33.695748","9.927597","0.010585","626654","848411","764405","23.379224","6.194074","0.010139","729833","861612","813209","19.116106","4.804909","0.009000","749619","892211","863847","15.068570","3.536248","0.006382","672590","835131","954579","10.111847","2.304400","-0.007856","3532","4914","5491","3306","4062","4334","3134","3622","3786","3092","3344","3421","2948","2780","2731","DualSpot on"
"MA200-0416","48402","104","1","1.10","1.6","2023-07-09T16:50:01","120","2023/07/09","16:50:01","-15.787113785743713","35.03527599200606","0.0","13","300","64","58","-928","-4356","-26024","12","150","149.49","119.40","30.08","27.28","37.5","11.53","89452","26.13","DUALSPOT-UV-BLUE-GREEN-RED-IR","591233","653146","905962","34.464408","10.200176","0.010638","622861","846588","764095","23.949110","6.372591","0.010397","726409","860517","813340","19.599450","4.948056","0.009701","746936","891538","864134","15.462678","3.645384","0.007425","671079","834960","955035","10.381241","2.372038","-0.000432","3781","5321","5969","3538","4399","4711","3360","3950","4149","3311","3639","3740","3151","3140","3137","DualSpot on"
"MA200-0416","48403","104","1","1.10","1.6","2023-07-09T16:55:01","120","2023/07/09","16:55:01","-15.78712409734726","35.035313826054335","0.2","13","300","64","58","-908","-4276","-26072","12","150","149.66","118.84","30.82","27.24","37.5","11.49","89456","26.06","DUALSPOT-UV-BLUE-GREEN-RED-IR","586326","650437","904338","35.121492","10.438042","0.010255","619166","844335","763250","24.436760","6.528318","0.009812","726919","863590","817245","20.011782","5.072778","0.009096","743313","889363","862851","15.797487","3.740316","0.006883","668971","833732","954156","10.606625","2.427547","-0.006610","3247","4532","5075","3042","3745","4001","2880","3359","3521","2826","3089","3171","2649","2515","2475","DualSpot on"
"MA200-0416","48404","104","1","1.10","1.6","2023-07-09T17:00:01","120","2023/07/09","17:00:01","-15.787115931510925","35.03529666364193","0.1","13","300","64","57","-934","-4242","-26280","12","150","150.16","119.61","30.55","27.19","37.4","11.39","89452","26.00","DUALSPOT-UV-BLUE-GREEN-RED-IR","583979","650187","905851","35.688148","10.644447","0.010586","616836","843611","763692","24.866808","6.668794","0.011096","724177","862512","817132","20.376890","5.184388","0.010249","739932","887179","861490","16.097788","3.826672","0.008802","667164","832738","953508","10.810905","2.481219","0.003315","2782","3968","4472","2665","3408","3681","2534","3033","3203","2518","2835","2934","2385","2454","2474","DualSpot on"
"MA200-0416","48405","104","1","1.10","1.6","2023-07-09T17:05:01","120","2023/07/09","17:05:01","-15.787088990211487","35.03524365648627","0.1","13","300","64","57","-832","-4096","-26396","12","150","150.09","119.29","30.80","27.12","37.4","11.32","89452","25.94","DUALSPOT-UV-BLUE-GREEN-RED-IR","583105","651497","909610","36.253060","10.854790","0.010671","612664","840262","761720","25.287252","6.809456","0.011391","720550","860275","815951","20.732234","5.298465","0.011880","741723","891112","866084","16.385828","3.913206","0.010789","664953","831144","952197","11.001858","2.532363","0.004196","2781","4010","4536","2612","3385","3669","2473","3074","3281","2422","2818","2942","2236","2319","2344","DualSpot on"
"MA200-0416","48406","104","1","1.10","1.6","2023-07-09T17:10:01","120","2023/07/09","17:10:01","-15.78718388080597","35.03519166260958","0.0","13","300","64","56","-940","-4380","-26072","12","150","149.83","119.21","30.62","27.05","37.4","11.25","89456","25.88","DUALSPOT-UV-BLUE-GREEN-RED-IR","577383","647755","906477","36.890596","11.088680","0.010297","612164","842210","764621","25.751950","6.960155","0.010278","716829","858114","814890","21.122874","5.419553","0.010307","738205","888922","864737","16.703133","4.006052","0.009271","662885","829844","951255","11.214176","2.587226","0.000702","3141","4486","5065","2889","3648","3929","2720","3283","3477","2670","3042","3159","2487","2503","2507","DualSpot on"
"MA200-0416","48407","104","1","1.10","1.6","2023-07-09T17:15:01","120","2023/07/09","17:15:01","-15.787139654159546","35.03525932505727","0.1","13","300","64","56","-851","-4364","-26103","12","150","149.55","119.25","30.30","26.97","37.3","11.15","89456","25.81","DUALSPOT-UV-BLUE-GREEN-RED-IR","572623","645053","904889","37.545340","11.330910","0.010526","608530","839877","763736","26.227266","7.118286","0.011369","712998","855890","813795","21.524172","5.545652","0.011239","733383","885095","861842","17.027096","4.103762","0.011620","660665","828418","950163","11.434322","2.644961","0.003528","3224","4696","5332","2954","3869","4210","2793","3455","3685","2725","3235","3397","2578","2662","2687","DualSpot on"
"MA200-0416","48408","104","1","1.10","1.6","2023-07-09T17:20:01","120","2023/07/09","17:20:01","-15.787125706672668","35.0352439917624","0.1","13","300","64","56","-851","-4264","-26232","12","150","149.87","119.34","30.53","26.87","37.4","11.10","0","0.00","DUALSPOT-UV-BLUE-GREEN-RED-IR","571245","646225","908813","38.214344","11.576950","0.010090","603742","835990","761444","26.717324","7.281000","0.010870","712645","857840","816754","21.935532","5.676639","0.011310","734812","888914","866437","17.364860","4.205346","0.010828","662211","831775","954545","11.661049","2.703361","0.000746","3292","4733","5359","3044","3950","4290","2861","3561","3806","2839","3337","3497","2654","2671","2677","DualSpot on"
"MA200-0416","48409","104","1","1.10","1.6","2023-07-09T17:25:01","120","2023/07/09","17:25:01","-15.787133872509003","35.03521032258868","0.1","13","300","64","55","-888","-4244","-26152","12","150","150.14","119.17","30.98","26.78","37.5","11.05","0","0.00","DUALSPOT-UV-BLUE-GREEN-RED-IR","564112","640792","903315","38.874872","11.821957","0.009782","601921","836162","762795","27.196836","7.439775","0.010066","707551","854095","814226","22.344046","5.805570","0.010044","728194","882972","861530","17.699160","4.306233","0.009912","658425","828378","951209","11.885822","2.762491","0.001298","3255","4645","5253","2982","3799","4107","2846","3455","3669","2814","3267","3413","2634","2666","2676","DualSpot on"
"MA200-0416","48410","104","1","1.10","1.6","2023-07-09T17:30:01","120","2023/07/09","17:30:01","-15.787127196788788","35.03527599200606","0.1","14","300","64","55","-936","-4184","-26152","12","150","149.47","118.89","30.58","26.67","37.5","10.98","89460","25.56","DUALSPOT-UV-BLUE-GREEN-RED-IR","565213","644515","910685","39.484960","12.049717","0.009973","599221","834902","762801","27.648004","7.589306","0.010290","704957","853170","814364","22.725606","5.926943","0.010670","725461","881550","860972","18.010300","4.398948","0.009623","657501","828517","951875","12.097816","2.817000","-0.000043","3014","4374","4971","2813","3624","3931","2664","3294","3517","2625","3041","3176","2490","2489","2489","DualSpot on"
"MA200-0416","48411","104","1","1.10","1.6","2023-07-09T17:35:01","120","2023/07/09","17:35:01","-15.78711622953415","35.035292994230986","0.1","14","300","64","54","-948","-4368","-25991","12","150","149.62","118.90","30.72","26.57","37.6","10.91","89468","25.50","DUALSPOT-UV-BLUE-GREEN-RED-IR","557709","638868","905108","40.197456","12.314522","0.009638","597103","834584","763737","28.124692","7.748182","0.010168","703895","854207","816348","23.116950","6.052274","0.010604","725360","883403","863569","18.326950","4.494661","0.010034","658160","830655","954900","12.308739","2.872798","0.002469","3519","5063","5745","2972","3834","4162","2732","3387","3619","2671","3126","3273","2478","2537","2555","DualSpot on"
"MA200-0416","48412","104","1","1.10","1.6","2023-07-09T17:40:01","120","2023/07/09","17:40:01","-15.787149846553802","35.03524432703853","0.2","14","300","64","54","-988","-4384","-26244","12","150","149.32","118.94","30.38","26.43","37.4","10.73","0","0.00","DUALSPOT-UV-BLUE-GREEN-RED-IR","551550","635985","904444","41.240652","12.697147","0.009374","592309","832128","763331","28.880356","7.996166","0.009789","698875","851898","815764","23.759820","6.252629","0.009689","719903","880096","861722","18.861154","4.654092","0.009698","655341","829352","954323","12.678253","2.971004","0.003980","5151","7398","8398","4709","6052","6566","4487","5476","5829","4505","5265","5514","4339","4516","4570","DualSpot on"
"MA200-0416","48413","104","1","1.10","1.6","2023-07-09T17:45:01","120","2023/07/09","17:45:01","-15.78713744878769","35.03525799140334","0.5","14","300","64","54","-880","-4164","-26191","12","150","150.32","119.46","30.86","26.26","37.4","10.59","0","0.00","DUALSPOT-UV-BLUE-GREEN-RED-IR","547389","634643","905557","42.124216","13.028946","0.009409","589108","831437","764532","29.573728","8.230335","0.010096","692600","847648","813302","24.361358","6.447041","0.010445","717928","880708","863681","19.365888","4.810566","0.010851","651224","826250","951670","13.031406","3.065861","0.003784","4344","6314","7196","4302","5624","6134","4180","5229","5607","4239","5086","5366","4129","4293","4344","DualSpot on"
"MA200-0416","48414","104","1","1.10","1.6","2023-07-09T17:50:01","120","2023/07/09","17:50:01","-15.787138164043427","35.03526449203491","0.2","13","300","64","53","-928","-4232","-26132","12","150","150.14","119.42","30.73","26.10","37.4","10.44","0","0.00","DUALSPOT-UV-BLUE-GREEN-RED-IR","543566","633675","907205","42.989380","13.358559","0.009557","585963","830749","765690","30.248328","8.461864","0.010471","690349","848310","815507","24.943658","6.637365","0.010791","715960","881271","865560","19.850284","4.961860","0.011179","647098","823036","948854","13.365093","3.157757","0.006310","4255","6300","7223","4187","5586","6129","4048","5142","5539","4069","4940","5230","3903","4178","4262","DualSpot on"
"MA200-0416","48415","104","1","1.10","1.6","2023-07-09T17:55:01","120","2023/07/09","17:55:01","-15.787126541137695","35.03530532494187","0.1","13","300","64","53","-907","-4265","-26142","12","150","149.70","119.61","30.09","25.95","37.9","10.51","0","0.00","DUALSPOT-UV-BLUE-GREEN-RED-IR","538464","632561","909771","44.225416","13.820911","0.009376","577686","824584","762591","31.275476","8.803226","0.009877","682143","843403","813111","25.855666","6.927270","0.010241","707122","875138","861538","20.632612","5.198008","0.010223","645992","824993","952543","13.926811","3.311369","0.007366","6069","9025","10369","6366","8410","9211","6330","7999","8610","6562","7874","8316","6560","7132","7310","DualSpot on"
"MA200-0416","48416","104","1","1.10","1.6","2023-07-09T18:00:01","120","2023/07/09","18:00:01","-15.787126183509827","35.03524749353528","0.2","13","300","64","52","-869","-4250","-26142","12","150","149.66","118.92","30.74","25.80","38.5","10.59","89480","24.81","DUALSPOT-UV-BLUE-GREEN-RED-IR","530351","627007","905372","45.265672","14.219837","0.009134","573865","823757","764034","32.127476","9.095278","0.009730","678530","843187","814907","26.608220","7.174159","0.010118","703225","874153","862296","21.275600","5.399036","0.010300","644638","825993","954942","14.390469","3.439341","0.005676","5138","7622","8759","5311","7042","7726","5253","6667","7189","5424","6560","6947","5446","5815","5931","DualSpot on"
"MA200-0416","48417","104","1","1.10","1.6","2023-07-09T18:05:01","120","2023/07/09","18:05:01","-15.787128210067749","35.0352429933846","0.2","13","300","64","51","-867","-4348","-26108","12","150","150.21","119.17","31.05","25.67","38.7","10.55","0","0.00","DUALSPOT-UV-BLUE-GREEN-RED-IR","524731","624834","906341","46.434552","14.672928","0.008966","565532","817056","760462","33.125274","9.441252","0.009552","670632","838404","812706","27.504790","7.469213","0.009651","700331","875259","865481","22.056610","5.641180","0.009224","639606","822939","952978","14.963734","3.601531","0.006799","5761","8572","9870","6207","8261","9080","6246","7890","8503","6575","7825","8254","6720","7298","7481","DualSpot on"
"MA200-0416","48418","104","1","1.10","1.6","2023-07-09T18:10:01","120","2023/07/09","18:10:01","-15.787130296230316","35.035203490406275","0.4","13","300","64","51","-896","-4320","-26219","12","150","149.80","119.67","30.13","25.53","39.0","10.54","0","0.00","DUALSPOT-UV-BLUE-GREEN-RED-IR","518511","620966","904128","47.387708","15.054260","0.009777","563582","818433","763879","33.918208","9.725615","0.010998","669044","840314","816493","28.214450","7.710999","0.011592","694519","871583","863568","22.670842","5.839771","0.012209","636198","821164","952079","15.412918","3.728881","0.009250","4678","7433","8716","4912","6996","7834","4923","6662","7316","5149","6612","7120","5243","5904","6115","DualSpot on"
"MA200-0416","48419","104","1","1.10","1.6","2023-07-09T18:15:01","120","2023/07/09","18:15:01","-15.787091255187988","35.035337660461664","0.3","13","300","64","51","-969","-4253","-26050","12","150","149.76","119.53","30.23","25.40","39.3","10.54","89480","24.44","DUALSPOT-UV-BLUE-GREEN-RED-IR","516817","621247","906905","48.018820","15.311726","0.009863","562257","819069","765824","34.410972","9.901674","0.010659","664751","837280","814746","28.643564","7.856847","0.011221","694743","874017","866996","23.036598","5.957567","0.011692","633432","819163","950409","15.668690","3.798028","0.005315","3101","5001","5891","3056","4317","4826","2980","4005","4392","3069","3908","4201","2989","3194","3260","DualSpot on"
"MA200-0416","48420","104","1","1.10","1.6","2023-07-09T18:20:01","120","2023/07/09","18:20:01","-15.78717166185379","35.03526382520795","0.2","13","300","64","50","-1012","-4320","-25980","12","150","149.34","119.34","30.00","25.28","39.4","10.49","89484","24.31","DUALSPOT-UV-BLUE-GREEN-RED-IR","512607","618520","905313","48.661412","15.576267","0.009944","558443","816094","764433","34.908616","10.082909","0.011080","660769","834653","813372","29.074502","8.005893","0.011744","688847","868771","862816","23.399022","6.075346","0.012106","634546","822079","954496","15.921455","3.868425","0.007828","3162","5179","6128","3091","4478","5041","2998","4124","4552","3046","3938","4251","2958","3277","3380","DualSpot on"
"MA200-0416","48421","104","1","1.10","1.6","2023-07-09T18:25:01","120","2023/07/09","18:25:01","-15.787127494812012","35.03529015928507","0.3","13","300","64","49","-884","-4230","-26030","12","150","150.49","119.50","30.99","25.19","39.7","10.50","0","0.00","DUALSPOT-UV-BLUE-GREEN-RED-IR","509197","617032","905794","49.384412","15.871353","0.009278","556190","815734","765657","35.472068","10.284866","0.009864","659046","835122","815202","29.565616","8.171952","0.010003","688257","870516","865680","23.818492","6.210017","0.010226","630724","818839","951547","16.218735","3.952624","0.006700","3553","5592","6558","3495","4831","5376","3411","4448","4844","3521","4359","4655","3475","3795","3898","DualSpot on"
"MA200-0416","48422","104","1","1.10","1.6","2023-07-09T18:30:01","120","2023/07/09","18:30:01","-15.787078976631165","35.035299491137266","0.1","14","300","64","49","-804","-4428","-25828","12","150","149.63","119.49","30.14","25.05","39.9","10.47","0","0.00","DUALSPOT-UV-BLUE-GREEN-RED-IR","507638","617564","909099","50.054676","16.148727","0.009710","551125","810992","762638","35.989280","10.473747","0.010755","658272","836630","817965","30.015066","8.327264","0.011281","682962","866019","862271","24.198378","6.333518","0.011621","631688","821679","955563","16.484776","4.027080","0.007677","3294","5405","6410","3208","4645","5235","3122","4278","4721","3189","4110","4437","3110","3450","3560","DualSpot on"
"MA200-0416","48423","104","1","1.10","1.6","2023-07-09T18:35:01","120","2023/07/09","18:35:01","-15.787019491195679","35.035362493246794","0.4","14","300","68","48","-967","-4324","-26096","13","150","149.64","119.11","30.54","24.94","40.3","10.52","89512","24.06","DUALSPOT-UV-BLUE-GREEN-RED-IR","829117","719262","904872","0.000000","0.000000","0.000000","789009","898219","763842","0.000000","0.000000","0.000000","882259","900844","813868","0.000000","0.000000","0.000000","869077","919199","862741","0.000000","0.000000","0.000000","738485","846317","950140","0.000000","0.000000","0.000000","","","","","","","","","","","","","","","","Tape advance-DualSpot on"
"MA200-0416","48424","104","1","1.10","1.6","2023-07-09T18:40:01","120","2023/07/09","18:40:01","-15.787062346935272","35.035278990864754","0.1","14","300","68","48","-900","-4340","-26268","13","150","149.49","119.21","30.27","24.83","40.4","10.47","89520","23.88","DUALSPOT-UV-BLUE-GREEN-RED-IR","823019","719862","908132","0.000000","0.000000","0.000000","786037","899164","765903","0.000000","0.000000","0.000000","880879","902723","816620","0.000000","0.000000","0.000000","868852","921445","865675","0.000000","0.000000","0.000000","740223","849692","954394","0.000000","0.000000","0.000000","","","","","","","","","","","","","","","","Tape advance-DualSpot on"
"MA200-0416","48425","104","1","1.10","1.6","2023-07-09T18:45:01","120","2023/07/09","18:45:01","-15.787204146385193","35.035200491547585","0.2","15","300","64","47","-924","-4256","-26152","13","150","150.24","118.95","31.29","24.73","40.7","10.47","89532","23.81","DUALSPOT-UV-BLUE-GREEN-RED-IR","809946","713818","902851","1.019115","0.262813","0.000000","777865","893694","762374","0.583452","0.150514","0.000000","874276","898944","814130","0.443744","0.115156","0.000000","861188","915489","860793","0.324088","0.086230","0.000000","736394","846460","951223","0.183916","0.046379","0.000000","5032","4933","5032","3636","3565","3636","3097","3055","3097","2733","2764","2733","2159","2070","2159","DualSpot on"
"MA200-0416","48426","104","1","1.10","1.6","2023-07-09T18:50:01","120","2023/07/09","18:50:01","-15.787147164344788","35.03521115705371","0.3","15","300","64","47","-904","-4200","-26344","13","150","149.33","119.01","30.31","24.63","41.0","10.49","89540","23.75","DUALSPOT-UV-BLUE-GREEN-RED-IR","805441","715957","908294","2.175793","0.562215","0.000000","772108","891563","761859","1.255923","0.321441","0.000000","868912","896828","813310","0.957435","0.246500","0.000000","863476","920536","866431","0.703880","0.185370","0.000000","738366","850146","955885","0.404050","0.098089","0.000000","5708","5801","5708","4188","4180","4188","3583","3597","3583","3201","3281","3201","2583","2383","2583","DualSpot on"
"MA200-0416","48427","104","1","1.10","1.6","2023-07-09T18:55:01","120","2023/07/09","18:55:01","-15.787040650844574","35.03528532758355","0.2","15","300","64","46","-876","-4273","-26269","13","150","149.93","119.06","30.87","24.53","41.2","10.46","0","0.00","DUALSPOT-UV-BLUE-GREEN-RED-IR","791509","710649","904763","3.531705","0.918928","0.005514","767602","891957","763842","2.098018","0.534690","0.000000","866471","898749","816415","1.615691","0.411915","0.000000","856298","916268","863461","1.198814","0.308728","0.000000","735210","848433","954637","0.698005","0.169582","0.000000","6689","6787","6822","5243","5121","5243","4590","4449","4590","4170","4009","4170","3449","3235","3449","DualSpot on"
"MA200-0416","48428","104","1","1.10","1.6","2023-07-09T19:00:01","120","2023/07/09","19:00:01","-15.787095248699188","35.03527232259512","0.3","14","300","64","46","-844","-4252","-25844","13","150","149.49","119.14","30.35","24.43","41.5","10.49","0","0.00","DUALSPOT-UV-BLUE-GREEN-RED-IR","783672","710700","908177","4.895872","1.281215","0.011122","763641","892776","766126","2.917198","0.743108","0.000000","859353","895594","814817","2.245790","0.569898","0.000000","855580","918742","866830","1.669999","0.427657","0.000000","731555","846015","952525","0.979101","0.236854","0.000000","6725","7011","7112","5097","5090","5097","4390","4321","4390","3967","3931","3967","3295","3096","3295","DualSpot on"
"MA200-0416","48429","104","1","1.10","1.6","2023-07-09T19:05:01","120","2023/07/09","19:05:01","-15.787115931510925","35.03524849191308","0.3","14","300","64","45","-930","-4211","-26123","13","150","149.87","118.79","31.07","24.33","41.6","10.44","89548","23.44","DUALSPOT-UV-BLUE-GREEN-RED-IR","768186","705109","905082","6.550323","1.730279","0.007430","753657","888101","764201","3.976618","1.016181","-0.005036","855309","896966","817837","3.085446","0.782764","-0.013967","847446","914397","864109","2.309936","0.587594","0.000000","727340","843662","950811","1.377475","0.333188","0.000000","8180","8488","8598","6611","6514","6481","5868","5687","5625","5404","5163","5404","4684","4330","4684","DualSpot on"
"MA200-0416","48430","104","1","1.10","1.6","2023-07-09T19:10:01","120","2023/07/09","19:10:01","-15.787058293819427","35.035285994410515","0.2","14","300","64","44","-980","-4372","-25824","13","150","149.94","119.63","30.31","24.24","41.8","10.42","89556","23.38","DUALSPOT-UV-BLUE-GREEN-RED-IR","760018","705416","909244","8.083910","2.149582","0.012032","744264","883556","762211","4.974078","1.269788","0.000932","842929","889349","812486","3.886223","0.981587","-0.007100","840349","911038","862233","2.933518","0.739932","0.000000","727577","846532","954903","1.772340","0.424088","0.000000","7529","8125","8341","6181","6202","6210","5557","5445","5408","5229","5042","5229","4611","4189","4611","DualSpot on"
"MA200-0416","48431","104","1","1.10","1.6","2023-07-09T19:15:01","120","2023/07/09","19:15:01","-15.787051498889923","35.03527832776308","0.3","14","300","64","43","-859","-4220","-25991","13","150","150.24","118.80","31.44","24.15","42.0","10.44","89560","23.25","DUALSPOT-UV-BLUE-GREEN-RED-IR","746119","700024","906053","9.574526","2.565685","0.007257","739416","884457","765000","5.991380","1.532388","-0.005738","838801","890548","815287","4.719687","1.190955","-0.015486","838335","913380","865886","3.594101","0.902748","-0.028144","723058","844053","953083","2.202860","0.524733","0.000000","7370","7772","7920","6348","6191","6137","5824","5528","5428","5578","5195","5066","5062","4471","5062","DualSpot on"
"MA200-0416","48432","104","1","1.10","1.6","2023-07-09T19:20:01","120","2023/07/09","19:20:01","-15.787058651447296","35.03528265655041","0.0","13","300","64","43","-1032","-4256","-26191","13","150","149.70","119.25","30.45","24.06","42.0","10.37","89564","23.19","DUALSPOT-UV-BLUE-GREEN-RED-IR","735705","696011","903937","10.744843","2.901529","0.013515","731668","880252","762965","6.769323","1.737678","0.006392","832245","887757","814058","5.351001","1.354563","0.003698","831928","909739","863508","4.083837","1.025044","-0.007369","719945","842400","951943","2.512895","0.599372","0.000000","5764","6479","6743","4836","4998","5054","4395","4461","4483","4120","4030","3999","3631","3424","3631","DualSpot on"
"MA200-0416","48433","104","1","1.10","1.6","2023-07-09T19:25:01","120","2023/07/09","19:25:01","-15.78708827495575","35.03531266003847","0.2","13","300","64","42","-1032","-4372","-26236","13","150","149.39","118.89","30.49","23.97","42.2","10.32","89568","23.13","DUALSPOT-UV-BLUE-GREEN-RED-IR","721987","692784","905011","12.748650","3.485849","0.012446","722270","878649","764798","8.310721","2.161550","0.010704","822763","886084","815422","6.666690","1.708353","0.009182","823830","908074","864383","5.165931","1.310342","0.007008","715261","841671","952854","3.260627","0.785129","-0.013203","9899","11255","11766","9610","10305","10549","9187","9632","9786","9131","9387","9474","8785","8510","8422","DualSpot on"
"MA200-0416","48434","104","1","1.10","1.6","2023-07-09T19:30:01","120","2023/07/09","19:30:01","-15.787114918231964","35.03524632751942","0.4","13","300","64","41","-765","-4096","-26284","13","150","150.16","119.09","31.07","23.87","42.2","10.23","0","0.00","DUALSPOT-UV-BLUE-GREEN-RED-IR","716328","693032","908526","13.929010","3.838268","0.011940","713619","873289","761808","9.129384","2.386440","0.007337","815682","882814","813850","7.340628","1.886767","0.002663","816538","903623","861322","5.703208","1.448911","-0.002709","711295","839140","950792","3.606945","0.869389","-0.026994","5821","6662","6982","5096","5366","5461","4698","4767","4791","4526","4474","4457","4062","3788","3701","DualSpot on"
"MA200-0416","48435","104","1","1.10","1.6","2023-07-09T19:35:01","120","2023/07/09","19:35:01","-15.787123322486877","35.03522966057062","0.2","13","300","64","41","-967","-4268","-26256","13","150","150.20","119.34","30.86","23.75","42.2","10.14","0","0.00","DUALSPOT-UV-BLUE-GREEN-RED-IR","707949","690007","907487","14.991089","4.163261","0.013502","712667","876555","766189","9.835877","2.585382","0.010943","810787","881102","813553","7.911252","2.043510","0.009783","812260","901805","860591","6.144312","1.567155","0.007623","709388","838671","950872","3.883445","0.935905","-0.026054","5227","6185","6553","4388","4778","4918","3969","4216","4302","3708","3844","3890","3236","3010","2939","DualSpot on"
"MA200-0416","48436","104","1","1.10","1.6","2023-07-09T19:40:01","120","2023/07/09","19:40:01","-15.787115931510925","35.03524432703853","0.1","13","300","64","41","-992","-4368","-26032","13","150","149.61","118.95","30.66","23.65","42.2","10.05","89564","22.81","DUALSPOT-UV-BLUE-GREEN-RED-IR","698694","685409","904097","15.937675","4.458349","0.014137","706096","872301","763825","10.454282","2.762575","0.012607","810171","883631","817001","8.404976","2.180201","0.010829","813166","905316","864847","6.527905","1.670205","0.008237","710536","841535","954681","4.119629","0.993985","-0.015638","4674","5653","6033","3854","4284","4439","3446","3701","3791","3235","3372","3419","2773","2646","2605","DualSpot on"
"MA200-0416","48437","104","1","1.10","1.6","2023-07-09T19:45:01","120","2023/07/09","19:45:01","-15.787081897258759","35.03523699194193","0.5","13","300","64","40","-996","-4328","-25819","13","150","150.49","119.25","31.24","23.52","42.4","9.99","89568","22.69","DUALSPOT-UV-BLUE-GREEN-RED-IR","693577","685843","907981","17.088410","4.820362","0.012796","698054","867349","761273","11.257175","2.993721","0.010556","803026","880053","815203","9.066813","2.364737","0.008836","805693","900497","861506","7.053146","1.814258","0.008429","706567","838973","952616","4.458040","1.078233","-0.015721","5667","6806","7253","4991","5485","5664","4607","4904","5008","4418","4626","4698","3964","3767","3704","DualSpot on"
"MA200-0416","48438","104","1","1.10","1.6","2023-07-09T19:50:01","120","2023/07/09","19:50:01","-15.787080466747284","35.035221491009","0.4","13","300","64","40","-908","-4196","-26184","13","150","150.03","119.13","30.90","23.38","42.6","9.94","89572","22.56","DUALSPOT-UV-BLUE-GREEN-RED-IR","687900","685608","910929","18.245470","5.183672","0.012465","695027","868611","764140","12.073383","3.225780","0.009620","799656","880621","817212","9.743000","2.551019","0.007985","803042","901077","863286","7.596036","1.958215","0.003870","705847","840323","954960","4.811826","1.164446","-0.017979","5704","6906","7384","5079","5568","5746","4712","5005","5109","4571","4674","4710","4148","3898","3818","DualSpot on"
"MA200-0416","48439","104","1","1.10","1.6","2023-07-09T19:55:01","120","2023/07/09","19:55:01","-15.787097096443176","35.03524332866073","0.2","13","300","64","39","-976","-4280","-26168","13","150","149.34","118.71","30.63","23.24","42.8","9.88","0","0.00","DUALSPOT-UV-BLUE-GREEN-RED-IR","677567","679629","905778","19.185900","5.488472","0.013766","691662","868282","765250","12.699338","3.409845","0.012631","793661","877206","815264","10.249557","2.694494","0.011429","802472","903047","866111","7.992042","2.066594","0.009481","702371","837764","952632","5.059099","1.225291","-0.012853","4653","5845","6323","3909","4455","4655","3542","3889","4012","3346","3550","3621","2909","2775","2732","DualSpot on"
"MA200-0416","48440","104","1","1.10","1.6","2023-07-09T20:00:01","120","2023/07/09","20:00:01","-15.78709465265274","35.03524615988135","0.0","13","300","64","39","-980","-4196","-26126","13","150","149.49","118.91","30.58","23.09","43.0","9.82","0","0.00","DUALSPOT-UV-BLUE-GREEN-RED-IR","666637","677428","908506","21.110898","6.113144","0.012760","678132","860820","762266","14.286417","3.882230","0.012444","780534","871394","813083","11.651617","3.096367","0.011590","788867","895456","861683","9.183778","2.397573","0.010639","694673","833868","950335","5.917957","1.451087","0.004862","9508","11999","13014","9894","11452","12033","9789","10911","11317","10055","10859","11143","10089","10315","10388","DualSpot on"
"MA200-0416","48441","104","1","1.10","1.6","2023-07-09T20:05:01","120","2023/07/09","20:05:01","-15.787044644355774","35.03530166298151","0.5","13","300","64","38","-936","-4248","-26128","13","150","150.03","119.29","30.74","22.95","43.3","9.79","89592","22.19","DUALSPOT-UV-BLUE-GREEN-RED-IR","651491","670370","904607","22.938214","6.719600","0.012620","669942","859450","764557","15.761652","4.328890","0.012336","772943","871035","815937","12.939436","3.474236","0.012324","782675","895526","864470","10.266021","2.703541","0.011360","690945","834207","952781","6.690536","1.659165","0.008491","8997","11589","12662","9167","10772","11380","8962","10206","10663","9101","9987","10303","9047","9456","9592","DualSpot on"
"MA200-0416","48442","104","1","1.10","1.6","2023-07-09T20:10:01","120","2023/07/09","20:10:01","-15.787083506584167","35.03525249287486","0.1","13","300","64","38","-1024","-4304","-26052","13","150","150.16","119.17","30.99","22.84","43.5","9.77","89584","22.06","DUALSPOT-UV-BLUE-GREEN-RED-IR","636344","666445","907497","25.652298","7.638099","0.011709","652183","849901","761419","18.075464","5.044395","0.011502","755405","863407","813675","14.995337","4.084939","0.010914","765365","886608","860100","12.027793","3.207582","0.010000","680497","829275","950455","7.994148","2.016422","0.008415","13376","17409","19119","14393","17117","18171","14322","16361","17125","14831","16318","16859","15281","16105","16383","DualSpot on"
"MA200-0416","48443","104","1","1.10","1.6","2023-07-09T20:15:01","120","2023/07/09","20:15:01","-15.787108182907104","35.03532765805721","0.1","13","300","64","37","-851","-4212","-26075","13","150","149.83","118.93","30.90","22.75","43.7","9.77","0","0.00","DUALSPOT-UV-BLUE-GREEN-RED-IR","628353","662224","904833","26.633476","7.984375","0.012715","650474","851997","765060","18.819864","5.276573","0.011585","753746","865404","817078","15.635686","4.275197","0.010563","765380","889975","864650","12.557992","3.356862","0.008176","680670","831732","954169","8.358700","2.108714","-0.004216","4845","6582","7326","4639","5570","5933","4470","5112","5354","4472","4847","4984","4281","4172","4136","DualSpot on"
"MA200-0416","48444","104","1","1.10","1.6","2023-07-09T20:20:01","120","2023/07/09","20:20:01","-15.787097930908203","35.03522715717554","0.2","13","300","64","37","-940","-4240","-26103","13","150","149.73","118.80","30.94","22.67","44.1","9.82","0","0.00","DUALSPOT-UV-BLUE-GREEN-RED-IR","625619","662598","907790","27.395882","8.254585","0.012434","644405","847262","762116","19.375848","5.449634","0.011026","748730","862476","815458","16.106129","4.413081","0.009149","760045","886209","861906","12.943495","3.462327","0.004984","677755","829790","952515","8.617352","2.169929","-0.016108","3769","5130","5716","3469","4147","4412","3287","3700","3855","3255","3420","3480","3041","2764","2670","DualSpot on"
"MA200-0416","48445","104","1","1.10","1.6","2023-07-09T20:25:01","120","2023/07/09","20:25:01","-15.78708565235138","35.03523749113083","0.2","13","300","64","36","-1004","-4328","-25972","13","150","149.61","118.95","30.66","22.63","44.4","9.87","89580","21.81","DUALSPOT-UV-BLUE-GREEN-RED-IR","620565","660824","908095","28.238648","8.555592","0.012616","640688","846218","762771","20.032906","5.656147","0.011688","744479","861042","815476","16.676107","4.582197","0.010343","755043","883421","860366","13.422472","3.597093","0.008288","678877","833317","957394","8.957283","2.256734","-0.001398","4161","5766","6464","4095","4993","5347","3978","4579","4807","4039","4410","4545","3992","3955","3942","DualSpot on"
"MA200-0416","48446","104","1","1.10","1.6","2023-07-09T20:30:01","120","2023/07/09","20:30:01","-15.787078142166138","35.035263162106276","0.1","13","300","64","35","-932","-4212","-26096","13","150","149.45","118.97","30.47","22.55","44.5","9.86","89580","21.75","DUALSPOT-UV-BLUE-GREEN-RED-IR","617556","660480","909925","28.922596","8.803085","0.012877","638799","846648","764371","20.542806","5.818475","0.012323","742723","861609","817039","17.109274","4.712713","0.011444","754104","884590","862383","13.781894","3.698862","0.009144","674675","829634","953739","9.204258","2.318519","-0.003488","3376","4770","5380","3177","3949","4254","3022","3555","3758","3030","3350","3467","2899","2832","2809","DualSpot on"
"MA200-0416","48447","104","1","1.10","1.6","2023-07-09T20:35:01","120","2023/07/09","20:35:01","-15.787103772163391","35.035288993269205","0.1","13","300","64","35","-1011","-4246","-26011","13","150","149.80","119.17","30.63","22.47","44.6","9.82","89584","21.69","DUALSPOT-UV-BLUE-GREEN-RED-IR","611946","657004","907046","29.522464","9.022820","0.012863","633727","842375","761589","20.977288","5.960226","0.013032","738731","859159","815631","17.474706","4.824430","0.011867","750097","881810","860371","14.080245","3.782683","0.008017","672089","827762","952083","9.405094","2.369046","-0.003101","2956","4213","4766","2702","3430","3719","2545","3028","3212","2511","2745","2831","2354","2304","2287","DualSpot on"
"MA200-0416","48448","104","1","1.10","1.6","2023-07-09T20:40:01","120","2023/07/09","20:40:01","-15.787080466747284","35.03528282418847","0.2","13","300","64","35","-904","-4324","-26208","13","150","150.05","119.16","30.89","22.39","44.8","9.82","89584","21.63","DUALSPOT-UV-BLUE-GREEN-RED-IR","607664","654592","905597","30.070000","9.226963","0.012882","630716","840611","761010","21.378422","6.092018","0.012732","736009","857970","815370","17.815104","4.929870","0.011917","753424","887445","866596","14.359017","3.866696","0.012674","671033","827571","952272","9.591305","2.415772","-0.004657","2698","3881","4405","2495","3162","3428","2371","2833","3010","2347","2728","2869","2182","2113","2089","DualSpot on"
"MA200-0416","48449","104","1","1.10","1.6","2023-07-09T20:45:01","120","2023/07/09","20:45:01","-15.787084937095642","35.03521865606308","0.3","13","300","64","35","-973","-4250","-26080","13","150","149.86","118.72","31.14","22.31","45.1","9.83","89580","21.50","DUALSPOT-UV-BLUE-GREEN-RED-IR","607543","656752","910445","30.619812","9.430817","0.012217","630225","842290","763552","21.788942","6.227911","0.012319","732750","856232","814601","18.161910","5.038810","0.011824","749716","884834","864773","14.644141","3.951603","0.010677","672727","830829","956522","9.783260","2.464850","-0.003569","2720","3845","4345","2563","3235","3504","2425","2904","3088","2409","2735","2856","2258","2201","2182","DualSpot on"
"MA200-0416","48450","104","1","1.10","1.6","2023-07-09T20:50:01","120","2023/07/09","20:50:01","-15.787078142166138","35.03536482527852","0.2","14","300","64","34","-908","-4252","-26132","13","150","150.36","119.25","31.11","22.25","45.2","9.81","89588","21.50","DUALSPOT-UV-BLUE-GREEN-RED-IR","600554","652669","907500","31.449100","9.729736","0.011316","625017","839213","762467","22.472106","6.448860","0.011193","727027","853019","813055","18.757040","5.223644","0.011132","743508","880680","861987","15.148154","4.098791","0.009281","668958","828393","954646","10.143486","2.563245","0.005828","4084","5643","6341","4246","5264","5674","4143","4932","5236","4240","4746","4933","4219","4417","4484","DualSpot on"
"MA200-0416","48451","104","1","1.10","1.6","2023-07-09T20:55:01","120","2023/07/09","20:55:01","-15.787118196487427","35.035306327044964","0.2","14","300","64","34","-996","-4332","-26000","13","150","150.09","119.13","30.96","22.19","45.4","9.82","89592","21.38","DUALSPOT-UV-BLUE-GREEN-RED-IR","596159","650189","905990","32.021266","9.943329","0.012104","621219","836603","761196","22.917202","6.594772","0.011714","727558","855915","816801","19.140786","5.343396","0.011379","745313","884748","866798","15.465381","4.193390","0.010877","666870","827102","953664","10.361538","2.619366","-0.001269","2820","4051","4606","2769","3493","3786","2674","3211","3418","2671","3065","3211","2556","2532","2523","DualSpot on"
"MA200-0416","48452","104","1","1.10","1.6","2023-07-09T21:00:01","120","2023/07/09","21:00:01","-15.787146151065826","35.03520632535219","0.2","13","300","64","34","-936","-4208","-26280","13","150","150.23","119.01","31.21","22.16","45.8","9.93","89600","21.38","DUALSPOT-UV-BLUE-GREEN-RED-IR","591835","647807","904527","32.589488","10.153904","0.011506","621787","839868","765279","23.362220","6.741363","0.011326","724466","854545","816444","19.524208","5.462635","0.010502","742116","882944","865830","15.785703","4.287148","0.008704","665016","826155","953151","10.584499","2.677884","0.000090","2804","3962","4486","2772","3481","3769","2674","3171","3364","2700","3013","3130","2617","2618","2619","DualSpot on"
