"Serial number","Datum ID","Session ID","Data format version","Firmware version","App version","Date / time local","Timezone offset (mins)","Date local (yyyy/MM/dd)","Time local (hh:mm:ss)","GPS lat (ddmm.mmmmm)","GPS long (dddmm.mmmmm)","GPS speed (km/h)","GPS sat count","Timebase (s)","Status","Battery remaining (%)","Accel X","Accel Y","Accel Z","Tape position","Flow setpoint (mL/min)","Flow total (mL/min)","Flow1 (mL/min)","Flow2 (mL/min)","Sample temp (C)","Sample RH (%)","Sample dewpoint (C)","Internal pressure (Pa)","Internal temp (C)","Optical config","UV Sen1","UV Sen2","UV Ref","UV ATN1","UV ATN2","UV K","Blue Sen1","Blue Sen2","Blue Ref","Blue ATN1","Blue ATN2","Blue K","Green Sen1","Green Sen2","Green Ref","Green ATN1","Green ATN2","Green K","Red Sen1","Red Sen2","Red Ref","Red ATN1","Red ATN2","Red K","IR Sen1","IR Sen2","IR Ref","IR ATN1","IR ATN2","IR K","UV BC1","UV BC2","UV BCc","Blue BC1","Blue BC2","Blue BCc","Green BC1","Green BC2","Green BCc","Red BC1","Red BC2","Red BCc","IR BC1","IR BC2","IR BCc","Readable status"
"MA200-0416","26805","78","1","1.10","1.4","2023-05-23T08:50:03","120","2023/05/23","08:50:03","0","0","0.0","1","30","194","75","-16991","-13266","-15954","5","150","0.00","0.00","0.00","26.83","0.0","-203.64","90512","25.81","DUALSPOT-UV-BLUE-GREEN-RED-IR","847838","727553","900112","0.000000","0.000000","0.000000","757188","857021","719788","0.000000","0.000000","0.000000","843762","857004","766376","0.000000","0.000000","0.000000","824034","869585","809563","0.000000","0.000000","0.000000","721700","830932","923860","0.000000","0.000000","0.000000","","","","","","","","","","","","","","","","Start up-Flow unstable"
"MA200-0416","26806","78","1","1.10","1.4","2023-05-23T08:50:32","120","2023/05/23","08:50:32","0","0","0.0","1","30","66","75","-17724","356","16195","5","150","149.83","114.36","35.47","26.89","48.6","15.13","90532","26.06","DUALSPOT-UV-BLUE-GREEN-RED-IR","855050","734463","909164","0.000000","0.000000","0.000000","802398","908791","763544","0.000000","0.000000","0.000000","897880","912555","816457","0.000000","0.000000","0.000000","881584","930804","866882","0.000000","0.000000","0.000000","743096","856130","952129","0.000000","0.000000","0.000000","","","","","","","","","","","","","","","","Start up"
"MA200-0416","26807","78","1","1.10","1.4","2023-05-23T08:51:03","120","2023/05/23","08:51:03","0","0","0.0","1","30","66","75","-18892","92","14895","5","150","149.96","114.56","35.40","26.93","48.1","15.01","90560","26.25","DUALSPOT-UV-BLUE-GREEN-RED-IR","851853","732587","907245","0.000000","0.000000","0.000000","800050","906799","762112","0.000000","0.000000","0.000000","895625","910774","815030","0.000000","0.000000","0.000000","878785","928203","864614","0.000000","0.000000","0.000000","745878","859624","956123","0.000000","0.000000","0.000000","","","","","","","","","","","","","","","","Start up"
"MA200-0416","26808","78","1","1.10","1.4","2023-05-23T08:51:32","120","2023/05/23","08:51:32","0","0","0.0","0","30","66","75","-18352","-328","15316","5","150","149.81","114.99","34.82","26.97","47.6","14.90","90696","26.38","DUALSPOT-UV-BLUE-GREEN-RED-IR","854244","735351","911029","0.000000","0.000000","0.000000","801879","909402","764493","0.000000","0.000000","0.000000","897073","912660","816912","0.000000","0.000000","0.000000","875791","925357","862126","0.000000","0.000000","0.000000","742714","856283","952477","0.000000","0.000000","0.000000","","","","","","","","","","","","","","","","Start up"
"MA200-0416","26809","78","1","1.10","1.4","2023-05-23T08:52:02","120","2023/05/23","08:52:02","0","0","0.0","0","30","66","74","-14950","-3303","18373","5","150","149.92","114.92","35.01","27.00","47.3","14.82","90652","26.44","DUALSPOT-UV-BLUE-GREEN-RED-IR","848925","731815","907083","0.000000","0.000000","0.000000","798196","905997","761920","0.000000","0.000000","0.000000","893238","909384","814188","0.000000","0.000000","0.000000","877771","927926","864680","0.000000","0.000000","0.000000","743737","857734","954215","0.000000","0.000000","0.000000","","","","","","","","","","","","","","","","Start up"
"MA200-0416","26810","78","1","1.10","1.4","2023-05-23T08:52:32","120","2023/05/23","08:52:32","0","0","0.0","0","30","64","74","-18768","-1260","15444","5","150","150.14","115.21","34.93","27.06","46.9","14.74","90832","26.50","DUALSPOT-UV-BLUE-GREEN-RED-IR","849861","733672","909959","0.000000","0.000000","0.000000","799409","908229","764082","0.000000","0.000000","0.000000","893522","910311","815252","0.000000","0.000000","0.000000","873325","923718","860965","0.000000","0.000000","0.000000","744533","858978","955794","0.000000","0.000000","0.000000","","","","","","","","","","","","","","","",""
"MA200-0416","26811","78","1","1.10","1.4","2023-05-23T08:53:02","120","2023/05/23","08:53:02","0","0","0.0","0","30","64","74","-17488","4440","15616","5","150","150.03","115.08","34.95","27.09","46.6","14.67","90644","26.63","DUALSPOT-UV-BLUE-GREEN-RED-IR","844356","729759","905428","0.160699","0.045204","0.000000","795037","903899","760620","0.102221","0.028360","0.000000","893880","911219","816233","0.080842","0.022613","0.000000","874726","925609","862853","0.061059","0.016373","0.000000","745660","860527","957612","0.042610","0.010161","0.000000","8202","7596","8202","6585","6015","6585","5832","5371","5832","5323","4699","5323","5172","4061","5172",""
"MA200-0416","26812","78","1","1.10","1.4","2023-05-23T08:53:32","120","2023/05/23","08:53:32","0","0","0.0","0","30","64","74","-17692","851","15951","5","150","149.42","114.35","35.06","27.14","46.4","14.65","90572","26.69","DUALSPOT-UV-BLUE-GREEN-RED-IR","846075","731829","908290","0.274931","0.076635","0.000000","796369","905863","762444","0.177896","0.050306","0.000000","895109","912848","817823","0.141203","0.038695","0.000000","877020","928381","865511","0.106978","0.028192","0.000000","741802","856284","952963","0.074928","0.018585","0.000000","5867","5265","5867","4905","4639","4905","4382","3807","4382","4028","3382","4028","3948","3356","3948",""
"MA200-0416","26813","78","1","1.10","1.4","2023-05-23T08:54:03","120","2023/05/23","08:54:03","0","0","0.0","0","30","64","74","-17064","544","16404","5","150","149.69","114.31","35.38","27.17","46.1","14.59","90532","26.75","DUALSPOT-UV-BLUE-GREEN-RED-IR","846015","732607","909703","0.418775","0.118204","0.000000","796463","906668","763382","0.274872","0.078929","0.000000","890659","908877","814473","0.218612","0.060933","0.000000","871831","923301","860966","0.167489","0.045645","0.000000","743171","858146","955157","0.117313","0.030166","0.000000","7391","6900","7391","6289","5997","6289","5622","5217","5622","5310","4948","5310","5179","4572","5179",""
"MA200-0416","26814","78","1","1.10","1.4","2023-05-23T08:54:32","120","2023/05/23","08:54:32","0","0","0.0","1","30","64","74","-17653","226","15684","5","150","150.30","115.18","35.12","27.23","45.8","14.52","90556","26.88","DUALSPOT-UV-BLUE-GREEN-RED-IR","839916","728708","905482","0.673498","0.189172","0.000000","796990","908442","765277","0.453794","0.131732","0.000000","890800","909944","815800","0.364727","0.103252","0.000000","872587","924890","862750","0.283652","0.079780","0.000000","743477","859045","956364","0.199045","0.052421","0.000000","12989","11869","12989","11515","11145","11515","10531","10004","10531","10118","9751","10118","9912","8852","9912",""
"MA200-0416","26815","78","1","1.10","1.4","2023-05-23T08:55:03","120","2023/05/23","08:55:03","0","0","0.0","1","30","64","74","-17315","1026","16484","5","150","149.80","114.79","35.00","27.27","45.5","14.47","90704","26.88","DUALSPOT-UV-BLUE-GREEN-RED-IR","840632","730154","907772","0.858615","0.242225","0.000000","792111","903588","761408","0.575984","0.166440","0.000000","891111","910866","816822","0.464630","0.132465","0.000000","874387","927253","865131","0.359851","0.100266","0.000000","739950","855269","952289","0.253204","0.067245","0.000000","9471","8902","9471","7890","7350","7890","7225","6928","7225","6659","5871","6659","6590","5915","6590",""
"MA200-0416","26816","78","1","1.10","1.4","2023-05-23T08:55:32","120","2023/05/23","08:55:32","0","0","0.0","1","30","64","74","-20460","-1776","13284","5","150","149.72","114.98","34.74","27.31","45.2","14.42","90772","26.94","DUALSPOT-UV-BLUE-GREEN-RED-IR","841723","731750","910026","0.982487","0.277811","0.000000","793274","905430","763135","0.655788","0.189685","0.000000","886994","907083","813544","0.527996","0.148820","0.000000","869734","922679","860947","0.409370","0.113588","0.000000","740211","855784","952964","0.287412","0.077068","0.000000","6327","6016","6327","5145","4960","5145","4575","3908","4575","4320","3847","4320","4156","3949","4156",""
"MA200-0416","26817","78","1","1.10","1.4","2023-05-23T08:56:02","120","2023/05/23","08:56:02","0","0","0.0","1","30","64","73","-18172","1719","15340","5","150","149.53","115.00","34.52","27.35","45.0","14.38","0","0.00","DUALSPOT-UV-BLUE-GREEN-RED-IR","839659","730439","908631","1.082109","0.305656","0.000000","792376","904816","762741","0.722700","0.207723","0.000000","885716","906135","812797","0.582564","0.163357","0.000000","868011","921092","859541","0.450146","0.122332","0.000000","739055","854634","951734","0.318370","0.084368","0.000000","5088","4737","5088","4313","3873","4313","3939","3495","3939","3557","2541","3557","3760","2954","3760",""
"MA200-0416","26818","78","1","1.10","1.4","2023-05-23T08:56:33","120","2023/05/23","08:56:33","0","0","0.0","3","30","64","74","-21904","-10160","6843","5","150","149.91","115.14","34.77","27.40","45.0","14.40","0","0.00","DUALSPOT-UV-BLUE-GREEN-RED-IR","834564","727503","905725","1.249324","0.351232","0.000000","788710","901988","760821","0.841188","0.239492","0.000000","886453","907976","814860","0.673860","0.185924","0.000000","870733","924896","863413","0.522220","0.141530","0.000000","741010","857447","955112","0.368074","0.098402","0.000000","8530","7699","8530","7628","6773","7628","6583","5388","6583","6280","5539","6280","6030","5638","6030",""
"MA200-0416","26819","78","1","1.10","1.4","2023-05-23T08:57:03","120","2023/05/23","08:57:03","0","0","0.0","13","30","64","74","-21728","-11088","6224","5","150","149.40","114.59","34.81","27.43","44.7","14.35","90752","27.06","DUALSPOT-UV-BLUE-GREEN-RED-IR","835211","728857","907827","1.518158","0.429952","0.000000","790614","904808","763416","1.035273","0.296247","0.000000","886592","908693","815687","0.838208","0.234472","0.000000","871659","926324","864902","0.653314","0.178652","0.000000","740828","857570","955372","0.460268","0.124335","0.000000","13780","13280","13780","12556","12085","12556","11907","11577","11907","11478","10697","11478","11239","10405","11239",""
"MA200-0416","26820","78","1","1.10","1.4","2023-05-23T08:57:32","120","2023/05/23","08:57:32","0","0","0.0","11","30","64","73","-24124","-2976","3928","5","150","149.66","114.84","34.82","27.47","44.5","14.30","90752","27.13","DUALSPOT-UV-BLUE-GREEN-RED-IR","833461","727836","906827","1.607187","0.457153","0.000000","789084","903512","762502","1.096523","0.314451","0.000000","885174","907619","814858","0.887787","0.248861","0.000000","869940","924821","863635","0.693315","0.189882","0.000000","739608","856337","954079","0.485803","0.130285","0.000000","4553","4587","4553","3954","3875","3954","3584","3430","3584","3494","3235","3494","3106","2386","3106",""
"MA200-0416","26821","78","1","1.10","1.4","2023-05-23T08:58:02","120","2023/05/23","08:58:02","0","0","0.0","11","30","64","73","-25647","292","612","5","150","149.96","114.76","35.20","27.52","44.4","14.31","90768","27.13","DUALSPOT-UV-BLUE-GREEN-RED-IR","835588","730173","910010","1.715244","0.487192","0.000000","789993","904992","763870","1.172280","0.336105","0.000000","886729","909555","816736","0.952065","0.266712","0.000000","873092","928437","867107","0.742995","0.203883","0.000000","740780","857865","955850","0.517066","0.136925","0.000000","5530","5011","5530","4893","4559","4893","4650","4209","4650","4343","3990","4343","3805","2635","3805",""
"MA200-0416","26822","78","1","1.10","1.4","2023-05-23T08:58:32","120","2023/05/23","08:58:32","0","0","0.0","13","30","64","74","-23992","-2560","3823","5","150","149.35","114.53","34.82","27.56","44.3","14.31","90732","27.19","DUALSPOT-UV-BLUE-GREEN-RED-IR","829066","725013","903804","1.810853","0.513771","0.000000","790789","906325","765150","1.234883","0.354278","0.000000","887366","910596","817765","1.001036","0.279086","0.000000","869031","924401","863421","0.781357","0.213325","0.000000","738037","854884","952586","0.542478","0.142359","0.000000","4903","4483","4903","4052","3868","4052","3550","2950","3550","3360","2720","3360","3099","2179","3099",""
"MA200-0416","26823","78","1","1.10","1.4","2023-05-23T08:59:03","120","2023/05/23","08:59:03","0","0","0.0","11","30","64","73","-24046","-3584","6342","5","150","149.62","114.61","35.00","27.60","43.9","14.22","90588","27.25","DUALSPOT-UV-BLUE-GREEN-RED-IR","829567","726367","905986","1.944276","0.554849","0.000000","785294","900808","760826","1.325840","0.383592","0.000000","882265","905986","813902","1.073169","0.301772","0.000000","868941","924852","864056","0.838345","0.229865","0.000000","737554","854677","952522","0.584154","0.154977","0.000000","6837","6892","6837","5883","6208","5883","5225","5380","5225","4988","4740","4988","5079","5035","5079",""
"MA200-0416","26824","78","1","1.10","1.4","2023-05-23T08:59:32","120","2023/05/23","08:59:32","0","0","0.0","11","30","64","73","-27116","-8000","2256","5","150","149.72","114.93","34.79","27.66","43.5","14.14","90604","27.31","DUALSPOT-UV-BLUE-GREEN-RED-IR","829564","727553","908071","2.209169","0.633205","0.000000","785245","901786","762025","1.523274","0.443632","0.000000","882107","906726","814920","1.239979","0.352483","0.000000","870680","927450","866802","0.971734","0.270789","0.000000","738477","856285","954534","0.682292","0.182614","0.000000","13537","13227","13537","12735","12792","12735","12050","12101","12050","11644","11801","11644","11928","11096","11928",""
"MA200-0416","26825","78","1","1.10","1.4","2023-05-23T09:00:02","120","2023/05/23","09:00:02","0","0","0.0","11","30","64","73","-22864","-10204","5044","5","150","149.67","114.15","35.51","27.70","43.2","14.07","90536","27.38","DUALSPOT-UV-BLUE-GREEN-RED-IR","828199","727133","907973","2.363114","0.679592","0.000000","785096","902351","762758","1.633018","0.475698","0.000000","880675","905835","814318","1.328689","0.377392","0.000000","862412","919132","859194","1.043617","0.289738","0.000000","737338","855292","953547","0.732763","0.195862","0.000000","7920","7671","7920","7126","6693","7126","6451","5823","6451","6317","5352","6317","6176","5211","6176",""
"MA200-0416","26826","78","1","1.10","1.4","2023-05-23T09:00:33","120","2023/05/23","09:00:33","0","0","0.0","11","30","64","73","-21912","-11516","5056","5","150","150.42","115.09","35.34","27.74","42.9","13.99","90320","27.44","DUALSPOT-UV-BLUE-GREEN-RED-IR","823131","724121","904991","2.620773","0.753400","0.000000","780081","897877","759444","1.816714","0.529844","0.000000","881734","908037","816696","1.481367","0.420284","0.000000","865824","923655","863731","1.163190","0.322878","0.000000","734481","852540","950753","0.818752","0.219881","0.000000","13150","12268","13150","11832","11359","11832","11014","10077","11014","10423","9409","10423","10437","9495","10437",""
"MA200-0416","26827","78","1","1.10","1.4","2023-05-23T09:01:03","120","2023/05/23","09:01:03","0","0","0.0","11","30","64","73","-20644","-13612","6424","5","150","149.55","114.96","34.58","27.80","42.5","13.89","90232","27.50","DUALSPOT-UV-BLUE-GREEN-RED-IR","823949","725729","907424","2.830259","0.815727","0.000000","780718","899422","761011","1.975626","0.575227","0.000000","877857","904713","813946","1.615000","0.460350","0.000000","866998","925471","865632","1.271009","0.354111","0.000000","735260","853854","952420","0.901090","0.243852","0.000000","10702","10585","10702","10247","9728","10247","9650","9618","9650","9409","9060","9409","10005","9683","10005",""
"MA200-0416","26828","78","1","1.10","1.4","2023-05-23T09:01:32","120","2023/05/23","09:01:32","0","0","0.0","11","30","64","73","-21692","-9368","7832","5","150","149.66","115.29","34.37","27.84","42.2","13.83","0","0.00","DUALSPOT-UV-BLUE-GREEN-RED-IR","821940","724466","906075","2.920490","0.840469","0.000000","780497","899596","761313","2.037829","0.593763","0.000000","880729","908038","817058","1.667482","0.474190","0.000000","865360","924024","864370","1.312202","0.365203","0.000000","733959","852532","950913","0.927248","0.247628","0.000000","4596","4228","4596","3999","3998","3999","3779","3343","3779","3584","3238","3584","3169","1534","3169",""
"MA200-0416","26829","78","1","1.10","1.4","2023-05-23T09:02:02","120","2023/05/23","09:02:02","0","0","0.0","11","30","64","73","-24472","-4928","4920","5","150","150.05","114.88","35.18","27.89","42.0","13.78","0","0.00","DUALSPOT-UV-BLUE-GREEN-RED-IR","825108","727631","910176","3.002346","0.859613","-0.164812","782765","902575","763888","2.092415","0.603706","0.000000","877617","905123","814501","1.710647","0.480424","0.000000","861894","920576","861160","1.346647","0.368368","0.000000","735699","854677","953408","0.949783","0.255342","0.000000","4185","3196","2799","3522","2095","3522","3119","1471","3119","3008","902","3008","2740","3063","2740",""
"MA200-0416","26830","78","1","1.10","1.4","2023-05-23T09:02:33","120","2023/05/23","09:02:33","0","0","0.0","11","30","64","73","-24176","-3160","4780","5","150","149.62","115.23","34.39","27.98","41.7","13.77","90480","27.63","DUALSPOT-UV-BLUE-GREEN-RED-IR","820216","723647","905366","3.062705","0.878404","0.018601","778574","898016","760108","2.135980","0.614219","0.000000","878882","906634","815926","1.745368","0.488024","0.000000","863299","922280","862818","1.375269","0.374442","0.000000","736559","855779","954691","0.969823","0.261764","0.000000","3076","3209","3262","2802","2266","2802","2501","1834","2501","2492","1771","2492","2429","2608","2429",""
"MA200-0416","26831","78","1","1.10","1.4","2023-05-23T09:03:02","120","2023/05/23","09:03:02","0","0","0.0","11","30","64","73","-24600","-4604","3264","5","150","150.36","115.26","35.11","28.01","41.5","13.72","90592","27.69","DUALSPOT-UV-BLUE-GREEN-RED-IR","817983","723695","906555","3.199524","0.919574","-0.005401","777071","898293","761114","2.236360","0.644697","0.000000","876827","906241","816195","1.823312","0.510334","0.000000","863148","923468","864447","1.432961","0.388329","0.000000","735844","855905","955284","1.017478","0.274252","0.000000","6972","6887","6853","6456","6435","6456","5614","5276","5614","5021","3968","5021","5775","4969","5775",""
"MA200-0416","26832","78","1","1.10","1.4","2023-05-23T09:03:33","120","2023/05/23","09:03:33","0","0","0.0","11","30","64","73","-24320","-4728","2616","5","150","149.50","115.02","34.49","28.08","41.4","13.72","90652","27.75","DUALSPOT-UV-BLUE-GREEN-RED-IR","815871","724464","908983","3.991413","1.162529","0.007940","775522","899107","762753","2.875274","0.842220","0.000000","874930","906604","817460","2.379769","0.680327","0.000000","861853","924136","865860","1.893699","0.527339","0.000000","735500","856875","956984","1.349180","0.371766","0.000000","40440","41378","41763","41181","42459","41181","40167","40923","40167","40190","40439","40190","40287","39499","40287",""
"MA200-0416","26833","78","1","1.10","1.4","2023-05-23T09:04:02","120","2023/05/23","09:04:02","0","0","0.0","11","30","64","72","-24448","-3728","4780","5","150","150.23","115.24","34.99","28.14","41.3","13.75","0","0.00","DUALSPOT-UV-BLUE-GREEN-RED-IR","812441","722661","907384","4.151983","1.210655","-0.004486","774188","898552","762631","2.979308","0.869972","0.000000","872864","905276","816513","2.460248","0.700985","0.000000","860323","923097","865114","1.955417","0.543725","0.000000","729392","850157","949636","1.390831","0.381684","0.000000","8184","8078","8034","6692","5879","6692","5798","4901","5798","5373","4698","5373","5049","3959","5049",""
"MA200-0416","26834","78","1","1.10","1.4","2023-05-23T09:04:32","120","2023/05/23","09:04:32","0","0","0.0","11","30","64","73","-24500","-2216","2600","5","150","149.40","114.88","34.52","28.20","41.3","13.80","0","0.00","DUALSPOT-UV-BLUE-GREEN-RED-IR","806997","719177","903774","4.497846","1.315244","0.001949","774932","900465","764684","3.192723","0.936288","0.014380","868773","901849","813768","2.627683","0.751376","0.000000","856022","919125","861663","2.081367","0.580292","0.000000","730421","851793","951707","1.483369","0.408837","0.000000","17683","17794","17840","13772","14240","14434","12100","12118","12100","10999","10626","10999","11253","10987","11253",""
"MA200-0416","26835","78","1","1.10","1.4","2023-05-23T09:05:03","120","2023/05/23","09:05:03","0","0","0.0","11","30","64","72","-23848","-2304","3607","5","150","150.14","115.38","34.77","28.26","41.3","13.85","90892","27.88","DUALSPOT-UV-BLUE-GREEN-RED-IR","802468","718319","904190","5.005648","1.454662","-0.028621","772834","900140","765088","3.464812","1.010824","-0.042515","867406","901939","814311","2.820051","0.803279","0.000000","856137","920249","863018","2.209169","0.612252","0.000000","730036","852025","952122","1.572572","0.429296","0.000000","25851","23552","22611","17482","15892","15237","13842","12394","13842","11113","9222","11113","10800","8220","10800",""
"MA200-0416","26836","78","1","1.10","1.4","2023-05-23T09:05:32","120","2023/05/23","09:05:32","0","0","0.0","11","30","64","73","-23324","-6864","4320","5","150","149.94","115.09","34.85","28.31","41.2","13.87","90960","27.88","DUALSPOT-UV-BLUE-GREEN-RED-IR","800372","718972","906434","5.528532","1.602445","-0.018751","766789","894758","761178","3.742355","1.091928","-0.013906","866421","902028","814917","3.009355","0.856810","-0.033906","855903","920738","863829","2.331650","0.645285","0.000000","729825","852276","952762","1.659887","0.452436","0.000000","26686","24906","24179","17878","17251","16993","13656","12752","12392","10677","9509","10677","10598","9275","10598",""
"MA200-0416","26837","78","1","1.10","1.4","2023-05-23T09:06:03","120","2023/05/23","09:06:03","0","0","0.0","11","30","64","72","-23776","-6272","6032","5","150","149.34","115.59","33.75","28.37","41.1","13.88","91024","27.88","DUALSPOT-UV-BLUE-GREEN-RED-IR","799101","719303","907715","5.895896","1.728097","0.033088","766893","895826","762489","3.942162","1.166023","0.070291","865373","901695","814918","3.152782","0.910711","0.091195","855912","921311","864587","2.430740","0.684809","0.000000","729484","852238","952898","1.736558","0.483768","0.000000","18667","21866","23192","12814","16274","17727","10302","13258","14459","8600","11748","8600","9266","12967","9266",""
"MA200-0416","26838","78","1","1.10","1.4","2023-05-23T09:06:32","120","2023/05/23","09:06:32","0","0","0.0","11","30","64","72","-23588","-3860","7552","5","150","149.83","115.39","34.44","28.42","40.9","13.85","91132","27.94","DUALSPOT-UV-BLUE-GREEN-RED-IR","795960","717306","905650","6.083260","1.783495","-0.002175","764505","893633","760862","4.050970","1.200170","0.016876","864344","901053","814557","3.235715","0.933962","-0.028732","854679","920304","863825","2.490007","0.701999","0.000000","728484","851332","951965","1.782625","0.495884","0.000000","9536","9448","9412","6990","7351","7503","5966","5605","5459","5152","5008","5152","5576","4915","5576",""
"MA200-0416","26839","78","1","1.10","1.4","2023-05-23T09:07:02","120","2023/05/23","09:07:02","0","0","0.0","11","30","64","72","-23692","-6434","5553","5","150","149.73","115.17","34.56","28.46","40.7","13.83","91216","28.00","DUALSPOT-UV-BLUE-GREEN-RED-IR","792022","715013","903424","6.298148","1.849491","0.005100","766682","897010","764078","4.171485","1.239557","0.026970","861384","898542","812561","3.322834","0.963622","0.047933","856731","922941","866501","2.550009","0.722425","0.000000","730053","853484","954497","1.828401","0.505749","0.000000","10959","11216","11322","7757","8448","8740","6280","7124","7469","5226","5929","5226","5552","3987","5552",""
"MA200-0416","26840","78","1","1.10","1.4","2023-05-23T09:07:33","120","2023/05/23","09:07:33","0","0","0.0","11","30","64","72","-23653","-2373","6707","5","150","149.66","115.09","34.57","28.50","40.7","13.87","91284","28.06","DUALSPOT-UV-BLUE-GREEN-RED-IR","788705","714338","903821","6.698067","1.967250","-0.004319","764938","896716","764477","4.402304","1.307870","-0.004904","864403","903018","817060","3.489512","1.010143","-0.031793","851004","917700","861890","2.662867","0.752019","0.000000","729687","853760","955041","1.912891","0.526015","0.000000","20410","20005","19836","14868","14647","14554","12024","11171","10823","9838","8587","9838","10255","8188","10255",""
"MA200-0416","26841","78","1","1.10","1.4","2023-05-23T09:08:03","120","2023/05/23","09:08:03","0","0","0.0","11","30","64","72","-22376","-4256","8396","5","150","149.73","115.13","34.60","28.54","40.6","13.86","91324","28.06","DUALSPOT-UV-BLUE-GREEN-RED-IR","783164","712528","903107","7.411326","2.174175","-0.006978","761398","895133","763990","4.857008","1.441719","-0.006214","860723","901242","816151","3.846556","1.112669","-0.017404","846990","914988","859878","2.931939","0.826126","0.000000","727033","851803","953326","2.117969","0.580685","0.000000","36389","35124","34599","29279","28676","28421","25747","24599","24132","23448","21486","23448","24884","22071","24884",""
"MA200-0416","26842","78","1","1.10","1.4","2023-05-23T09:08:32","120","2023/05/23","09:08:32","0","0","0.0","11","30","64","72","-23024","-5616","6384","5","150","149.94","115.29","34.64","28.57","40.5","13.86","91348","28.13","DUALSPOT-UV-BLUE-GREEN-RED-IR","783297","714071","905915","7.710169","2.263626","-0.000709","757023","891150","761059","5.054090","1.499809","-0.005511","856961","898268","813819","4.000175","1.156108","-0.022585","849865","918865","863799","3.048766","0.857394","-0.058798","728429","853976","955948","2.202840","0.602047","0.000000","15224","15165","15141","12672","12430","12328","11062","10410","10145","10166","9055","8620","10283","8614","10283",""
"MA200-0416","26843","78","1","1.10","1.4","2023-05-23T09:09:03","120","2023/05/23","09:09:03","0","0","0.0","12","30","64","72","-22876","-3028","8008","5","150","150.13","114.88","35.25","28.61","40.4","13.83","91452","28.19","DUALSPOT-UV-BLUE-GREEN-RED-IR","784072","715699","908509","7.904503","2.325746","0.007063","757828","892879","762797","5.182226","1.539249","0.000842","856483","898412","814168","4.105222","1.188045","-0.003204","850175","919708","864783","3.128187","0.880694","-0.020819","723780","848844","950364","2.261333","0.618168","0.000000","9936","10350","10523","8268","8294","8305","7591","7521","7493","6936","6631","6512","7112","6388","7112",""
"MA200-0416","26844","78","1","1.10","1.4","2023-05-23T09:09:32","120","2023/05/23","09:09:32","0","0","0.0","12","30","64","72","-23308","-1760","6484","5","150","150.05","114.96","35.09","28.67","40.2","13.83","91572","28.19","DUALSPOT-UV-BLUE-GREEN-RED-IR","783755","715967","909142","8.025945","2.363222","0.001915","757676","893194","763226","5.262319","1.562387","-0.015642","856513","898815","814668","4.168409","1.204269","-0.068966","851565","921531","866589","3.177072","0.892567","-0.124893","724291","849669","951381","2.297683","0.627457","0.000000","6204","6272","6301","5164","4888","4771","4563","3838","3544","4266","3394","3054","4416","3697","4416",""
"MA200-0416","26845","78","1","1.10","1.4","2023-05-23T09:10:03","120","2023/05/23","09:10:03","-15.756704211235046","35.002147999592125","12.2","12","30","64","72","-23534","-2034","9734","5","150","149.99","115.18","34.80","28.70","40.1","13.81","91696","28.25","DUALSPOT-UV-BLUE-GREEN-RED-IR","778509","711903","904456","8.181281","2.413547","0.011354","758275","894476","764543","5.361692","1.593376","0.008128","857131","899949","815905","4.246396","1.225429","-0.039436","852557","922991","868102","3.236055","0.907015","-0.110313","724804","850502","952425","2.339365","0.639485","0.000000","7921","8493","8732","6395","6600","6687","5621","5047","4814","5137","4164","3786","5055","4827","5055",""
"MA200-0416","26846","78","1","1.10","1.4","2023-05-23T09:10:32","120","2023/05/23","09:10:32","-15.753910303115845","35.002536833053455","11.1","12","30","64","72","-23596","-3076","6820","5","150","150.62","115.24","35.39","28.73","39.9","13.76","91740","28.25","DUALSPOT-UV-BLUE-GREEN-RED-IR","779333","713060","906206","8.267618","2.441644","0.009449","758750","895445","765540","5.421974","1.612115","0.003165","857486","900657","816669","4.295588","1.241403","0.017394","847559","917843","863320","3.274041","0.916725","-0.092714","725336","851345","953427","2.369056","0.646307","0.000000","4400","4663","4773","3878","3925","3945","3544","3747","3830","3307","2752","2537","3599","2692","3599",""
"MA200-0416","26847","78","1","1.10","1.4","2023-05-23T09:11:03","120","2023/05/23","09:11:03","-15.751184165477753","35.00376499956474","12.9","12","30","64","72","-23972","-4","6184","5","150","149.61","114.95","34.65","28.76","39.8","13.75","91836","28.31","DUALSPOT-UV-BLUE-GREEN-RED-IR","779067","713754","907629","8.416582","2.487651","0.004001","753740","890314","761446","5.517029","1.639719","-0.009988","857217","901012","817224","4.369700","1.260810","-0.051801","847812","918665","864255","3.330688","0.930309","-0.118950","725428","851828","954104","2.410968","0.656852","0.000000","7611","7798","7876","6130","5905","5809","5352","4649","4364","4944","3932","3541","5093","4251","5093",""
"MA200-0416","26848","78","1","1.10","1.4","2023-05-23T09:11:32","120","2023/05/23","09:11:32","-15.74940049648285","35.00619716523215","10.5","12","30","64","72","-23128","2384","6952","5","150","149.87","115.17","34.70","28.79","39.7","13.74","91916","28.31","DUALSPOT-UV-BLUE-GREEN-RED-IR","779000","714299","908669","8.583591","2.542122","0.012226","754619","891842","762938","5.629935","1.674348","0.004444","852222","896208","813006","4.462535","1.287805","-0.011546","847577","918781","864517","3.405967","0.952666","-0.005926","725125","851695","954037","2.463792","0.672035","0.000000","8517","9220","9516","7267","7398","7454","6692","6458","6364","6557","6464","6428","6407","6112","6407",""
"MA200-0416","26849","78","1","1.10","1.4","2023-05-23T09:12:02","120","2023/05/23","09:12:02","-15.74813038110733","35.00815533194691","4.5","12","30","64","71","-25572","-2584","2136","5","150","150.23","115.27","34.95","28.83","39.5","13.68","91828","28.38","DUALSPOT-UV-BLUE-GREEN-RED-IR","779389","715073","909867","8.666907","2.568733","0.008142","754637","892226","763392","5.685906","1.690973","-0.005272","856772","901279","817707","4.508931","1.300841","-0.025490","848186","919663","865430","3.441233","0.960302","-0.190968","725323","852083","954556","2.490675","0.678752","0.000000","4245","4471","4567","3599","3525","3494","3341","3096","2997","3069","2191","1852","3257","2684","3257",""
"MA200-0416","26850","78","1","1.10","1.4","2023-05-23T09:12:33","120","2023/05/23","09:12:33","-15.747842252254486","35.008075832389295","0.5","13","30","64","72","-24688","-264","1960","5","150","149.56","114.50","35.05","28.86","39.3","13.65","91812","28.38","DUALSPOT-UV-BLUE-GREEN-RED-IR","773818","710112","904081","8.742786","2.620029","0.072408","754548","892298","763707","5.740690","1.724077","0.101366","853049","897503","814490","4.551846","1.327061","0.128360","843484","914687","860919","3.475670","0.979786","0.155797","726326","853180","956109","2.514099","0.713026","0.000000","3892","8594","10607","3546","7000","8483","3111","6209","7485","3017","5576","6581","2857","13658","2857",""
"MA200-0416","26851","78","1","1.10","1.4","2023-05-23T09:13:02","120","2023/05/23","09:13:02","-15.74775516986847","35.00817299913615","2.2","12","30","64","71","-24556","1124","2492","5","150","150.36","114.96","35.40","28.90","39.3","13.69","91812","28.44","DUALSPOT-UV-BLUE-GREEN-RED-IR","774370","711134","905589","8.833944","2.645891","-0.014343","755383","893773","765092","5.802854","1.740427","-0.045420","852677","897474","814594","4.602492","1.339858","-0.073708","843140","914645","860942","3.515135","0.988691","-0.168444","725881","852838","955795","2.540945","0.719291","0.000000","4657","4290","4133","4008","3423","3172","3657","3000","2731","3444","2523","2163","3262","2472","3262",""
"MA200-0416","26852","78","1","1.10","1.4","2023-05-23T09:13:32","120","2023/05/23","09:13:32","-15.747639060020447","35.00817166734487","38516.2","11","30","64","71","-24488","1860","3487","5","150","149.76","114.92","34.84","28.92","39.3","13.68","91812","28.50","DUALSPOT-UV-BLUE-GREEN-RED-IR","774438","711901","906919","8.971165","2.682911","-0.020791","751120","889296","761430","5.893656","1.764793","-0.033294","853227","898551","815736","4.674936","1.358747","-0.052593","844200","916185","862491","3.570018","1.000392","-0.196599","722269","848857","951421","2.580368","0.727869","0.000000","7013","6240","5910","5857","5184","4896","5233","4500","4200","4791","3369","2815","4792","3438","4792",""
"MA200-0416","26853","78","1","1.10","1.4","2023-05-23T09:14:02","120","2023/05/23","09:14:02","-15.747773587703705","35.00807866547257","0.6","11","30","64","71","-24596","-792","3164","5","150","150.28","114.75","35.53","28.97","39.2","13.69","91808","28.50","DUALSPOT-UV-BLUE-GREEN-RED-IR","774539","712567","908078","9.085250","2.716703","-0.007260","751413","890133","762285","5.968117","1.782495","-0.082912","853176","898914","816161","4.736311","1.373553","-0.095359","845234","917606","863952","3.615855","1.011681","-0.109728","722325","849166","951820","2.614511","0.734950","0.000000","5839","5586","5478","4810","3693","3218","4440","3459","3058","4007","3187","2869","4156","2783","4156",""
"MA200-0416","26854","78","1","1.10","1.4","2023-05-23T09:14:33","120","2023/05/23","09:14:33","-15.747920572757721","35.008258999325335","0.4","12","30","64","71","-23424","-7600","-8240","5","150","150.67","115.24","35.43","29.00","39.2","13.71","91812","28.56","DUALSPOT-UV-BLUE-GREEN-RED-IR","775546","714106","910329","9.205008","2.750248","-0.015781","751697","890978","763195","6.049144","1.805164","-0.024351","853809","900002","817274","4.799068","1.388876","-0.084967","845533","918245","864644","3.665772","1.023590","-0.123025","723055","850209","953071","2.649467","0.743610","0.000000","6103","5560","5329","5212","4742","4543","4521","3590","3211","4345","3372","2995","4237","3414","4237",""
"MA200-0416","26855","78","1","1.10","1.4","2023-05-23T09:15:03","120","2023/05/23","09:15:03","-15.747831165790558","35.0081038326025","0.8","12","30","64","71","-21096","-11284","3852","5","150","149.87","115.09","34.78","29.03","39.2","13.73","91816","28.63","DUALSPOT-UV-BLUE-GREEN-RED-IR","774874","713991","910453","9.307339","2.778925","-0.012436","751417","891126","763442","6.117398","1.823259","-0.034652","853326","899907","817268","4.854876","1.401787","-0.101336","846728","919883","866244","3.709300","1.032751","-0.195847","722907","850289","953219","2.682327","0.750718","0.000000","5222","4842","4680","4396","3856","3627","4025","3081","2698","3794","2642","2197","3988","2854","3988",""
"MA200-0416","26856","78","1","1.10","1.4","2023-05-23T09:15:32","120","2023/05/23","09:15:32","-15.747832834720612","35.00818633288145","0.2","12","30","64","71","-20072","-14987","5864","5","150","149.53","115.02","34.50","29.06","39.1","13.73","91824","28.63","DUALSPOT-UV-BLUE-GREEN-RED-IR","769271","709205","904564","9.386330","2.805256","0.014593","751530","891564","763951","6.171788","1.838882","-0.010432","853567","900455","817896","4.900462","1.414363","-0.025960","841270","914162","860999","3.743976","1.042032","-0.046886","723363","850965","954056","2.708654","0.756999","0.000000","4033","4482","4673","3505","3356","3293","3290","3026","2919","3024","2698","2572","3197","2543","3197",""
"MA200-0416","26857","78","1","1.10","1.4","2023-05-23T09:16:02","120","2023/05/23","09:16:02","-15.747830033302307","35.00820166617632","0.1","12","30","64","71","-20444","-13623","9276","5","150","149.80","114.63","35.17","29.11","39.0","13.75","91828","28.69","DUALSPOT-UV-BLUE-GREEN-RED-IR","769211","709650","905453","9.488092","2.838560","0.009149","751631","892156","764657","6.247827","1.863647","0.012899","848971","895964","813963","4.962731","1.434438","0.013413","841634","914943","861794","3.794409","1.055878","-0.044987","723335","851149","954367","2.744321","0.767118","0.000000","5214","5561","5710","4917","5220","5348","4510","4738","4831","4414","3949","3770","4346","4019","4346",""
"MA200-0416","26858","78","1","1.10","1.4","2023-05-23T09:16:32","120","2023/05/23","09:16:32","-15.747795343399048","35.00819749943912","0.1","12","30","64","71","-20640","-13040","4412","5","150","149.54","114.53","35.01","29.14","39.0","13.76","91828","28.69","DUALSPOT-UV-BLUE-GREEN-RED-IR","769695","710721","907199","9.614525","2.878461","0.004608","751721","892858","765476","6.341072","1.892299","0.001167","849004","896516","814683","5.040086","1.457493","-0.007217","842386","916155","863115","3.854026","1.073062","-0.022259","723849","852068","955509","2.787374","0.779080","0.000000","6483","6694","6784","6035","6066","6080","5607","5467","5410","5222","4924","4809","5251","4773","5251",""
"MA200-0416","26859","78","1","1.10","1.4","2023-05-23T09:17:03","120","2023/05/23","09:17:03","-15.747820317745209","35.00816783308983","0.2","12","30","64","71","-23588","-7188","-5556","5","150","149.70","114.73","34.97","29.17","39.0","13.78","91832","28.75","DUALSPOT-UV-BLUE-GREEN-RED-IR","769279","710949","907840","9.741722","2.917160","-0.000278","747595","888456","761955","6.433372","1.922267","0.013226","848330","896219","814571","5.116004","1.479869","-0.009535","841763","915800","862920","3.913545","1.091098","-0.002082","723265","851663","955111","2.829315","0.785030","0.000000","6511","6499","6494","5963","6352","6518","5493","5312","5238","5204","5174","5162","5106","2376","5106",""
"MA200-0416","26860","78","1","1.10","1.4","2023-05-23T09:17:32","120","2023/05/23","09:17:32","-15.74794739484787","35.008060165680945","5.1","12","30","64","70","-24924","-4284","776","5","150","150.01","114.38","35.63","29.20","38.9","13.80","91836","28.81","DUALSPOT-UV-BLUE-GREEN-RED-IR","767347","709729","906621","9.858929","2.956133","0.008912","745956","887016","760868","6.512406","1.947601","0.006092","847195","895412","814039","5.180455","1.500814","0.011074","840296","914546","861868","3.964160","1.106691","-0.003934","722363","850810","954242","2.862941","0.793665","0.000000","6018","6424","6598","5122","5270","5334","4678","4880","4963","4439","4390","4371","4107","3385","4107",""
"MA200-0416","26861","78","1","1.10","1.4","2023-05-23T09:18:03","120","2023/05/23","09:18:03","-15.749294936656952","35.006162331905216","12.9","12","30","64","71","-24136","-3496","3500","5","150","150.03","114.80","35.23","29.24","38.9","13.81","91920","28.81","DUALSPOT-UV-BLUE-GREEN-RED-IR","768487","711868","910063","10.021004","3.009822","0.010172","746904","889265","763251","6.635329","1.987178","0.009876","847553","896786","815661","5.283452","1.533024","0.004939","842564","917841","865296","4.048325","1.132106","-0.005622","718885","847300","950555","2.927007","0.811263","0.000000","8292","8951","9233","7938","8327","8494","7448","7590","7648","7355","7237","7191","7796","6977","7796",""
"MA200-0416","26862","78","1","1.10","1.4","2023-05-23T09:18:33","120","2023/05/23","09:18:33","-15.750159978866577","35.00496800011024","0.7","13","30","64","71","-24334","-2569","2546","5","150","149.82","114.51","35.31","29.28","38.8","13.83","91932","28.88","DUALSPOT-UV-BLUE-GREEN-RED-IR","762987","707332","904625","10.212013","3.073221","0.009643","747343","890295","764363","6.787257","2.036644","0.010888","847954","897672","816701","5.418861","1.575844","0.006401","842975","918728","866337","4.163084","1.167195","-0.002852","719043","847758","951233","3.016050","0.837716","-0.017696","9797","10545","10867","9835","10384","10620","9817","10067","10170","10054","9969","9936","10862","10464","10312",""
"MA200-0416","26863","78","1","1.10","1.4","2023-05-23T09:19:02","120","2023/05/23","09:19:02","-15.750050783157349","35.00513266585767","0.5","12","30","64","71","-25379","-2441","1608","5","150","150.36","114.88","35.49","29.32","38.8","13.85","91932","28.88","DUALSPOT-UV-BLUE-GREEN-RED-IR","763045","707898","905640","10.312130","3.106962","0.011170","747642","891133","765300","6.861045","2.060754","0.011108","847498","897623","816786","5.480135","1.595079","0.004071","837184","912759","860845","4.211510","1.181691","-0.010694","719257","848280","951919","3.050451","0.849045","0.027513","5118","5584","5785","4761","5036","5154","4428","4499","4529","4229","4098","4047","4183","4459","4566",""
"MA200-0416","26864","78","1","1.10","1.4","2023-05-23T09:19:32","120","2023/05/23","09:19:32","-15.749906599521637","35.005325332283974","0.8","13","30","64","71","-24388","-3764","3423","5","150","150.63","115.04","35.59","29.36","38.8","13.87","91940","28.94","DUALSPOT-UV-BLUE-GREEN-RED-IR","763059","708419","906596","10.428066","3.143205","0.001438","742792","885833","760937","6.946621","2.086366","-0.007001","843678","893981","813674","5.551291","1.616108","-0.012097","839040","915114","863215","4.267955","1.197951","-0.024745","719979","849380","953246","3.091810","0.860443","-0.057613","5919","5982","6009","5514","5335","5258","5135","4906","4811","4922","4584","4452","5022","4474","4262",""
"MA200-0416","26865","78","1","1.10","1.4","2023-05-23T09:20:02","120","2023/05/23","09:20:02","-15.749734163284302","35.0054829986766","0.7","13","30","64","71","-24596","-4564","2540","5","150","150.01","114.84","35.17","29.39","38.6","13.84","91944","29.00","DUALSPOT-UV-BLUE-GREEN-RED-IR","763780","709551","908361","10.501623","3.167968","0.011844","743480","887100","762189","7.002942","2.104778","0.012544","847791","898750","818119","5.598689","1.629578","-0.020206","838781","915160","863364","4.304150","1.207333","-0.063118","719885","849492","953508","3.121595","0.869072","-0.025909","3762","4135","4296","3635","3880","3986","3426","3179","3078","3162","2676","2486","3623","3427","3352",""
"MA200-0416","26866","78","1","1.10","1.4","2023-05-23T09:20:32","120","2023/05/23","09:20:32","-15.749575018882751","35.005723832175136","1.2","13","30","64","71","-23960","-3492","1444","5","150","150.03","114.60","35.43","29.44","38.6","13.87","91940","29.00","DUALSPOT-UV-BLUE-GREEN-RED-IR","764380","710618","910004","10.613964","3.202867","0.000645","743031","887065","762313","7.085289","2.129270","-0.008097","843700","894824","814715","5.668134","1.649999","-0.013057","840247","917070","865248","4.359740","1.222020","-0.058089","720493","850450","954643","3.162969","0.879417","-0.113962","5757","5785","5797","5326","5124","5037","5031","4785","4684","4866","4158","3883","5043","4078","3707",""
"MA200-0416","26867","78","1","1.10","1.4","2023-05-23T09:21:03","120","2023/05/23","09:21:03","-15.749411523342133","35.00595483183861","1.1","13","30","64","71","-25808","-4028","-916","5","150","150.09","114.84","35.26","29.48","38.4","13.85","91932","29.00","DUALSPOT-UV-BLUE-GREEN-RED-IR","764403","711262","911287","10.753963","3.250047","0.011417","743816","888558","763836","7.186602","2.162386","0.011781","843169","894757","814871","5.752654","1.675701","-0.002370","840107","917368","865716","4.427691","1.241457","-0.023685","720217","850428","954758","3.214166","0.893816","-0.040950","7160","7859","8162","6540","6963","7145","6110","6052","6028","5936","5531","5373","6227","5704","5503",""
"MA200-0416","26868","78","1","1.10","1.4","2023-05-23T09:21:32","120","2023/05/23","09:21:32","-15.749221384525299","35.0062128319405","1.1","13","30","64","70","-25136","-4172","68","5","150","149.57","114.64","34.93","29.51","38.3","13.82","91932","29.06","DUALSPOT-UV-BLUE-GREEN-RED-IR","757328","705101","903566","10.844130","3.279085","0.006969","744249","889419","764742","7.250175","2.182430","0.006556","843744","895633","815762","5.802781","1.689946","-0.018070","840881","918461","866828","4.467520","1.252639","-0.027421","720505","850945","955399","3.244485","0.901831","-0.069116","4619","4883","4997","4111","4254","4316","3630","3386","3285","3485","3211","3105","3694","3205","3017",""
"MA200-0416","26869","78","1","1.10","1.4","2023-05-23T09:22:02","120","2023/05/23","09:22:02","-15.74907797574997","35.00641599856317","0.3","14","30","64","70","-25144","-4668","876","5","150","149.45","114.05","35.40","29.54","38.2","13.81","91924","29.13","DUALSPOT-UV-BLUE-GREEN-RED-IR","758171","706242","905299","10.918520","3.305837","0.016971","744773","890368","765665","7.298862","2.197397","-0.001913","844044","896238","816399","5.842996","1.701396","-0.022623","835821","913157","861878","4.499413","1.260423","-0.093799","721531","852266","956957","3.268192","0.909235","0.002618","3831","4438","4702","3164","3134","3121","2927","2685","2585","2805","2206","1972","2903","2921","2928",""
"MA200-0416","26870","78","1","1.10","1.4","2023-05-23T09:22:33","120","2023/05/23","09:22:33","-15.748948812484741","35.006677999626845","1.0","14","30","64","70","-25240","-1840","1528","5","150","149.90","114.40","35.50","29.58","38.2","13.82","91920","29.13","DUALSPOT-UV-BLUE-GREEN-RED-IR","758810","707298","906988","11.023539","3.340133","0.006354","740382","885481","761612","7.364211","2.217079","-0.005948","844794","897343","817541","5.894900","1.716810","-0.010923","836672","914318","863087","4.537869","1.271205","-0.034069","717274","847422","951596","3.298730","0.915980","-0.201287","5391","5675","5798","4234","4110","4057","3766","3605","3538","3372","3047","2921","3729","2654","2241",""
"MA200-0416","26871","78","1","1.10","1.4","2023-05-23T09:23:03","120","2023/05/23","09:23:03","-15.748697459697723","35.00682966597378","0.8","14","30","64","70","-25812","-3887","-4280","5","150","149.54","114.23","35.31","29.61","38.0","13.78","91912","29.19","DUALSPOT-UV-BLUE-GREEN-RED-IR","756561","705573","905035","11.105003","3.369959","0.018838","738664","883784","760301","7.419369","2.235801","0.016566","843087","895823","816268","5.941254","1.731973","0.012763","835609","913393","862301","4.575393","1.281362","-0.045681","716215","846369","950476","3.325061","0.923678","-0.024455","4188","4960","5296","3579","3930","4081","3369","3564","3645","3295","2885","2725","3220","3045","2977",""
"MA200-0416","26872","78","1","1.10","1.4","2023-05-23T09:23:32","120","2023/05/23","09:23:32","-15.748540818691254","35.00675249937922","0.7","14","30","64","70","-25308","-6125","-587","5","150","149.80","114.25","35.55","29.64","38.1","13.86","0","0.00","DUALSPOT-UV-BLUE-GREEN-RED-IR","758419","707704","908007","11.184359","3.395774","0.005500","740562","886435","762698","7.476081","2.252723","-0.008324","839761","892611","813437","5.988289","1.744508","-0.042356","838087","916396","865196","4.611429","1.290071","-0.097419","717242","847755","952078","3.352501","0.930613","-0.104653","4079","4265","4346","3679","3529","3464","3417","2927","2726","3164","2457","2183","3354","2725","2483",""
"MA200-0416","26873","78","1","1.10","1.4","2023-05-23T09:24:03","120","2023/05/23","09:24:03","-15.748546957969666","35.006532665807754","1.0","14","30","64","70","-24156","-4884","-1808","5","150","149.64","114.26","35.38","29.68","38.2","13.93","0","0.00","DUALSPOT-UV-BLUE-GREEN-RED-IR","759637","709202","910208","11.267956","3.424255","0.011184","741424","887774","763993","7.532714","2.270246","-0.000112","840703","893875","814701","6.035239","1.758396","-0.011140","838668","917276","866136","4.648846","1.301026","-0.017549","717887","848670","953220","3.380270","0.938981","-0.011382","4297","4728","4917","3674","3672","3671","3411","3259","3196","3285","3106","3037","3395","3304","3269",""
"MA200-0416","26874","78","1","1.10","1.4","2023-05-23T09:24:33","120","2023/05/23","09:24:33","-15.748345255851746","35.006398998666555","0.8","14","30","64","69","-24424","-5028","-2412","5","150","149.76","114.28","35.48","29.73","38.3","14.00","91880","29.31","DUALSPOT-UV-BLUE-GREEN-RED-IR","749619","701340","900842","11.422092","3.472778","0.001713","739423","886524","763346","7.633202","2.301431","-0.000094","838697","892573","813849","6.109042","1.780301","-0.010859","837268","916313","865418","4.701498","1.314652","-0.063952","716714","847670","952222","3.418008","0.948568","-0.098377","7922","8032","8080","6518","6515","6513","5361","5125","5028","4622","3852","3553","4613","3774","3452",""
"MA200-0416","26875","78","1","1.10","1.4","2023-05-23T09:25:03","120","2023/05/23","09:25:03","-15.748118579387665","35.006352165248245","1.0","14","30","64","70","-25204","-5872","848","5","150","149.96","114.32","35.64","29.75","38.2","14.00","91864","29.31","DUALSPOT-UV-BLUE-GREEN-RED-IR","748721","703368","904949","12.113636","3.665693","-0.014670","738921","888098","765439","8.045835","2.418655","-0.018075","838971","894505","816174","6.409961","1.864510","-0.026336","833102","912866","862556","4.895489","1.367443","-0.043755","718292","850185","955295","3.537408","0.977843","-0.118389","35530","31791","30169","26757","24381","23360","21853","19615","18697","17024","14860","14021","14590","11474","10283",""
"MA200-0416","26876","78","1","1.10","1.4","2023-05-23T09:25:32","120","2023/05/23","09:25:32","-15.74784141778946","35.00641316501424","0.8","14","30","64","70","-24928","-1968","-888","5","150","149.54","114.65","34.90","29.78","38.1","13.99","91844","29.38","DUALSPOT-UV-BLUE-GREEN-RED-IR","747488","703475","905762","12.360075","3.739992","-0.001113","733922","883041","761456","8.200764","2.466995","0.004228","838122","894320","816275","6.520593","1.896875","-0.008889","833504","913791","863613","4.970401","1.390701","0.005449","718229","850438","955707","3.587879","0.992390","-0.022038","12625","12505","12454","10017","10269","10377","8011","7700","7572","6555","6686","6737","6149","5823","5699",""
"MA200-0416","26877","78","1","1.10","1.4","2023-05-23T09:26:03","120","2023/05/23","09:26:03","-15.747624099254608","35.00644683185965","0.7","14","30","64","70","-25224","-4092","-236","5","150","149.54","114.53","35.01","29.82","37.9","13.93","91836","29.38","DUALSPOT-UV-BLUE-GREEN-RED-IR","747153","704090","907141","12.573925","3.807834","0.004097","734279","884355","762922","8.343772","2.511781","0.004067","833347","889891","812523","6.632793","1.931231","0.000372","833452","914255","864297","5.052636","1.414829","-0.011684","713681","845401","950183","3.644617","1.008186","-0.038602","10966","11381","11562","9256","9483","9581","8133","8147","8153","7203","6914","6801","6920","6302","6066",""
"MA200-0416","26878","78","1","1.10","1.4","2023-05-23T09:26:32","120","2023/05/23","09:26:32","-15.747410356998444","35.006488665472716","0.8","14","30","64","70","-23940","-4480","-1896","5","150","149.58","114.99","34.60","29.85","37.7","13.87","91820","29.44","DUALSPOT-UV-BLUE-GREEN-RED-IR","747309","704586","907997","12.663675","3.835538","0.002837","734252","884589","763230","8.405917","2.531166","0.005935","838092","895230","817496","6.685740","1.947390","0.002976","835156","916282","866292","5.092962","1.426368","-0.014310","714138","846072","951046","3.675819","1.016667","-0.041916","4584","4703","4755","4006","4153","4216","3822","3877","3900","3518","3346","3279","3790","3424","3284",""
"MA200-0416","26879","78","1","1.10","1.4","2023-05-23T09:27:03","120","2023/05/23","09:27:03","-15.747211396694183","35.00653866585344","0.7","14","30","64","70","-23420","-3955","-4684","5","150","149.94","114.54","35.39","29.89","37.6","13.86","91808","29.50","DUALSPOT-UV-BLUE-GREEN-RED-IR","747980","705499","909319","12.724567","3.856552","0.011282","734977","885716","764298","8.447397","2.542919","-0.015935","837949","895289","817637","6.718374","1.956015","-0.038158","835249","916575","866602","5.117708","1.432716","-0.060280","713998","846018","951036","3.695936","1.022938","0.003295","3122","3487","3645","2684","2461","2366","2365","2023","1882","2167","1799","1656","2453","2475","2483",""
"MA200-0416","26880","78","1","1.10","1.4","2023-05-23T09:27:33","120","2023/05/23","09:27:33","-15.746979057788849","35.0065928325057","0.8","14","30","64","69","-24726","-3734","-1865","5","150","149.34","113.75","35.59","29.91","37.5","13.84","91788","29.50","DUALSPOT-UV-BLUE-GREEN-RED-IR","740213","698626","900722","12.810696","3.883094","-0.001703","733771","884611","763477","8.502388","2.560962","0.007678","833563","890872","813678","6.760156","1.968669","-0.006966","828732","909640","860124","5.146776","1.439547","-0.102549","713908","846047","951122","3.715370","1.027589","-0.129470","4447","4381","4352","3583","3758","3834","3049","2952","2912","2563","1925","1678","2386","1825","1611",""
"MA200-0416","26881","78","1","1.10","1.4","2023-05-23T09:28:02","120","2023/05/23","09:28:02","-15.746768057346344","35.00665333215147","0.6","14","30","64","70","-24156","-7547","-7292","5","150","149.86","114.38","35.48","29.94","37.4","13.84","0","0.00","DUALSPOT-UV-BLUE-GREEN-RED-IR","748229","706515","911150","12.885969","3.908578","0.009015","735288","886758","765450","8.551974","2.575327","-0.012181","833936","891502","814382","6.798554","1.980178","-0.007319","830615","911870","862316","5.175495","1.447176","-0.048051","714660","847102","952330","3.736194","1.033137","-0.064838","3865","4219","4373","3213","3001","2910","2787","2693","2654","2519","2157","2017","2543","2184","2047",""
"MA200-0416","26882","78","1","1.10","1.4","2023-05-23T09:28:33","120","2023/05/23","09:28:33","-15.746523261070251","35.00669749919325","0.8","14","30","64","70","-25312","-5028","-376","5","150","150.23","114.32","35.91","29.97","37.4","13.86","0","0.00","DUALSPOT-UV-BLUE-GREEN-RED-IR","741509","700566","903766","12.973724","3.938913","0.009726","730912","881789","761331","8.611020","2.596265","0.018111","834019","891861","814809","6.844992","1.994395","-0.005410","831324","912896","863337","5.207763","1.455855","-0.047847","714886","847473","952841","3.760118","1.040092","-0.030484","4508","4962","5159","3828","4323","4536","3372","3287","3252","2831","2424","2266","2923","2705","2622",""
"MA200-0416","26883","78","1","1.10","1.4","2023-05-23T09:29:02","120","2023/05/23","09:29:02","-15.746324479579926","35.006689332891256","0.9","14","30","64","69","-24480","-3980","-372","5","150","149.96","114.20","35.76","30.01","37.3","13.84","91740","29.63","DUALSPOT-UV-BLUE-GREEN-RED-IR","742190","701848","905757","13.087116","3.975368","0.002820","731212","882679","762246","8.678251","2.615894","-0.012366","834303","892557","815590","6.896049","2.009582","-0.011032","832229","914134","864585","5.241861","1.465332","-0.035266","715430","848284","953804","3.782238","1.045682","-0.096113","5831","5987","6055","4364","4068","3941","3711","3525","3449","2995","2658","2528","2705","2183","1984",""
"MA200-0416","26884","78","1","1.10","1.4","2023-05-23T09:29:32","120","2023/05/23","09:29:32","-15.746100783348083","35.00673783244565","0.7","14","30","64","69","-23812","-6256","-1619","5","150","150.04","114.41","35.64","30.04","37.1","13.81","91728","29.63","DUALSPOT-UV-BLUE-GREEN-RED-IR","739553","700075","903823","13.250299","4.020742","-0.013753","729726","881361","761291","8.773431","2.643783","-0.010580","832882","891361","814579","6.959159","2.025615","-0.050524","831204","913208","863779","5.278820","1.473957","-0.101139","714773","847639","953107","3.808410","1.051807","-0.137517","8377","7478","7086","6167","5801","5643","4579","3735","3388","3241","2428","2113","3195","2400","2097",""
"MA200-0416","26885","78","1","1.10","1.4","2023-05-23T09:30:03","120","2023/05/23","09:30:03","-15.74613469839096","35.00681316619739","0.2","14","30","64","69","-24711","-4265","1023","5","150","150.42","114.88","35.54","30.06","37.1","13.83","91724","29.69","DUALSPOT-UV-BLUE-GREEN-RED-IR","742258","702836","907532","13.291800","4.034423","0.006464","731716","883958","763582","8.799265","2.649046","-0.108596","834385","893151","816280","6.980264","2.031207","-0.036450","834069","916488","866890","5.292164","1.476484","-0.220011","716419","849725","955449","3.820367","1.053684","-0.557148","2121","2260","2321","1667","1097","852","1525","1306","1215","1165","713","538","1454","737","464",""
"MA200-0416","26886","78","1","1.10","1.4","2023-05-23T09:30:33","120","2023/05/23","09:30:33","-15.746029675006866","35.00680000009015","0.2","14","30","64","69","-23104","-9792","2768","5","150","150.01","115.00","35.00","30.09","37.0","13.81","91728","29.75","DUALSPOT-UV-BLUE-GREEN-RED-IR","742676","703455","908474","13.339001","4.051216","0.014629","731897","884337","763998","8.827991","2.659906","0.029137","835056","893988","817116","7.002026","2.037250","-0.020135","828368","910346","861119","5.309585","1.480555","-0.089455","716434","849787","955591","3.833025","1.057613","0.006970","2410","2817","2995","1851","2299","2493","1571","1433","1376","1519","1166","1030","1537","1568","1579",""
"MA200-0416","26887","78","1","1.10","1.4","2023-05-23T09:31:03","120","2023/05/23","09:31:03","-15.745931506156921","35.00676016602665","0.7","14","30","64","69","-18650","-8973","-16715","5","150","150.18","114.63","35.55","30.12","37.0","13.84","91728","29.75","DUALSPOT-UV-BLUE-GREEN-RED-IR","736922","698261","901889","13.391912","4.067781","0.000996","732607","885396","764957","8.859851","2.668554","-0.024520","830960","889760","813276","7.027996","2.045952","0.014494","829248","911395","862155","5.327926","1.486504","0.011187","712405","845086","950323","3.849054","1.060386","-0.406893","2711","2736","2747","2060","1803","1692","1880","2032","2094","1605","1678","1707","1953","1089","761",""
"MA200-0416","26888","78","1","1.10","1.4","2023-05-23T09:31:33","120","2023/05/23","09:31:33","-15.745986580848694","35.00672833342105","0.1","14","30","64","69","-19916","-9876","-14136","5","150","149.92","114.69","35.23","30.16","37.1","13.88","91728","29.81","DUALSPOT-UV-BLUE-GREEN-RED-IR","737067","698692","902657","13.456894","4.087339","-0.002237","728614","880799","761103","8.900823","2.682769","0.017549","831421","890448","813964","7.056815","2.054196","-0.015265","830200","912582","863366","5.348081","1.492255","-0.020479","712866","845778","951117","3.862028","1.062263","-0.699689","3327","3260","3230","2648","2990","3138","2086","1942","1883","1763","1637","1589","1580","744","426",""
"MA200-0416","26889","78","1","1.10","1.4","2023-05-23T09:32:03","120","2023/05/23","09:32:03","-15.746005296707153","35.006705165840685","0.2","14","30","64","69","-20008","-13020","-11028","5","150","149.53","114.42","35.11","30.19","37.0","13.90","91724","29.88","DUALSPOT-UV-BLUE-GREEN-RED-IR","739308","701043","905870","13.508383","4.106731","0.018236","730026","882696","762819","8.933914","2.692026","-0.016201","832839","892101","815548","7.081825","2.062117","0.006145","832079","914764","865447","5.366368","1.496583","-0.086579","714073","847262","952833","3.876550","1.065373","-0.184159","2643","3244","3507","2144","1954","1872","1814","1873","1897","1603","1236","1094","1773","1237","1034",""
"MA200-0416","26890","78","1","1.10","1.4","2023-05-23T09:32:32","120","2023/05/23","09:32:32","-15.746017694473267","35.006756499409676","0.1","14","30","64","68","-20420","-12972","-9956","5","150","150.62","114.57","36.04","30.22","36.9","13.89","91724","29.94","DUALSPOT-UV-BLUE-GREEN-RED-IR","738716","700710","905581","13.557089","4.124803","0.015122","729556","882324","762578","8.964735","2.702886","0.016361","832130","891524","815096","7.106692","2.067726","-0.093517","825567","907772","858861","5.384794","1.500499","-0.151795","713608","846820","952376","3.890886","1.069946","0.004847","2496","2944","3140","1994","2233","2337","1801","1291","1082","1613","1090","887","1747","1772","1781",""
"MA200-0416","26891","78","1","1.10","1.4","2023-05-23T09:33:03","120","2023/05/23","09:33:03","-15.74601948261261","35.00679966621101","0.1","14","30","64","69","-20260","-13248","-10376","5","150","150.16","114.36","35.80","30.25","36.9","13.92","91728","30.00","DUALSPOT-UV-BLUE-GREEN-RED-IR","736145","698517","902910","13.612442","4.142702","0.003318","728787","881626","762059","8.999057","2.713348","-0.004366","830621","890070","813802","7.133586","2.075379","-0.020629","829426","912166","863073","5.405296","1.505154","-0.113738","711566","844516","949786","3.906988","1.073993","-0.095513","2842","2936","2977","2224","2166","2140","1952","1774","1701","1798","1304","1113","1966","1579","1432",""
"MA200-0416","26892","78","1","1.10","1.4","2023-05-23T09:33:33","120","2023/05/23","09:33:33","-15.7460258603096","35.0068153324537","0.2","14","30","64","69","-20172","-13564","-10084","5","150","149.94","114.17","35.77","30.30","37.0","13.98","91724","30.06","DUALSPOT-UV-BLUE-GREEN-RED-IR","737297","699916","904888","13.669798","4.161058","0.002198","729458","882700","763064","9.036993","2.722812","-0.045504","831753","891501","815192","7.163353","2.082097","-0.090855","832130","915303","866058","5.426645","1.508790","-0.316671","712970","846258","951819","3.921892","1.077694","-0.102080","2950","3014","3042","2463","1961","1745","2164","1559","1311","1876","1019","690","1823","1445","1302",""
"MA200-0416","26893","78","1","1.10","1.4","2023-05-23T09:34:02","120","2023/05/23","09:34:02","-15.74603945016861","35.00681966589764","0.1","14","30","64","69","-20976","-12560","-9788","5","150","149.58","114.39","35.20","30.33","36.9","13.96","91720","30.13","DUALSPOT-UV-BLUE-GREEN-RED-IR","738855","701644","907337","13.727249","4.182590","0.017389","730801","884507","764716","9.073859","2.736242","0.022957","832121","892062","815768","7.193089","2.090311","-0.023430","827825","910684","861761","5.450195","1.515441","-0.023528","713775","847294","953050","3.938142","1.083916","0.064005","2950","3593","3875","2389","2828","3017","2158","1937","1847","2065","1896","1830","1984","2469","2653",""
"MA200-0416","26894","78","1","1.10","1.4","2023-05-23T09:34:32","120","2023/05/23","09:34:32","-15.746044039726257","35.00681299949065","0.1","14","30","64","68","-19764","-15756","-7788","5","150","149.73","114.17","35.56","30.37","36.7","13.93","91724","30.19","DUALSPOT-UV-BLUE-GREEN-RED-IR","738568","701719","907715","13.801895","4.209093","0.012140","726710","879833","760832","9.121120","2.751917","0.009319","831134","891286","815150","7.229949","2.103626","0.025438","826927","909931","861097","5.477834","1.523655","-0.012408","712998","846529","952240","3.959076","1.089494","-0.062885","3840","4377","4613","3068","3267","3353","2680","3108","3284","2428","2317","2274","2561","2191","2050",""
"MA200-0416","26895","78","1","1.10","1.4","2023-05-23T09:35:02","120","2023/05/23","09:35:02","-15.74604880809784","35.00680883275345","0.2","14","30","64","69","-21880","-13768","-3100","5","150","149.45","114.52","34.93","30.40","36.7","13.96","91728","30.25","DUALSPOT-UV-BLUE-GREEN-RED-IR","734399","698439","903829","13.941757","4.254265","0.005613","728569","882654","763462","9.208366","2.777721","-0.004916","828910","889286","813459","7.294995","2.121311","-0.024769","831010","914721","865721","5.521995","1.533877","-0.090693","711113","844448","950005","3.989740","1.099043","0.007082","7173","7596","7782","5647","5476","5403","4715","4203","3994","3868","2936","2577","3740","3819","3849",""
"MA200-0416","26896","78","1","1.10","1.4","2023-05-23T09:35:32","120","2023/05/23","09:35:32","-15.74603819847107","35.00679949903861","0.1","14","30","64","69","-20544","-14272","4228","5","150","150.08","114.38","35.70","30.46","36.6","13.97","91728","30.31","DUALSPOT-UV-BLUE-GREEN-RED-IR","735332","699636","905606","14.012707","4.277359","0.004151","729307","883779","764550","9.253829","2.793729","0.016772","829539","890144","814366","7.331235","2.132535","-0.001495","832227","916195","867206","5.547730","1.541179","-0.025977","715839","850238","956541","4.011755","1.103695","-0.200280","3643","3799","3868","2946","3324","3488","2630","2610","2602","2257","2051","1973","2688","1820","1490",""
"MA200-0416","26897","78","1","1.10","1.4","2023-05-23T09:36:02","120","2023/05/23","09:36:02","-15.746042490005493","35.00681649893522","0.3","14","30","64","68","-19024","-5976","14572","5","150","150.09","114.40","35.69","30.50","36.5","13.94","91728","30.38","DUALSPOT-UV-BLUE-GREEN-RED-IR","733964","699394","905892","14.228313","4.343111","-0.002364","728670","883815","764898","9.386040","2.836555","0.005524","828662","889829","814313","7.428784","2.163159","0.001160","825092","908774","860309","5.614815","1.562422","0.003599","711459","845322","951108","4.062925","1.114144","-0.223716","11069","10819","10709","8567","8894","9035","7079","7123","7140","5883","5970","6004","6248","4089","3273",""
"MA200-0416","26898","78","1","1.10","1.4","2023-05-23T09:36:33","120","2023/05/23","09:36:33","-15.745996654033661","35.00680749909952","0.9","14","30","64","68","-24716","-2024","2824","5","150","150.01","114.67","35.34","30.54","36.4","13.95","91724","30.38","DUALSPOT-UV-BLUE-GREEN-RED-IR","734864","700502","907466","14.286407","4.362825","0.008900","725029","879626","761328","9.421681","2.846378","-0.018942","829225","890617","815076","7.456959","2.171182","-0.016093","824907","908723","860318","5.634182","1.566934","-0.090613","711268","845214","951058","4.079244","1.120180","0.053018","2975","3276","3409","2304","2060","1955","2039","1885","1821","1694","1281","1121","1988","2386","2536",""
"MA200-0416","26899","78","1","1.10","1.4","2023-05-23T09:37:02","120","2023/05/23","09:37:02","-15.745801329612732","35.00678833341226","0.6","14","30","64","68","-23560","-2264","4332","5","150","149.54","114.42","35.12","30.60","36.2","13.93","91720","30.44","DUALSPOT-UV-BLUE-GREEN-RED-IR","734671","700820","908219","14.387922","4.396173","0.006376","728979","884782","765969","9.481983","2.866542","0.011969","829383","891039","815594","7.499654","2.184152","-0.001983","826037","910134","861750","5.663327","1.574319","-0.056313","711890","846080","952072","4.099954","1.125156","-0.104239","5211","5576","5737","3906","4255","4407","3097","3065","3052","2555","2109","1937","2528","1979","1771",""
"MA200-0416","26900","78","1","1.10","1.4","2023-05-23T09:37:33","120","2023/05/23","09:37:33","-15.745702683925629","35.00672533316538","0.6","14","30","64","68","-24316","-3336","3248","5","150","149.96","114.40","35.56","30.65","36.0","13.86","91728","30.44","DUALSPOT-UV-BLUE-GREEN-RED-IR","733323","699705","906919","14.435818","4.414510","0.017330","723978","878827","760911","9.512648","2.877975","0.023368","827862","889547","814274","7.523382","2.192771","0.025523","823822","907789","859548","5.679384","1.579445","0.006351","710418","844389","950220","4.114223","1.130399","0.048779","2459","3028","3279","1987","2383","2555","1722","2012","2131","1408","1446","1460","1742","2059","2179",""
"MA200-0416","26901","78","1","1.10","1.4","2023-05-23T09:38:02","120","2023/05/23","09:38:02","-15.745641887187958","35.00654033245519","2.2","14","30","64","68","-24796","-1608","3484","5","150","150.09","114.52","35.58","30.72","35.8","13.87","91736","30.50","DUALSPOT-UV-BLUE-GREEN-RED-IR","735713","702376","910635","14.518139","4.440532","0.001699","725954","881508","763319","9.560168","2.892120","-0.006681","829140","891130","815812","7.558102","2.200662","-0.080589","826719","911171","862768","5.702172","1.584833","-0.086692","711917","846320","952439","4.133201","1.135660","-0.042204","4222","4296","4328","3076","2947","2891","2517","1841","1564","1996","1519","1336","2315","2065","1971",""
"MA200-0416","26902","78","1","1.10","1.4","2023-05-23T09:38:32","120","2023/05/23","09:38:32","-15.74559611082077","35.006398998666555","0.7","14","30","64","68","-24692","-3888","3142","5","150","150.16","114.56","35.60","30.72","35.8","13.87","91736","30.56","DUALSPOT-UV-BLUE-GREEN-RED-IR","727544","695365","901923","14.670645","4.485260","-0.006012","725031","880974","763052","9.645978","2.915704","-0.020580","829412","891851","816584","7.615800","2.215593","-0.040548","827677","912497","864115","5.736551","1.591163","-0.225447","712215","846809","953068","4.159517","1.143790","-0.001964","7819","7379","7185","5552","4911","4633","4181","3481","3194","3010","1783","1312","3208","3190","3182",""
"MA200-0416","26903","78","1","1.10","1.4","2023-05-23T09:39:03","120","2023/05/23","09:39:03","-15.745485842227936","35.0061891656369","0.8","14","30","64","68","-24888","-3280","3804","5","150","149.51","114.36","35.15","30.78","35.8","13.88","91748","30.63","DUALSPOT-UV-BLUE-GREEN-RED-IR","728163","696333","903450","14.754477","4.513506","0.008262","725500","881840","763888","9.690675","2.928217","-0.015120","825919","888287","813409","7.646811","2.224504","-0.013200","828862","913883","865486","5.757797","1.596558","-0.055004","712991","847854","954297","4.175369","1.146514","-0.370750","4305","4720","4903","2897","2639","2527","2251","2105","2045","1863","1539","1415","1936","1082","759",""
"MA200-0416","26904","78","1","1.10","1.4","2023-05-23T09:39:32","120","2023/05/23","09:39:32","-15.745283246040344","35.00611199904233","1.0","14","30","64","68","-22880","-3592","3332","5","150","149.80","114.23","35.57","30.83","35.6","13.86","91756","30.63","DUALSPOT-UV-BLUE-GREEN-RED-IR","728893","697183","904686","14.802347","4.530273","0.010313","726413","883085","765017","9.717625","2.938034","0.020162","829815","892598","817415","7.669092","2.231710","0.006765","828768","913918","865520","5.771602","1.598816","-0.330792","712394","847218","953604","4.188074","1.150419","-0.004342","2461","2769","2904","1748","2046","2175","1619","1682","1707","1212","637","416","1553","1533","1525",""
"MA200-0416","26905","78","1","1.10","1.4","2023-05-23T09:40:03","120","2023/05/23","09:40:03","-15.745118260383606","35.00610533216968","0.2","14","30","64","68","-24244","-308","3680","5","150","150.20","114.29","35.91","30.87","35.5","13.85","91768","30.69","DUALSPOT-UV-BLUE-GREEN-RED-IR","730129","698527","906522","14.833315","4.539457","-0.005919","722446","878406","761001","9.739560","2.943826","-0.030372","826265","888891","814017","7.686258","2.234881","-0.180345","823508","908217","860126","5.784177","1.600616","-0.525861","713478","848619","955175","4.200842","1.153962","-0.045659","1591","1502","1463","1422","1196","1097","1246","733","522","1103","502","273","1560","1378","1309",""
"MA200-0416","26906","78","1","1.10","1.4","2023-05-23T09:40:33","120","2023/05/23","09:40:33","-15.745021164417267","35.0060686650686","0.1","14","30","64","68","-24540","-2024","2508","5","150","149.99","114.12","35.87","30.92","35.4","13.87","91768","30.75","DUALSPOT-UV-BLUE-GREEN-RED-IR","729254","697833","905692","14.861916","4.550573","0.017107","722291","878310","760980","9.758586","2.949947","0.003339","825343","888022","813243","7.701821","2.238285","-0.097475","821547","906151","858189","5.794860","1.602488","-0.272025","712137","847059","953475","4.210783","1.155853","-0.283473","1472","1820","1973","1235","1265","1277","1132","787","646","939","523","364","1216","736","554",""
"MA200-0416","26907","78","1","1.10","1.4","2023-05-23T09:41:02","120","2023/05/23","09:41:02","-15.744884371757507","35.00603349832818","0.8","14","30","64","68","-24792","-1508","4120","5","150","149.31","114.15","35.16","30.96","35.4","13.91","91776","30.75","DUALSPOT-UV-BLUE-GREEN-RED-IR","732240","700836","909706","14.892035","4.560096","0.002478","724247","880826","763210","9.776184","2.952934","-0.184403","827247","890162","815213","7.715459","2.240401","-0.301322","825295","910349","862152","5.805158","1.602583","0.679204","709942","844513","950617","4.224090","1.159852","-0.008241","1549","1591","1609","1142","629","407","991","499","298","905","27","-307","1628","1588","1573",""
"MA200-0416","26908","78","1","1.10","1.4","2023-05-23T09:41:32","120","2023/05/23","09:41:32","-15.744695246219635","35.00595883233473","0.4","14","30","64","68","-24284","-3544","3739","5","150","149.83","114.52","35.31","31.00","35.4","13.93","91788","30.81","DUALSPOT-UV-BLUE-GREEN-RED-IR","726110","695162","902421","14.929743","4.570873","-0.007893","724560","881361","763707","9.801084","2.960086","-0.011080","827598","890662","815729","7.735229","2.245032","-0.066185","826510","911828","863578","5.819731","1.604598","-0.549022","710300","845013","951228","4.235174","1.161513","-0.572722","1934","1792","1730","1611","1501","1453","1433","1088","947","1276","572","304","1352","657","394",""
"MA200-0416","26909","78","1","1.10","1.4","2023-05-23T09:42:02","120","2023/05/23","09:42:02","-15.744677424430847","35.005962999071926","0.0","14","30","64","68","-24932","-1568","1776","5","150","149.70","114.24","35.46","31.06","35.6","14.05","91788","30.88","DUALSPOT-UV-BLUE-GREEN-RED-IR","726677","695855","903416","14.962742","4.580099","-0.011149","725269","882406","764632","9.823879","2.961475","0.777727","827931","891190","816233","7.754189","2.247136","-1.223726","827948","913495","865175","5.833668","1.605081","0.931495","710359","845184","951441","4.249908","1.164172","-0.320318","1696","1528","1454","1479","290","-222","1377","492","131","1224","136","-276","1801","1047","763",""
"MA200-0416","26910","78","1","1.10","1.4","2023-05-23T09:42:32","120","2023/05/23","09:42:32","-15.744594514369965","35.00593149848282","0.8","14","30","64","68","-23764","-2288","4768","5","150","150.14","113.96","36.18","31.10","35.9","14.21","91804","30.88","DUALSPOT-UV-BLUE-GREEN-RED-IR","727745","697101","905180","15.009771","4.595369","0.002103","726168","883728","765843","9.855831","2.970434","-0.020402","828116","891559","816613","7.778383","2.251821","-0.156498","827797","913515","865210","5.852991","1.607328","-1.182001","710396","845328","951613","4.265543","1.167163","-0.283123","2423","2478","2502","2078","1835","1730","1762","1075","794","1701","622","214","1916","1154","868",""
"MA200-0416","26911","78","1","1.10","1.4","2023-05-23T09:43:02","120","2023/05/23","09:43:02","-15.744365692138672","35.005826665554196","1.0","14","30","64","67","-23892","-264","4940","5","150","149.09","113.13","35.96","31.14","35.9","14.28","91820","30.94","DUALSPOT-UV-BLUE-GREEN-RED-IR","727169","696819","904979","15.065296","4.615803","0.012298","721387","878112","761072","9.891818","2.981998","0.001548","827869","891514","816634","7.808972","2.260643","-0.019225","827047","912846","864624","5.874660","1.612609","-0.080688","709797","844753","951041","4.283647","1.172116","-0.055456","2882","3337","3538","2358","2383","2394","2244","2036","1951","1921","1473","1303","2235","1923","1806",""
"MA200-0416","26912","78","1","1.10","1.4","2023-05-23T09:43:32","120","2023/05/23","09:43:32","-15.744208574295044","35.00573383225128","0.4","14","30","64","68","-22955","-2688","4836","5","150","149.45","114.20","35.24","31.20","36.1","14.38","91836","31.00","DUALSPOT-UV-BLUE-GREEN-RED-IR","729857","699628","908805","15.115349","4.633350","0.010846","723452","880844","763496","9.922823","2.990772","-0.013598","825002","888583","814012","7.835866","2.266818","-0.071851","823079","908636","860650","5.895138","1.616489","-0.192676","711749","847169","953814","4.301809","1.177740","0.001066","2574","2924","3079","2012","1845","1773","1955","1454","1250","1799","1104","842","2221","2229","2231",""
"MA200-0416","26913","78","1","1.10","1.4","2023-05-23T09:44:03","120","2023/05/23","09:44:03","-15.743971705436707","35.005611831787974","0.9","14","30","64","68","-24556","-1932","3804","5","150","149.80","114.38","35.42","31.24","36.1","14.43","91852","31.06","DUALSPOT-UV-BLUE-GREEN-RED-IR","730885","700820","910532","15.165911","4.650354","0.007271","724403","882215","764770","9.957612","3.001148","-0.005592","826457","890308","815649","7.860506","2.272134","-0.094633","824543","910366","862321","5.915968","1.620358","-0.207768","712920","848678","955535","4.319401","1.181002","-0.285361","2596","2819","2918","2254","2171","2135","1788","1246","1025","1827","1095","819","2148","1286","962",""
"MA200-0416","26914","78","1","1.10","1.4","2023-05-23T09:44:32","120","2023/05/23","09:44:32","-15.743791162967682","35.0056138318032","0.8","14","30","64","68","-24024","-2572","4340","5","150","149.59","114.29","35.30","31.28","36.1","14.45","91872","31.13","DUALSPOT-UV-BLUE-GREEN-RED-IR","724600","695074","903239","15.223917","4.670810","0.011164","724396","882423","765033","9.994794","3.011119","-0.023216","825972","890020","815426","7.891572","2.280092","-0.039990","825754","911918","863854","5.938674","1.624655","-0.192086","712756","848621","955555","4.339807","1.186089","-0.083226","2980","3404","3591","2411","2094","1957","2256","1871","1715","1993","1221","931","2494","2013","1832",""
"MA200-0416","26915","78","1","1.10","1.4","2023-05-23T09:45:02","120","2023/05/23","09:45:02","-15.743631362915039","35.00570899900049","0.5","14","30","64","67","-25108","-3480","2928","5","150","149.83","114.04","35.79","31.34","36.1","14.53","91896","31.19","DUALSPOT-UV-BLUE-GREEN-RED-IR","723854","694622","902814","15.279915","4.690300","0.008898","719789","877028","760466","10.032178","3.025407","0.023698","825518","889674","815221","7.920880","2.290665","0.021956","824313","910444","862535","5.961347","1.630699","-0.043861","712049","847901","954756","4.360264","1.191874","-0.036106","2884","3198","3337","2430","2959","3188","2133","2452","2582","1994","1694","1581","2505","2258","2164",""
"MA200-0416","26916","78","1","1.10","1.4","2023-05-23T09:45:32","120","2023/05/23","09:45:32","-15.743476629257202","35.00579166598618","0.3","14","30","64","68","-25352","-4656","3532","5","150","149.64","114.21","35.43","31.38","36.1","14.54","91916","31.19","DUALSPOT-UV-BLUE-GREEN-RED-IR","726614","697480","906741","15.335104","4.710647","0.013950","722097","880048","763159","10.067649","3.036684","0.003419","822717","886905","812687","7.949889","2.297473","-0.065528","827519","914175","866082","5.984250","1.635652","-0.119398","709480","844967","951495","4.377992","1.197551","0.009730","2838","3373","3610","2302","2359","2384","2108","1595","1386","2011","1402","1173","2168","2238","2265",""
"MA200-0416","26917","78","1","1.10","1.4","2023-05-23T09:46:02","120","2023/05/23","09:46:02","-15.743286371231079","35.005772665608674","1.0","14","30","64","67","-25088","-3376","2740","5","150","150.29","114.32","35.97","31.44","36.0","14.56","91936","31.25","DUALSPOT-UV-BLUE-GREEN-RED-IR","727217","698305","907963","15.390318","4.732168","0.016654","722023","880156","763342","10.104984","3.050119","0.016886","822979","887311","813186","7.980067","2.308785","0.026578","821874","908040","860349","6.007682","1.643806","0.021179","709918","845620","952271","4.399322","1.202183","-0.168961","2836","3513","3814","2421","2768","2919","2191","2610","2781","2056","2274","2356","2606","1798","1495",""
"MA200-0416","26918","78","1","1.10","1.4","2023-05-23T09:46:33","120","2023/05/23","09:46:33","-15.743203043937683","35.00573883205652","0.9","14","30","64","67","-24328","-5656","1444","5","150","150.36","114.95","35.41","31.49","35.9","14.58","91936","31.25","DUALSPOT-UV-BLUE-GREEN-RED-IR","726178","697545","907174","15.442974","4.750944","0.012002","721787","880069","763359","10.137493","3.059513","-0.009609","826314","891086","816717","8.008320","2.315628","-0.053706","820381","906566","858973","6.028460","1.647460","-0.239215","708775","844338","950901","4.417948","1.206318","-0.141210","2690","3114","3302","2096","1966","1910","2040","1604","1426","1813","1035","742","2263","1631","1393",""
"MA200-0416","26919","78","1","1.10","1.4","2023-05-23T09:47:03","120","2023/05/23","09:47:03","-15.74320137500763","35.0055463318713","0.9","14","30","64","67","-24368","-3996","1068","5","150","150.14","114.38","35.77","31.53","35.8","14.57","91952","31.31","DUALSPOT-UV-BLUE-GREEN-RED-IR","721707","693512","902108","15.496742","4.769796","0.009616","723449","882303","765412","10.171841","3.070634","0.004748","824777","889612","815434","8.034826","2.324295","0.007506","824394","911143","863334","6.048869","1.651805","-0.129438","711189","847370","954350","4.435129","1.211581","-0.006567","2761","3095","3244","2226","2305","2339","1924","2011","2047","1790","1218","1004","2098","2055","2039",""
"MA200-0416","26920","78","1","1.10","1.4","2023-05-23T09:47:33","120","2023/05/23","09:47:33","-15.743294060230255","35.00533366622403","1.0","14","30","64","67","-24753","-4611","2419","5","150","150.43","113.96","36.46","31.58","35.9","14.65","91960","31.38","DUALSPOT-UV-BLUE-GREEN-RED-IR","723062","695212","904536","15.580463","4.796705","0.000418","719970","878417","762109","10.224798","3.084154","-0.039850","824485","889595","815457","8.075750","2.333133","-0.104229","825264","912316","864523","6.076300","1.656776","-0.242943","711337","847694","954729","4.456035","1.215848","-0.222483","4314","4334","4343","3444","2748","2447","2981","2012","1618","2414","1367","975","2562","1634","1286",""
"MA200-0416","26921","78","1","1.10","1.4","2023-05-23T09:48:03","120","2023/05/23","09:48:03","-15.743176698684692","35.005258332472295","0.8","15","30","64","67","-25120","-3207","2164","5","150","149.76","114.68","35.09","31.64","35.9","14.68","91992","31.38","DUALSPOT-UV-BLUE-GREEN-RED-IR","723044","695451","905047","15.638992","4.816219","0.007341","720321","879067","762762","10.261384","3.096426","0.011827","824602","889905","815813","8.104050","2.340131","-0.045550","826462","913802","865941","6.098855","1.662194","-0.068711","711731","848291","955442","4.476162","1.220603","-0.101972","2997","3266","3386","2365","2593","2691","2048","1655","1496","1973","1549","1390","2451","1892","1683",""
"MA200-0416","26922","78","1","1.10","1.4","2023-05-23T09:48:32","120","2023/05/23","09:48:32","-15.743018090724945","35.00515733193606","0.8","15","30","64","67","-23384","-8696","-2252","5","150","150.36","114.64","35.72","31.68","35.8","14.67","91964","31.50","DUALSPOT-UV-BLUE-GREEN-RED-IR","724754","697347","907684","15.693884","4.835436","0.009653","721691","880950","764498","10.296533","3.107841","0.005540","825296","890784","816689","8.132554","2.349424","0.007519","827026","914552","866690","6.118891","1.665926","-0.202040","712091","848826","956081","4.493339","1.223289","-0.482614","2812","3159","3314","2272","2368","2410","2064","2159","2198","1753","1047","784","2093","1050","660",""
"MA200-0416","26923","78","1","1.10","1.4","2023-05-23T09:49:02","120","2023/05/23","09:49:02","-15.742746531963348","35.00518783181906","0.7","15","30","64","67","-20834","-10761","-7646","5","150","150.30","114.31","35.99","31.72","35.8","14.71","91936","31.50","DUALSPOT-UV-BLUE-GREEN-RED-IR","725165","698027","908760","15.753523","4.856621","0.009915","722022","881581","765110","10.333777","3.117443","-0.033921","821505","886926","813225","8.162088","2.355563","-0.112115","821643","908746","861252","6.141405","1.671260","-0.083949","708370","844504","951261","4.512451","1.228190","-0.075883","3064","3456","3631","2415","1977","1788","2145","1415","1120","1976","1486","1303","2335","1902","1739",""
"MA200-0416","26924","78","1","1.10","1.4","2023-05-23T09:49:33","120","2023/05/23","09:49:33","-15.74264907836914","35.00530749838799","0.3","15","30","64","67","-23804","-10940","-4052","5","150","150.03","114.56","35.47","31.76","35.7","14.70","91892","31.56","DUALSPOT-UV-BLUE-GREEN-RED-IR","719838","693157","902593","15.814457","4.878338","0.011340","722547","882478","765980","10.372754","3.130890","0.013560","821903","887546","813847","8.192349","2.364039","-0.018886","822829","910248","862704","6.164336","1.675689","-0.173383","708814","845169","952067","4.531967","1.232796","-0.106971","3124","3596","3806","2522","2810","2935","2193","1984","1899","2008","1252","970","2379","1814","1602",""
"MA200-0416","26925","78","1","1.10","1.4","2023-05-23T09:50:02","120","2023/05/23","09:50:02","-15.742704391479492","35.005489498376846","0.5","15","30","64","67","-24100","-3792","1369","5","150","149.90","114.44","35.46","31.81","35.5","14.69","91904","31.56","DUALSPOT-UV-BLUE-GREEN-RED-IR","720523","694168","904145","15.881990","4.901634","0.008872","718747","878096","762245","10.410835","3.140993","-0.024903","822476","888351","814661","8.222867","2.371775","-0.041733","824032","911763","864166","6.187073","1.680111","-0.168862","709551","846140","953203","4.546650","1.236299","-0.101557","3466","3859","4034","2466","2112","1958","2213","1811","1648","1993","1251","974","1792","1380","1226",""
"MA200-0416","26926","78","1","1.10","1.4","2023-05-23T09:50:32","120","2023/05/23","09:50:32","-15.742715179920197","35.005661164876074","0.8","15","30","64","67","-24242","-7919","2761","5","150","149.49","114.50","34.99","31.84","35.5","14.69","91876","31.63","DUALSPOT-UV-BLUE-GREEN-RED-IR","721439","695284","905763","15.942163","4.922519","0.010297","720028","879839","763838","10.446529","3.151071","-0.011689","822904","889013","815312","8.251250","2.378647","-0.049956","824679","912619","865015","6.208215","1.682942","-0.541661","709772","846520","953644","4.565098","1.239523","-0.312147","3086","3505","3693","2311","2135","2059","2058","1630","1457","1852","811","424","2250","1287","928",""
"MA200-0416","26927","78","1","1.10","1.4","2023-05-23T09:51:03","120","2023/05/23","09:51:03","-15.742635428905487","35.00586133217439","1.2","15","30","64","67","-22608","-11487","-7120","5","150","149.76","114.40","35.36","31.88","35.4","14.71","91856","31.69","DUALSPOT-UV-BLUE-GREEN-RED-IR","722251","696295","907278","15.998283","4.942817","0.012344","720684","880905","764863","10.482337","3.161300","-0.011643","823083","889388","815715","8.278603","2.385484","-0.044427","825400","913556","865920","6.228861","1.687234","-0.130960","709827","846710","953895","4.583050","1.244063","-0.072651","2881","3371","3590","2320","2144","2068","1985","1605","1451","1810","1217","997","2192","1793","1644",""
"MA200-0416","26928","78","1","1.10","1.4","2023-05-23T09:51:32","120","2023/05/23","09:51:32","-15.742492437362671","35.00600649882108","0.9","15","30","64","67","-24552","-5897","247","5","150","150.09","114.44","35.65","31.92","35.3","14.69","91832","31.69","DUALSPOT-UV-BLUE-GREEN-RED-IR","722906","697166","908573","16.052578","4.961334","0.007503","721103","881609","765554","10.515500","3.172105","0.005862","823555","890080","816410","8.306343","2.393191","-0.021602","826704","915138","867456","6.248173","1.692086","-0.057862","706056","842314","949007","4.598995","1.248320","-0.053131","2786","3050","3168","2148","2246","2289","2012","1794","1706","1693","1365","1243","1946","1667","1564",""
"MA200-0416","26929","78","1","1.10","1.4","2023-05-23T09:52:03","120","2023/05/23","09:52:03","-15.742446660995483","35.006204498466104","1.0","15","30","64","66","-23904","-4400","1344","5","150","150.49","114.88","35.61","31.96","35.3","14.73","0","0.00","DUALSPOT-UV-BLUE-GREEN-RED-IR","720909","695501","906560","16.106150","4.980058","0.009669","719589","879930","764183","10.549332","3.183305","0.008394","822199","888762","815259","8.330739","2.400886","0.002871","818118","905769","858634","6.267162","1.696014","-0.133837","709346","846338","953550","4.613544","1.251758","-0.104994","2739","3088","3244","2183","2331","2395","1763","1793","1806","1658","1106","901","1769","1348","1191",""
"MA200-0416","26930","78","1","1.10","1.4","2023-05-23T09:52:32","120","2023/05/23","09:52:32","-15.742550075054169","35.00617149891332","0.9","15","30","64","67","-24416","-2548","2816","5","150","149.37","114.46","34.91","31.99","35.2","14.71","0","0.00","DUALSPOT-UV-BLUE-GREEN-RED-IR","723141","697930","909899","16.158661","4.997833","0.008480","715920","875665","760550","10.582733","3.192581","-0.013934","823671","890579","816971","8.357830","2.407604","-0.042644","820663","908736","861489","6.286519","1.700812","-0.055015","710917","848301","955776","4.628771","1.256379","-0.001546","2694","2990","3122","2163","1969","1885","1965","1597","1448","1696","1378","1260","1858","1848","1845",""
"MA200-0416","26931","78","1","1.10","1.4","2023-05-23T09:53:02","120","2023/05/23","09:53:02","-15.742676734924316","35.006282831542194","0.3","15","30","64","67","-24300","-3666","2020","5","150","149.90","114.88","35.02","32.04","35.1","14.73","91836","31.81","DUALSPOT-UV-BLUE-GREEN-RED-IR","724025","699165","911871","16.233406","5.025066","0.013578","716866","877149","761926","10.623782","3.203804","-0.016292","819676","886487","813333","8.390892","2.416836","-0.015934","821451","909830","862579","6.311824","1.705425","-0.194221","706767","843492","950454","4.649624","1.260866","-0.145530","3821","4567","4902","2648","2376","2258","2389","2188","2107","2209","1321","992","2535","1789","1512",""
"MA200-0416","26932","78","1","1.10","1.4","2023-05-23T09:53:33","120","2023/05/23","09:53:33","-15.742826700210571","35.00638616550714","1.1","15","30","64","67","-24408","-3916","-1808","5","150","150.14","115.04","35.10","32.10","35.1","14.76","0","0.00","DUALSPOT-UV-BLUE-GREEN-RED-IR","717544","693302","904449","16.335070","5.059692","0.008827","716981","877544","762427","10.678843","3.219946","-0.005569","820706","887852","814630","8.435351","2.427112","-0.061184","822614","911332","864048","6.346276","1.712924","-0.101871","707584","844616","951784","4.678177","1.269286","-0.010300","5190","5794","6064","3548","3408","3348","3208","2430","2116","3004","2143","1824","3467","3350","3307",""
"MA200-0416","26933","78","1","1.10","1.4","2023-05-23T09:54:03","120","2023/05/23","09:54:03","-15.742917776107788","35.006562165915966","0.8","15","30","64","66","-23200","-10152","-3133","5","150","150.08","114.46","35.61","32.15","35.1","14.80","0","0.00","DUALSPOT-UV-BLUE-GREEN-RED-IR","717915","693960","905535","16.409254","5.086551","0.011680","717429","878352","763207","10.721644","3.234346","0.009725","820240","887577","814465","8.467789","2.435713","-0.030916","823377","912367","865057","6.371584","1.717108","-0.280894","707559","844720","951949","4.697803","1.272658","-0.338882","3806","4429","4709","2772","2997","3094","2352","2005","1864","2218","1178","795","2395","1322","924",""
"MA200-0416","26934","78","1","1.10","1.4","2023-05-23T09:54:32","120","2023/05/23","09:54:32","-15.743033707141876","35.006753499154","0.5","15","30","64","67","-23032","-8856","-1560","5","150","150.63","114.84","35.79","32.20","35.1","14.86","91828","31.94","DUALSPOT-UV-BLUE-GREEN-RED-IR","718572","694845","906875","16.459215","5.104175","0.009739","718139","879438","764194","10.753416","3.240980","-0.083317","821067","888630","815466","8.492280","2.440082","-0.176755","825049","914377","866989","6.389758","1.719802","-0.397569","708168","845533","952896","4.711773","1.276946","-0.004545","2555","2891","3043","2051","1373","1081","1770","1013","707","1587","755","448","1699","1673","1663",""
"MA200-0416","26935","78","1","1.10","1.4","2023-05-23T09:55:03","120","2023/05/23","09:55:03","-15.74294501543045","35.00687483185902","0.7","15","30","64","66","-24020","-6072","-324","5","150","150.03","114.56","35.47","32.25","35.1","14.87","91812","32.00","DUALSPOT-UV-BLUE-GREEN-RED-IR","720023","696455","909152","16.512091","5.123735","0.013337","718666","880282","765008","10.785311","3.250831","-0.000308","821622","889392","816199","8.518476","2.446734","-0.039623","818644","907394","860403","6.409264","1.723420","-0.189403","708633","846195","953714","4.729723","1.280988","-0.126237","2711","3239","3476","2063","2059","2057","1898","1557","1419","1708","1023","771","2188","1592","1370",""
"MA200-0416","26936","78","1","1.10","1.4","2023-05-23T09:55:32","120","2023/05/23","09:55:32","-15.742957413196564","35.007052666042","0.4","15","30","64","66","-24500","-6915","-1668","5","150","149.99","114.72","35.26","32.30","34.9","14.83","91796","32.00","DUALSPOT-UV-BLUE-GREEN-RED-IR","720956","697548","910711","16.555943","5.140373","0.015327","714525","875347","760798","10.813891","3.261131","0.018318","822112","890096","816909","8.540769","2.453654","0.001619","819011","907902","860911","6.426129","1.727121","-0.099936","708804","846514","954110","4.746122","1.285424","-0.041498","2245","2771","3008","1846","2165","2303","1613","1629","1635","1474","1053","898","1996","1757","1668",""
"MA200-0416","26937","78","1","1.10","1.4","2023-05-23T09:56:02","120","2023/05/23","09:56:02","-15.742977261543274","35.00715649873018","0.9","15","30","64","66","-24252","-4120","1596","5","150","150.14","115.00","35.14","32.33","34.7","14.77","91820","32.06","DUALSPOT-UV-BLUE-GREEN-RED-IR","714414","691413","902830","16.599724","5.157644","0.017880","714713","875740","761209","10.841552","3.271724","0.024545","818182","885913","813166","8.562655","2.461403","0.021256","820714","909915","862874","6.442860","1.731622","-0.030396","709496","847415","955152","4.761842","1.290690","0.024492","2236","2886","3179","1783","2234","2429","1580","1830","1931","1459","1284","1220","1909","2093","2161",""
"MA200-0416","26938","78","1","1.10","1.4","2023-05-23T09:56:32","120","2023/05/23","09:56:32","-15.743118107318878","35.00711366580799","0.5","15","30","64","66","-21740","-8312","2644","5","150","149.96","114.48","35.48","32.38","34.5","14.72","0","0.00","DUALSPOT-UV-BLUE-GREEN-RED-IR","715506","692633","904586","16.642876","5.173994","0.014662","715540","876913","762290","10.869451","3.279918","-0.007449","822784","891066","817951","8.585680","2.468448","-0.002120","821306","910668","863648","6.458615","1.734429","-0.214911","709584","847682","955500","4.777893","1.294828","-0.062777","2213","2706","2928","1806","1712","1671","1669","1648","1639","1380","793","578","1958","1629","1506",""
"MA200-0416","26939","78","1","1.10","1.4","2023-05-23T09:57:02","120","2023/05/23","09:57:02","-15.74327164888382","35.00697866640985","0.5","15","30","64","66","-24680","-6020","472","5","150","149.70","114.76","34.94","32.43","34.3","14.68","0","0.00","DUALSPOT-UV-BLUE-GREEN-RED-IR","714463","691808","903634","16.680407","5.187542","0.012723","714761","876084","761629","10.894154","3.289463","0.025524","818122","886132","813412","8.604253","2.473127","-0.037152","820616","910039","863041","6.473207","1.738393","-0.026699","709114","847175","954960","4.791923","1.299368","0.016576","1920","2277","2438","1595","2024","2210","1343","1111","1018","1275","1138","1087","1707","1815","1855",""
"MA200-0416","26940","78","1","1.10","1.4","2023-05-23T09:57:32","120","2023/05/23","09:57:32","-15.743476927280426","35.00696949893609","0.5","15","30","64","66","-22712","-10320","-3545","5","150","149.86","114.72","35.13","32.48","34.3","14.73","91880","32.19","DUALSPOT-UV-BLUE-GREEN-RED-IR","717544","695152","908240","16.750326","5.212484","0.011529","716838","878922","764190","10.933070","3.299493","-0.026828","820259","888674","815822","8.633716","2.478712","-0.132986","824163","914133","866952","6.493795","1.740551","-1.365139","706828","844524","952024","4.810262","1.303092","-0.178748","3579","4169","4436","2514","2116","1944","2132","1319","992","1800","616","182","2233","1480","1200",""
"MA200-0416","26941","78","1","1.10","1.4","2023-05-23T09:58:02","120","2023/05/23","09:58:02","-15.743694484233856","35.006961666513234","1.1","15","30","64","66","-21044","-7072","-6152","5","150","149.34","114.63","34.71","32.54","34.5","14.87","91860","32.19","DUALSPOT-UV-BLUE-GREEN-RED-IR","718496","696349","910008","16.820730","5.234352","0.002141","718022","880640","765739","10.972345","3.307956","-0.064062","820818","889478","816610","8.663435","2.484583","-0.109692","817874","907319","860505","6.514649","1.743519","-0.401886","707320","845244","952866","4.827156","1.306424","-0.189682","3607","3700","3742","2540","1807","1491","2152","1404","1103","1825","857","504","2058","1341","1074",""
"MA200-0416","26942","78","1","1.10","1.4","2023-05-23T09:58:32","120","2023/05/23","09:58:32","-15.743828654289246","35.00684499973431","0.4","15","30","64","66","-24380","-6436","-3352","5","150","149.40","114.17","35.23","32.58","34.5","14.93","91848","32.25","DUALSPOT-UV-BLUE-GREEN-RED-IR","717297","695361","908824","16.858118","5.248955","0.016514","717317","879891","765125","10.993464","3.315240","0.013125","818991","887625","814914","8.680446","2.490186","0.009937","816375","905738","859034","6.527243","1.745569","-0.278212","705675","843345","950779","4.839615","1.310873","0.036641","1923","2434","2665","1371","1532","1602","1237","1320","1353","1106","583","393","1524","1764","1853",""
"MA200-0416","26943","78","1","1.10","1.4","2023-05-23T09:59:03","120","2023/05/23","09:59:03","-15.744103789329529","35.0068696658127","0.8","15","30","64","66","-25100","-6140","404","5","150","149.70","114.60","35.10","32.64","34.6","15.03","91824","32.31","DUALSPOT-UV-BLUE-GREEN-RED-IR","713399","691714","904156","16.891864","5.260931","0.011090","714330","876369","762113","11.015082","3.319557","-0.090238","820842","889772","816892","8.695365","2.491092","1.045254","819470","909277","862379","6.537918","1.744961","0.400560","707656","845832","953590","4.852848","1.313963","-0.099458","1729","2004","2128","1398","911","701","1080","214","-133","934","-173","-577","1613","1230","1087",""
"MA200-0416","26944","78","1","1.10","1.4","2023-05-23T09:59:33","120","2023/05/23","09:59:33","-15.744307398796082","35.00693699903786","0.5","15","30","64","66","-26063","-7832","-3752","5","150","149.70","114.20","35.50","32.71","34.5","15.03","91812","32.38","DUALSPOT-UV-BLUE-GREEN-RED-IR","714364","693003","906054","16.933770","5.275676","0.009508","714657","877025","762786","11.039199","3.327203","0.002547","817360","886143","813631","8.713443","2.495520","-0.048503","821374","911504","864544","6.550728","1.746851","-0.386005","708245","846602","954535","4.865925","1.317729","-0.023100","2155","2439","2568","1565","1597","1610","1314","1035","923","1125","533","318","1599","1481","1437",""
"MA200-0416","26945","78","1","1.10","1.4","2023-05-23T10:00:03","120","2023/05/23","10:00:03","-15.744495332241058","35.00702149886638","0.8","15","30","64","66","-23656","-8620","-5012","5","150","150.23","114.40","35.83","32.78","34.3","15.00","91776","32.44","DUALSPOT-UV-BLUE-GREEN-RED-IR","714608","693932","907649","17.092140","5.320722","-0.008994","715227","878237","763972","11.129624","3.351814","-0.020717","818221","887458","814955","8.776785","2.510654","-0.056647","823024","913672","866624","6.591023","1.753020","-0.347889","709005","847783","955887","4.902445","1.324756","-0.228451","8131","7385","7047","5859","5092","4761","4596","3507","3070","3533","1727","1073","4459","2740","2103",""
"MA200-0416","26946","78","1","1.10","1.4","2023-05-23T10:00:32","120","2023/05/23","10:00:32","-15.744685769081116","35.00701283244416","1.0","15","30","64","65","-24388","-5164","112","5","150","150.14","114.50","35.64","32.87","34.3","15.07","91748","32.44","DUALSPOT-UV-BLUE-GREEN-RED-IR","714227","693761","907523","17.138820","5.334757","-0.003046","715243","878397","764157","11.154508","3.356243","-0.141716","817098","886377","813984","8.796616","2.512127","1.840185","821468","912016","865015","6.603148","1.751881","0.347678","703499","841226","948524","4.915992","1.327673","-0.148697","2394","2312","2275","1611","921","624","1437","342","-94","1062","-320","-819","1652","1143","954",""
"MA200-0416","26947","78","1","1.10","1.4","2023-05-23T10:01:03","120","2023/05/23","10:01:03","-15.744871973991394","35.00710616540164","0.7","15","30","64","66","-25080","-5776","-1892","5","150","150.70","114.54","36.16","32.96","34.1","15.07","91736","32.56","DUALSPOT-UV-BLUE-GREEN-RED-IR","709772","690375","903792","17.318412","5.398134","0.008451","711601","874877","761469","11.285404","3.397966","0.001230","818286","888439","816214","8.899296","2.544021","-0.002562","817271","907983","861465","6.682039","1.773541","-0.032227","705099","843551","951373","4.973907","1.345189","-0.012239","9209","10296","10788","8471","8554","8590","7442","7323","7276","6909","6010","5685","7063","6767","6657",""
"MA200-0416","26948","78","1","1.10","1.4","2023-05-23T10:01:32","120","2023/05/23","10:01:32","-15.7450430393219","35.00713799893856","0.4","15","30","64","65","-24632","-4564","-959","5","150","149.46","114.38","35.09","33.05","34.0","15.11","91728","32.63","DUALSPOT-UV-BLUE-GREEN-RED-IR","708618","689537","902850","17.417734","5.431638","0.007265","710777","874113","760896","11.354599","3.419107","-0.000505","818409","888825","816585","8.957130","2.558422","-0.039958","817529","908495","861962","6.726923","1.783669","-0.083582","704766","843320","951149","5.011205","1.357395","0.016757","5100","5608","5839","4484","4466","4459","4198","3407","3091","3937","2895","2520","4555","4859","4973",""
"MA200-0416","26949","78","1","1.10","1.4","2023-05-23T10:02:02","120","2023/05/23","10:02:02","-15.74520218372345","35.0071563324891","0.5","15","30","64","66","-24500","-5384","1004","5","150","150.49","114.50","35.99","33.15","34.1","15.23","91716","32.69","DUALSPOT-UV-BLUE-GREEN-RED-IR","713027","693997","908817","17.457094","5.443598","-0.002914","714325","878670","764874","11.375365","3.420122","0.510897","815937","886273","814243","8.971782","2.556836","0.238083","821242","912749","865952","6.736677","1.779496","0.215657","706426","845417","953561","5.025594","1.359642","-0.442520","2019","1951","1921","1344","208","-279","1062","-365","-935","854","-1163","-1887","1755","872","544",""
"MA200-0416","26950","78","1","1.10","1.4","2023-05-23T10:02:33","120","2023/05/23","10:02:33","-15.745382130146027","35.00718099903315","0.4","15","30","64","66","-22854","-7995","-1866","5","150","149.66","114.21","35.45","33.25","34.3","15.39","91708","32.75","DUALSPOT-UV-BLUE-GREEN-RED-IR","714455","695493","910832","17.478426","5.449844","-0.005124","710447","873985","760761","11.386100","3.418279","0.159886","816810","887328","815172","8.980227","2.553903","0.168152","815520","906504","859962","6.741832","1.774227","0.179056","706931","846091","954321","5.035780","1.360583","-5.059838","1097","1034","1006","696","-385","-849","613","-686","-1203","452","-1491","-2185","1245","370","47",""
"MA200-0416","26951","78","1","1.10","1.4","2023-05-23T10:03:02","120","2023/05/23","10:03:02","-15.745543539524078","35.007307165302336","0.9","15","30","64","65","-22968","-6148","-4032","5","150","151.56","114.76","36.80","33.33","34.1","15.38","91700","32.81","DUALSPOT-UV-BLUE-GREEN-RED-IR","707794","689137","902578","17.500908","5.457193","0.001571","710330","873883","760714","11.397653","3.421438","-0.023398","816292","886870","814741","8.989770","2.553098","0.256828","815322","906335","859808","6.746847","1.772075","0.216488","706622","845807","954019","5.051052","1.364604","-0.064306","1150","1173","1183","746","636","589","690","-181","-527","438","-586","-951","1859","1526","1403",""
"MA200-0416","26952","78","1","1.10","1.4","2023-05-23T10:03:32","120","2023/05/23","10:03:32","-15.74562382698059","35.00745483255014","0.4","15","30","64","66","-23800","-6232","-708","5","150","149.33","114.04","35.28","33.43","33.9","15.36","91696","32.88","DUALSPOT-UV-BLUE-GREEN-RED-IR","711237","692631","907287","17.536754","5.469665","0.008740","712591","876849","763334","11.417035","3.425104","-0.109360","818494","889367","817067","9.004194","2.554910","-0.539515","820433","912112","865301","6.755132","1.770001","0.250020","704465","843319","951276","5.065166","1.367292","-0.219517","1846","2076","2180","1259","770","560","1050","426","179","728","-589","-1057","1728","1064","818",""
"MA200-0416","26953","78","1","1.10","1.4","2023-05-23T10:04:02","120","2023/05/23","10:04:02","-15.745548844337463","35.00768049899489","0.8","15","30","64","65","-24984","-7268","-304","5","150","150.42","114.25","36.17","33.49","33.6","15.29","91696","33.00","DUALSPOT-UV-BLUE-GREEN-RED-IR","713448","694955","910405","17.571336","5.482582","0.011793","714742","879584","765783","11.434340","3.429920","-0.018256","815283","885987","813991","9.016920","2.556210","-1.918053","821759","913695","866757","6.764260","1.767218","0.237031","704924","843978","952056","5.079431","1.369632","-0.381549","1777","2097","2242","1122","987","928","924","298","50","801","-772","-1328","1744","903","593",""
"MA200-0416","26954","78","1","1.10","1.4","2023-05-23T10:04:33","120","2023/05/23","10:04:33","-15.745491683483124","35.007923332974315","0.8","15","30","64","65","-24366","-4050","-254","5","150","149.90","114.24","35.66","33.56","33.4","15.24","91696","33.06","DUALSPOT-UV-BLUE-GREEN-RED-IR","707436","689455","903511","17.644852","5.508306","0.008488","709939","874056","761053","11.482565","3.442997","-0.020078","815428","886418","814464","9.056253","2.566772","-0.026725","816151","907680","861137","6.795133","1.773625","-0.122062","705532","844887","953145","5.108946","1.377486","-0.049503","3779","4237","4445","3129","2718","2543","2858","2459","2301","2711","1802","1482","3609","3076","2880",""
"MA200-0416","26955","78","1","1.10","1.4","2023-05-23T10:05:02","120","2023/05/23","10:05:02","-15.74540913105011","35.00812566559762","0.5","15","30","64","66","-24944","-6212","-859","5","150","150.62","114.36","36.26","33.62","33.1","15.18","91692","33.13","DUALSPOT-UV-BLUE-GREEN-RED-IR","709468","691811","906816","17.727144","5.536146","0.004999","711569","876366","763214","11.540733","3.460807","-0.004483","816313","887658","815716","9.102536","2.578460","-0.043588","818003","910008","863388","6.829965","1.781046","-0.116856","706121","845820","954275","5.140074","1.384761","-0.109362","4226","4509","4637","3770","3640","3585","3360","2675","2405","3055","2053","1699","3802","2802","2434",""
"MA200-0416","26956","78","1","1.10","1.4","2023-05-23T10:05:33","120","2023/05/23","10:05:33","-15.745175540447235","35.00809083227068","1.8","15","30","64","65","-23736","-3148","2524","5","150","149.76","114.16","35.60","33.68","33.0","15.17","91700","33.19","DUALSPOT-UV-BLUE-GREEN-RED-IR","710117","693018","908857","17.831988","5.574682","0.011566","712235","877780","764710","11.616374","3.486002","0.007630","816799","888713","816897","9.165765","2.598875","0.005121","819066","911601","865047","6.878391","1.794004","-0.034566","706504","846587","955240","5.179260","1.394458","-0.076060","5394","6357","6795","4911","5246","5389","4598","4760","4824","4255","3651","3438","4795","3804","3439",""
"MA200-0416","26957","78","1","1.10","1.4","2023-05-23T10:06:02","120","2023/05/23","10:06:02","-15.744931101799011","35.00800316594541","0.8","15","30","64","65","-23920","-3987","2448","5","150","149.63","114.44","35.19","33.73","32.7","15.09","91720","33.25","DUALSPOT-UV-BLUE-GREEN-RED-IR","704855","688122","902559","17.921670","5.606729","0.010646","713163","879088","765920","11.674787","3.506935","0.016375","814076","885868","814340","9.211664","2.613353","0.003769","814783","906960","860685","6.913832","1.803922","-0.020044","703683","843287","951572","5.206405","1.402772","-0.001060","4602","5348","5688","3783","4409","4678","3329","3415","3449","3107","2827","2728","3313","3300","3295",""
"MA200-0416","26958","78","1","1.10","1.4","2023-05-23T10:06:32","120","2023/05/23","10:06:32","-15.744828045368195","35.00809716526419","0.2","15","30","64","66","-24928","-6208","884","5","150","149.73","114.19","35.54","33.78","32.6","15.06","91720","33.38","DUALSPOT-UV-BLUE-GREEN-RED-IR","706198","689855","905178","18.009264","5.638777","0.011303","708766","873943","761545","11.719632","3.520650","-0.002170","814642","886735","815221","9.246860","2.622931","-0.022999","816199","908684","862376","6.935442","1.807933","-0.173335","704257","844095","952493","5.224642","1.406066","-0.258036","4505","5296","5656","2911","2860","2839","2558","2237","2110","1898","1132","862","2230","1294","950",""
"MA200-0416","26959","78","1","1.10","1.4","2023-05-23T10:07:02","120","2023/05/23","10:07:02","-15.744884848594666","35.00831899885088","0.4","15","30","64","65","-23380","-7447","-2796","5","150","150.09","113.92","36.17","33.82","32.5","15.06","91704","33.38","DUALSPOT-UV-BLUE-GREEN-RED-IR","707333","691153","907037","18.059392","5.656372","0.007374","709576","875096","762609","11.749838","3.529276","-0.014309","815196","887460","815953","9.271341","2.628749","-0.058372","817535","910304","863930","6.953795","1.811867","-0.112719","704942","845022","953573","5.239294","1.409363","-0.126479","2584","2857","2981","1965","1767","1682","1784","1335","1157","1616","1091","906","1796","1273","1080",""
"MA200-0416","26960","78","1","1.10","1.4","2023-05-23T10:07:33","120","2023/05/23","10:07:33","-15.744909644126892","35.00846299901605","0.8","15","30","64","65","-24803","-3746","-673","5","150","150.59","114.29","36.29","33.87","32.6","15.14","91692","33.44","DUALSPOT-UV-BLUE-GREEN-RED-IR","707616","692165","908867","18.194758","5.703602","0.006910","710187","876458","763997","11.824893","3.549547","-0.022968","815443","888224","816771","9.331327","2.643704","-0.045894","818379","911686","865333","6.999761","1.820593","-0.170125","705199","845579","954293","5.273292","1.415820","-0.231331","6956","7643","7956","4868","4140","3828","4357","3421","3050","4034","2412","1841","4155","2485","1871",""
"MA200-0416","26961","78","1","1.10","1.4","2023-05-23T10:08:02","120","2023/05/23","10:08:02","-15.744912326335907","35.00858583115041","0.8","15","30","64","65","-24228","-5704","168","5","150","149.96","114.32","35.64","33.93","32.7","15.24","91688","33.50","DUALSPOT-UV-BLUE-GREEN-RED-IR","707895","692712","909796","18.280902","5.733087","0.006825","710952","877673","765103","11.876206","3.563184","-0.022492","812421","885164","813983","9.371140","2.652269","-0.081267","812734","905525","859527","7.029647","1.826310","-0.155446","705816","846451","955306","5.297197","1.421470","-0.093201","4426","4859","5056","3327","2836","2626","2891","1995","1641","2622","1609","1253","2921","2214","1955",""
"MA200-0416","26962","78","1","1.10","1.4","2023-05-23T10:08:32","120","2023/05/23","10:08:32","-15.744839131832123","35.00875649880618","0.8","15","30","64","65","-23872","-4788","784","5","150","149.63","114.40","35.23","33.97","32.6","15.24","91684","33.56","DUALSPOT-UV-BLUE-GREEN-RED-IR","702641","687797","903521","18.334550","5.752741","0.011804","711381","878392","765805","11.908307","3.573806","0.008075","813409","886360","815172","9.396452","2.659052","-0.023550","813769","906791","860791","7.048849","1.830214","-0.120400","702338","842377","950745","5.311968","1.424567","-0.145683","2754","3276","3515","2080","2235","2301","1836","1598","1504","1684","1111","910","1803","1227","1016",""
"MA200-0416","26963","78","1","1.10","1.4","2023-05-23T10:09:03","120","2023/05/23","10:09:03","-15.744702696800232","35.00893333274871","0.3","15","30","64","65","-25412","-4160","1280","5","150","149.85","114.06","35.80","34.02","32.4","15.17","91684","33.56","DUALSPOT-UV-BLUE-GREEN-RED-IR","703735","689070","905306","18.377450","5.768696","0.011554","707257","873404","761567","11.934694","3.584064","0.021304","813530","886638","815493","9.416716","2.666503","0.020508","814975","908242","862174","7.063400","1.833528","-0.083342","702617","842795","951240","5.323665","1.427741","-0.042698","2209","2617","2804","1715","2124","2299","1475","1728","1828","1279","928","805","1432","1238","1167",""
"MA200-0416","26964","78","1","1.10","1.4","2023-05-23T10:09:32","120","2023/05/23","10:09:32","-15.744455873966217","35.00886916462332","1.3","15","30","64","65","-25044","-3887","712","5","150","149.87","113.88","35.99","34.06","32.3","15.17","91716","33.63","DUALSPOT-UV-BLUE-GREEN-RED-IR","704923","690413","907197","18.416054","5.783794","0.013968","708610","875250","763237","11.961037","3.591198","-0.021480","813567","886819","815683","9.436972","2.671223","-0.061245","815768","909246","863137","7.078586","1.835590","-0.472849","702785","843078","951601","5.335560","1.429920","-0.252727","1991","2464","2680","1714","1469","1364","1476","1088","935","1337","574","307","1459","845","621",""
"MA200-0416","26965","78","1","1.10","1.4","2023-05-23T10:10:02","120","2023/05/23","10:10:02","-15.744214713573456","35.00882633123547","0.6","15","30","64","65","-23368","-3752","984","5","150","150.43","114.46","35.97","34.09","32.2","15.14","91752","33.63","DUALSPOT-UV-BLUE-GREEN-RED-IR","705712","691385","908672","18.467284","5.801544","0.007042","709282","876256","764158","11.991392","3.601856","0.011963","814589","888062","816901","9.463435","2.679639","0.001738","816791","910521","864375","7.095350","1.839321","-0.091550","703466","843975","952629","5.348791","1.433688","-0.027481","2628","2898","3021","1966","2196","2295","1919","1942","1951","1469","1040","890","1614","1463","1407",""
"MA200-0416","26966","78","1","1.10","1.4","2023-05-23T10:10:33","120","2023/05/23","10:10:33","-15.744016706943512","35.00883783213794","0.4","15","30","64","64","-24316","-4332","1196","5","150","149.92","113.89","36.03","34.14","32.0","15.11","91764","33.69","DUALSPOT-UV-BLUE-GREEN-RED-IR","704232","690168","907194","18.518638","5.820316","0.009972","708035","874893","763077","12.023480","3.611477","-0.006731","810325","883560","812829","9.486977","2.685778","-0.034254","816456","910270","864186","7.114148","1.843315","-0.112010","702863","843347","951950","5.362438","1.435840","-0.405321","2648","3059","3248","2088","1979","1932","1716","1414","1295","1656","1111","921","1673","834","527",""
"MA200-0416","26967","78","1","1.10","1.4","2023-05-23T10:11:03","120","2023/05/23","10:11:03","-15.743921041488647","35.008821497671306","0.4","15","30","64","65","-24836","-3244","916","5","150","149.94","114.21","35.73","34.17","32.0","15.12","0","0.00","DUALSPOT-UV-BLUE-GREEN-RED-IR","706620","692707","910695","18.564148","5.837194","0.011477","709960","877508","765398","12.052634","3.619981","-0.008832","811454","884964","814128","9.509675","2.691619","-0.034550","818679","912842","866649","7.130906","1.847404","-0.059221","703991","844779","953633","5.377516","1.440146","-0.025095","2340","2774","2974","1892","1764","1710","1649","1357","1241","1472","1148","1035","1844","1683","1624",""
"MA200-0416","26968","78","1","1.10","1.4","2023-05-23T10:11:32","120","2023/05/23","10:11:32","-15.74381947517395","35.00880916416645","0.9","15","30","64","65","-24854","-6883","3137","5","150","149.96","114.00","35.96","34.20","32.1","15.21","0","0.00","DUALSPOT-UV-BLUE-GREEN-RED-IR","700780","687215","903632","18.609388","5.851267","-0.001109","710375","878182","766050","12.083468","3.627313","-0.044936","812313","886084","815207","9.534304","2.695918","-0.173215","812481","906094","860258","7.150543","1.850545","-0.277543","704937","846032","955018","5.391275","1.442203","-0.472627","2330","2298","2283","2005","1511","1299","1793","992","676","1728","876","579","1686","799","475",""
"MA200-0416","26969","78","1","1.10","1.4","2023-05-23T10:12:02","120","2023/05/23","10:12:02","-15.74361938238144","35.00872383080423","0.7","15","30","64","65","-25338","-3415","953","5","150","150.35","114.13","36.23","34.22","32.2","15.26","91776","33.81","DUALSPOT-UV-BLUE-GREEN-RED-IR","701540","688162","905033","18.660316","5.871189","0.013571","706080","873049","761669","12.115456","3.639120","0.015590","812262","886199","815400","9.560710","2.704751","0.007305","813017","906835","861020","7.168810","1.854699","-0.086397","705020","846229","955282","5.406440","1.445746","-0.104203","2621","3230","3509","2077","2416","2561","1920","2024","2065","1605","1150","991","1856","1366","1187",""
"MA200-0416","26970","78","1","1.10","1.4","2023-05-23T10:12:33","120","2023/05/23","10:12:33","-15.743435204029083","35.00859516579658","1.0","15","30","64","64","-25344","-3787","1816","5","150","147.77","114.00","33.77","34.25","32.2","15.28","91804","33.88","DUALSPOT-UV-BLUE-GREEN-RED-IR","700420","687266","904053","18.711560","5.891357","0.017329","705145","872100","760944","12.150260","3.652526","0.024728","811781","885839","815146","9.587362","2.714174","0.022181","811865","905688","859974","7.189352","1.861864","0.026878","700051","840324","948677","5.420669","1.450104","0.008202","2640","3508","3906","2263","2943","3235","1940","2316","2465","1807","2128","2240","1743","1802","1824",""
"MA200-0416","26971","78","1","1.10","1.4","2023-05-23T10:13:02","120","2023/05/23","10:13:02","-15.743213534355164","35.00856283213943","0.7","14","30","64","64","-24892","-7036","-3236","5","150","150.43","113.85","36.58","34.27","32.1","15.28","91808","33.88","DUALSPOT-UV-BLUE-GREEN-RED-IR","702437","689450","907122","18.762466","5.911285","0.012887","706637","874100","762760","12.180404","3.662044","-0.002063","812856","887151","816399","9.613220","2.723300","0.012567","815186","909490","863645","7.207814","1.866829","-0.039101","701528","842197","950787","5.432895","1.453025","-0.099081","2626","3199","3463","1962","1929","1914","1885","2071","2144","1626","1361","1269","1500","1115","975",""
"MA200-0416","26972","78","1","1.10","1.4","2023-05-23T10:13:32","120","2023/05/23","10:13:32","-15.743098497390747","35.008525831624866","0.4","14","30","64","64","-20204","-10488","-8912","5","150","150.70","114.38","36.32","34.29","32.0","15.23","91784","33.88","DUALSPOT-UV-BLUE-GREEN-RED-IR","703027","690248","908276","18.808624","5.927147","0.005692","706981","874681","763353","12.210529","3.673977","0.021398","810365","884543","814080","9.634485","2.729183","-0.022742","816311","910832","864976","7.223401","1.872038","0.009160","702368","843291","952055","5.445312","1.456296","-0.055779","2370","2564","2654","1952","2435","2643","1543","1344","1266","1367","1438","1464","1516","1257","1163",""
"MA200-0416","26973","78","1","1.10","1.4","2023-05-23T10:14:02","120","2023/05/23","10:14:02","-15.742909133434296","35.008511831983924","0.4","14","30","64","64","-24532","-5392","1740","5","150","149.87","113.71","36.16","34.31","32.0","15.23","91776","33.94","DUALSPOT-UV-BLUE-GREEN-RED-IR","703306","690703","909067","18.855376","5.946501","0.016231","707210","875147","763843","12.241077","3.683162","-0.006883","810024","884304","813922","9.659600","2.737772","0.009866","816632","911354","865509","7.241881","1.877176","-0.028206","702316","843304","952102","5.458490","1.459780","-0.054671","2414","3143","3479","1991","1883","1836","1833","1972","2026","1630","1425","1353","1618","1346","1246",""
"MA200-0416","26974","78","1","1.10","1.4","2023-05-23T10:14:33","120","2023/05/23","10:14:33","-15.742621958255768","35.008492664434016","0.9","14","30","64","64","-22303","-8665","-4696","5","150","149.63","114.04","35.59","34.33","32.0","15.27","91744","33.94","DUALSPOT-UV-BLUE-GREEN-RED-IR","703835","691439","910201","18.899668","5.961502","0.005861","708059","876400","764996","12.270720","3.692609","0.002400","813521","888292","817647","9.681834","2.743435","-0.035643","816472","911259","865459","7.259304","1.880526","-0.148136","702158","843158","951987","5.469354","1.461651","-0.287859","2281","2475","2565","1926","1967","1985","1618","1321","1203","1532","944","738","1330","734","516",""
