"Serial number","Datum ID","Session ID","Data format version","Firmware version","App version","Date / time local","Timezone offset (mins)","Date local (yyyy/MM/dd)","Time local (hh:mm:ss)","GPS lat (ddmm.mmmmm)","GPS long (dddmm.mmmmm)","GPS speed (km/h)","GPS sat count","Timebase (s)","Status","Battery remaining (%)","Accel X","Accel Y","Accel Z","Tape position","Flow setpoint (mL/min)","Flow total (mL/min)","Flow1 (mL/min)","Flow2 (mL/min)","Sample temp (C)","Sample RH (%)","Sample dewpoint (C)","Internal pressure (Pa)","Internal temp (C)","Optical config","UV Sen1","UV Sen2","UV Ref","UV ATN1","UV ATN2","UV K","Blue Sen1","Blue Sen2","Blue Ref","Blue ATN1","Blue ATN2","Blue K","Green Sen1","Green Sen2","Green Ref","Green ATN1","Green ATN2","Green K","Red Sen1","Red Sen2","Red Ref","Red ATN1","Red ATN2","Red K","IR Sen1","IR Sen2","IR Ref","IR ATN1","IR ATN2","IR K","UV BC1","UV BC2","UV BCc","Blue BC1","Blue BC2","Blue BCc","Green BC1","Green BC2","Green BCc","Red BC1","Red BC2","Red BCc","IR BC1","IR BC2","IR BCc","Readable status"
"MA200-0416","50444","110","1","1.10","1.6","2023-07-19T14:40:00","120","2023/07/19","14:40:00","-15.785163044929504","35.03710098937154","0.5","15","300","66","63","-1340","-4996","-26063","2","150","149.76","114.34","35.42","32.46","35.3","15.15","89540","31.50","DUALSPOT-UV-BLUE-GREEN-RED-IR","834891","728211","906242","0.000000","0.000000","0.000000","807432","922720","777462","0.000000","0.000000","0.000000","886747","910314","814768","0.000000","0.000000","0.000000","867571","924345","858764","0.000000","0.000000","0.000000","737808","856108","954666","0.000000","0.000000","0.000000","","","","","","","","","","","","","","","","Start up-DualSpot on"
"MA200-0416","50445","110","1","1.10","1.6","2023-07-19T14:45:00","120","2023/07/19","14:45:00","0","0","0.0","15","300","66","62","-1364","-4840","-26203","2","150","150.29","114.84","35.46","32.10","31.8","13.21","89520","31.19","DUALSPOT-UV-BLUE-GREEN-RED-IR","822876","721958","900825","0.000000","0.000000","0.000000","788706","904518","763557","0.000000","0.000000","0.000000","881412","907295","813341","0.000000","0.000000","0.000000","868829","927537","862816","0.000000","0.000000","0.000000","736004","855043","954021","0.000000","0.000000","0.000000","","","","","","","","","","","","","","","","Start up-DualSpot on"
"MA200-0416","50446","110","1","1.10","1.6","2023-07-19T14:50:00","120","2023/07/19","14:50:00","0","0","0.0","14","300","64","62","-1352","-4820","-26236","2","150","149.96","115.08","34.89","31.82","30.9","12.55","89516","31.00","DUALSPOT-UV-BLUE-GREEN-RED-IR","824072","727827","910799","0.000000","0.000000","0.000000","785050","904153","764668","0.000000","0.000000","0.000000","878455","907167","814458","0.000000","0.000000","0.000000","866159","926883","863280","0.000000","0.000000","0.000000","736021","856219","955910","0.000000","0.000000","0.000000","","","","","","","","","","","","","","","","DualSpot on"
"MA200-0416","50447","110","1","1.10","1.6","2023-07-19T14:55:00","120","2023/07/19","14:55:00","0","0","0.0","14","300","64","61","-1456","-4804","-26096","2","150","150.69","115.99","34.70","31.59","30.5","12.17","89520","30.88","DUALSPOT-UV-BLUE-GREEN-RED-IR","806958","719029","903151","1.259802","0.376600","0.000000","780150","903191","765565","0.743842","0.220895","0.000000","875232","907365","816038","0.561982","0.171763","0.000000","857628","920307","858270","0.407700","0.128656","0.000000","732704","853713","953690","0.220314","0.062117","0.000000","6379","6374","6379","4754","4719","4754","4022","4109","4022","3526","3719","3526","2653","2500","2653","DualSpot on"
"MA200-0416","50448","110","1","1.10","1.6","2023-07-19T15:00:00","120","2023/07/19","15:00:00","0","0","0.0","14","300","64","60","-1428","-4756","-26116","2","150","149.84","115.61","34.24","31.41","30.2","11.83","89516","30.69","DUALSPOT-UV-BLUE-GREEN-RED-IR","803277","720194","907210","2.160923","0.660764","0.000000","772866","898214","762647","1.305300","0.397098","0.000000","868629","903180","813400","0.993686","0.308221","0.000000","856958","921544","860319","0.724751","0.233316","0.000000","729105","850522","950635","0.393697","0.114997","0.000000","4578","4874","4578","3600","3815","3600","3100","3308","3100","2751","3066","2751","2095","2157","2095","DualSpot on"
"MA200-0416","50449","110","1","1.10","1.6","2023-07-19T15:05:00","120","2023/07/19","15:05:00","0","0","0.0","13","300","64","60","-1428","-4788","-26088","2","150","149.33","115.47","33.85","31.25","30.1","11.67","0","0.00","DUALSPOT-UV-BLUE-GREEN-RED-IR","797453","719915","909584","3.153045","0.960197","0.012908","768861","897561","763537","1.937460","0.582992","0.000000","866378","903932","815236","1.481073","0.453990","0.000000","857365","924327","863879","1.089989","0.344019","0.000000","729932","852769","953712","0.599453","0.172694","0.000000","5046","5195","5260","4058","4070","4058","3504","3575","3504","3173","3280","3173","2489","2380","2489","DualSpot on"
"MA200-0416","50450","110","1","1.10","1.6","2023-07-19T15:10:00","120","2023/07/19","15:10:00","0","0","0.0","13","300","64","60","-1484","-4684","-26060","2","150","149.73","115.59","34.14","31.11","30.0","11.50","0","0.00","DUALSPOT-UV-BLUE-GREEN-RED-IR","786072","714187","905002","4.085905","1.256612","0.024109","765706","897756","765180","2.565753","0.777084","0.000000","859772","900095","813004","1.976400","0.607633","0.000000","849945","918697","859623","1.464003","0.460577","0.000000","726638","850216","951460","0.818267","0.236585","0.000000","4740","5099","5258","4029","4214","4029","3557","3735","3557","3246","3424","3246","2644","2614","2644","DualSpot on"
"MA200-0416","50451","110","1","1.10","1.6","2023-07-19T15:15:00","120","2023/07/19","15:15:00","-15.785036742687225","35.036953158676624","0.7","14","300","64","59","-1364","-4696","-26068","2","150","149.37","115.18","34.19","30.99","29.9","11.35","89516","30.31","DUALSPOT-UV-BLUE-GREEN-RED-IR","775222","708619","900512","4.984696","1.545808","0.021758","758034","892545","762180","3.181576","0.967086","0.016826","857954","901251","815347","2.469843","0.760936","0.000000","849501","920586","862391","1.838284","0.576740","0.000000","727093","852114","954182","1.037879","0.300076","0.000000","4583","4967","5140","3963","4119","4187","3556","3722","3556","3260","3408","3260","2663","2594","2663","DualSpot on"
"MA200-0416","50452","110","1","1.10","1.6","2023-07-19T15:20:00","120","2023/07/19","15:20:00","0","0","0.0","14","300","64","59","-1412","-4624","-26196","2","150","150.43","116.19","34.24","30.87","29.8","11.16","89512","30.19","DUALSPOT-UV-BLUE-GREEN-RED-IR","774947","712156","907583","5.801605","1.826572","0.033686","757687","895553","766187","3.755391","1.158464","0.042658","853225","899053","814591","2.931070","0.912720","0.000000","845774","918693","861619","2.190726","0.692415","0.000000","725598","851571","954209","1.248300","0.365467","0.000000","4129","4816","5132","3661","4144","4359","3295","3680","3295","3043","3389","3043","2529","2668","2529","DualSpot on"
"MA200-0416","50453","110","1","1.10","1.6","2023-07-19T15:25:00","120","2023/07/19","15:25:00","0","0","0.0","14","300","64","58","-1480","-4720","-26156","2","150","150.09","115.91","34.18","30.74","29.5","10.90","89512","30.13","DUALSPOT-UV-BLUE-GREEN-RED-IR","764051","705686","901749","6.572527","2.096309","0.032698","749193","888783","761825","4.309704","1.344509","0.038783","850595","899018","815784","3.384154","1.063365","0.046300","846024","921160","864917","2.541453","0.808363","0.000000","722061","848607","951487","1.456302","0.429053","0.000000","3906","4634","4975","3545","4034","4256","3245","3658","3848","3035","3403","3035","2506","2598","2506","DualSpot on"
"MA200-0416","50454","110","1","1.10","1.6","2023-07-19T15:30:00","120","2023/07/19","15:30:00","0","0","0.0","13","300","64","58","-1504","-4652","-26224","2","150","149.67","115.56","34.11","30.66","29.3","10.77","89516","30.06","DUALSPOT-UV-BLUE-GREEN-RED-IR","762477","707885","907107","7.370153","2.375101","0.029004","747494","890212","764521","4.886939","1.535827","0.031119","844833","895769","814104","3.860414","1.219952","0.037006","839734","916623","861698","2.915136","0.929641","0.000000","719258","846758","950029","1.690456","0.498538","0.000000","4054","4801","5156","3702","4158","4367","3421","3811","3991","3244","3567","3244","2830","2845","2830","DualSpot on"
"MA200-0416","50455","110","1","1.10","1.6","2023-07-19T15:35:00","120","2023/07/19","15:35:00","0","0","0.0","13","300","64","58","-1488","-4632","-26160","2","150","150.30","115.75","34.55","30.54","29.3","10.64","89512","29.94","DUALSPOT-UV-BLUE-GREEN-RED-IR","755506","704779","905478","8.108404","2.638372","0.027631","743011","888005","763998","5.419469","1.717609","0.032064","841218","894549","814193","4.298174","1.366156","0.034546","835165","913704","859916","3.255836","1.042288","0.042012","721666","850834","955245","1.899519","0.563014","0.000000","3746","4475","4827","3410","3900","4127","3139","3513","3687","2953","3271","3420","2523","2606","2523","DualSpot on"
"MA200-0416","50456","110","1","1.10","1.6","2023-07-19T15:40:00","120","2023/07/19","15:40:00","0","0","0.0","13","300","64","57","-1456","-4620","-26219","2","150","149.87","116.21","33.66","30.44","29.2","10.48","0","0.00","DUALSPOT-UV-BLUE-GREEN-RED-IR","752332","704833","907902","8.800102","2.898132","0.034848","740095","887299","764791","5.916867","1.895368","0.043276","839955","895548","816272","4.703855","1.509017","0.051275","836143","916623","863646","3.572457","1.153481","0.066877","717886","847417","952024","2.089166","0.626338","0.000000","3496","4533","5042","3173","3915","4265","2898","3523","3819","2733","3314","3591","2279","2628","2279","DualSpot on"
"MA200-0416","50457","110","1","1.10","1.6","2023-07-19T15:45:00","120","2023/07/19","15:45:00","0","0","0.0","14","300","64","57","-1452","-4652","-26016","2","150","149.96","115.63","34.33","30.34","29.2","10.43","0","0.00","DUALSPOT-UV-BLUE-GREEN-RED-IR","746542","702149","906587","9.429213","3.132045","0.029088","736070","885112","764121","6.376194","2.056099","0.032726","836238","893806","815737","5.082971","1.641333","0.040514","832932","914905","862883","3.866989","1.255315","0.050674","716502","846807","951881","2.268638","0.682922","0.000000","3195","4002","4403","2944","3470","3721","2722","3199","3427","2555","2976","3178","2168","2302","2168","DualSpot on"
"MA200-0416","50458","110","1","1.10","1.6","2023-07-19T15:50:00","120","2023/07/19","15:50:00","0","0","0.0","14","300","64","56","-1380","-4776","-26403","2","150","150.24","115.56","34.68","30.24","29.2","10.33","89528","29.63","DUALSPOT-UV-BLUE-GREEN-RED-IR","740066","699135","905153","10.137865","3.401794","0.028392","730997","881881","762755","6.888946","2.242076","0.034307","832001","891692","815036","5.504572","1.790732","0.038417","833882","917922","866698","4.195255","1.369863","0.046428","714091","845104","950628","2.471193","0.751699","0.000000","3601","4569","5057","3289","3975","4307","3028","3576","3841","2849","3314","3539","2448","2770","2448","DualSpot on"
"MA200-0416","50459","110","1","1.10","1.6","2023-07-19T15:55:00","120","2023/07/19","15:55:00","0","0","0.0","14","300","64","56","-1428","-4604","-26460","2","150","149.83","115.71","34.12","30.16","29.0","10.14","0","0.00","DUALSPOT-UV-BLUE-GREEN-RED-IR","738832","701112","910168","10.855629","3.672338","0.027277","729638","883325","765433","7.423683","2.432066","0.031474","826852","888756","813626","5.951082","1.946562","0.036027","828958","914588","864622","4.548843","1.489567","0.039692","711541","843384","949345","2.692499","0.822239","0.000000","3643","4657","5176","3425","4128","4470","3203","3792","4078","3065","3520","3741","2671","2888","2671","DualSpot on"
"MA200-0416","50460","110","1","1.10","1.6","2023-07-19T16:00:00","120","2023/07/19","16:00:00","0","0","0.0","14","300","64","56","-1584","-4456","-26588","2","150","149.90","115.87","34.02","30.09","28.8","10.01","0","0.00","DUALSPOT-UV-BLUE-GREEN-RED-IR","731933","697401","907674","11.525368","3.933296","0.028779","724616","880004","763967","7.922870","2.615036","0.034124","826814","891088","816943","6.365281","2.093476","0.037159","824254","911342","862526","4.875778","1.604670","0.046912","713629","847023","954097","2.898750","0.889757","0.000000","3394","4504","5079","3193","3986","4377","2967","3584","3887","2830","3393","3670","2486","2772","2486","DualSpot on"
"MA200-0416","50461","110","1","1.10","1.6","2023-07-19T16:05:00","120","2023/07/19","16:05:00","0","0","0.0","14","300","64","55","-1458","-4666","-26083","2","150","150.43","115.99","34.43","30.04","28.8","9.95","0","0.00","DUALSPOT-UV-BLUE-GREEN-RED-IR","726131","694508","906179","12.153065","4.181310","0.027593","720360","877308","762882","8.373094","2.781427","0.032046","823120","889191","816319","6.737214","2.227854","0.036342","820740","909185","861391","5.167636","1.707565","0.042347","711832","845884","953375","3.076809","0.949367","0.050665","3178","4230","4782","2877","3582","3932","2662","3239","3525","2524","2997","3231","2144","2418","2540","DualSpot on"
"MA200-0416","50462","110","1","1.10","1.6","2023-07-19T16:10:00","120","2023/07/19","16:10:00","0","0","0.0","14","300","64","55","-1491","-4691","-26004","2","150","149.73","115.67","34.06","29.97","28.7","9.85","0","0.00","DUALSPOT-UV-BLUE-GREEN-RED-IR","719476","690988","904021","12.835472","4.453090","0.027311","720128","879741","766351","8.858292","2.959638","0.030574","818989","887013","815493","7.133228","2.370608","0.035238","822821","913307","866217","5.475820","1.815712","0.040703","709584","844304","952208","3.270971","1.013649","0.046665","3465","4686","5335","3109","3878","4264","2842","3479","3796","2673","3185","3439","2344","2636","2767","DualSpot on"
"MA200-0416","50463","110","1","1.10","1.6","2023-07-19T16:15:00","120","2023/07/19","16:15:00","0","0","0.0","15","300","64","54","-1504","-4624","-26044","2","150","150.21","115.67","34.55","29.91","28.7","9.80","89524","29.38","DUALSPOT-UV-BLUE-GREEN-RED-IR","711342","687248","902479","13.801338","4.826896","0.022658","715149","876819","765391","9.424524","3.163797","0.025232","814786","885001","814839","7.572424","2.522713","0.025504","819421","911529","865508","5.808361","1.926749","0.025842","708217","843840","952262","3.472620","1.075820","0.012886","4904","6355","7136","3629","4381","4761","3152","3655","3906","2884","3224","3393","2435","2514","2549","DualSpot on"
"MA200-0416","50464","110","1","1.10","1.6","2023-07-19T16:20:00","120","2023/07/19","16:20:00","0","0","0.0","15","300","64","54","-1445","-4570","-26100","2","150","149.61","115.52","34.08","29.83","28.7","9.73","89524","29.25","DUALSPOT-UV-BLUE-GREEN-RED-IR","708573","689320","909195","14.923296","5.258861","0.021456","709605","873455","764138","10.041270","3.385835","0.024845","809339","881757","813183","8.037591","2.685672","0.027332","813632","907185","862403","6.154720","2.045172","0.031237","709679","846786","956219","3.675583","1.140440","0.028021","5704","7444","8391","3957","4829","5273","3342","3969","4284","3007","3486","3723","2454","2648","2736","DualSpot on"
"MA200-0416","50465","110","1","1.10","1.6","2023-07-19T16:25:00","120","2023/07/19","16:25:00","0","0","0.0","15","300","64","53","-1448","-4552","-26184","2","150","149.57","115.35","34.21","29.76","28.6","9.62","89528","29.19","DUALSPOT-UV-BLUE-GREEN-RED-IR","702009","685860","907204","15.646965","5.550054","0.022755","704869","870250","762748","10.528857","3.572017","0.028797","809650","884281","816686","8.429720","2.831048","0.032447","815694","911220","867166","6.455802","2.154499","0.039021","707666","845401","955211","3.859378","1.203336","0.047349","3684","4999","5722","3133","4034","4497","2822","3527","3884","2618","3206","3500","2225","2568","2723","DualSpot on"
"MA200-0416","50466","110","1","1.10","1.6","2023-07-19T16:30:00","120","2023/07/19","16:30:00","0","0","0.0","15","300","64","53","-1492","-4564","-26136","2","150","149.09","115.75","33.33","29.66","28.5","9.47","89532","29.13","DUALSPOT-UV-BLUE-GREEN-RED-IR","692956","679792","901787","16.340536","5.838135","0.024947","702791","870298","764267","11.023914","3.762317","0.030569","803416","879684","813701","8.837673","2.982819","0.034604","808313","904801","862055","6.775057","2.269721","0.040706","703844","841920","951939","4.057443","1.268549","0.042520","3519","5076","5941","3170","4232","4782","2926","3780","4215","2767","3467","3820","2390","2732","2888","DualSpot on"
"MA200-0416","50467","110","1","1.10","1.6","2023-07-19T16:35:00","120","2023/07/19","16:35:00","0","0","0.0","14","300","64","52","-1511","-4523","-26161","2","150","149.39","115.63","33.75","29.57","28.8","9.53","89544","29.00","DUALSPOT-UV-BLUE-GREEN-RED-IR","693362","682905","908499","17.027552","6.123832","0.023417","698139","867160","762922","11.511744","3.949070","0.027941","799695","877784","813139","9.237321","3.130466","0.031031","805200","903185","861509","7.094187","2.384638","0.036695","702407","841354","951950","4.260128","1.337581","0.045910","3489","4971","5803","3127","4101","4610","2869","3631","4022","2768","3415","3743","2448","2857","3043","DualSpot on"
"MA200-0416","50468","110","1","1.10","1.6","2023-07-19T16:40:00","120","2023/07/19","16:40:00","0","0","0.0","15","300","64","72","-1236","-5092","-26196","2","150","150.69","115.95","34.74","29.98","28.5","9.74","89536","31.13","DUALSPOT-UV-BLUE-GREEN-RED-IR","684938","676536","901950","17.530010","6.338587","0.022850","695681","865949","762912","11.868154","4.088920","0.027038","797750","877282","813586","9.535789","3.242261","0.028828","800001","898722","857945","7.328060","2.468359","0.030990","701740","841414","952432","4.408428","1.381253","-0.005785","2545","3631","4246","2278","2984","3355","2137","2671","2947","2023","2417","2618","1786","1756","1742","DualSpot on"
"MA200-0416","50469","110","1","1.10","1.6","2023-07-19T16:45:00","120","2023/07/19","16:45:00","0","0","0.0","14","300","64","74","-1156","-5060","-26224","2","150","150.49","115.79","34.70","30.68","27.7","9.90","89560","32.38","DUALSPOT-UV-BLUE-GREEN-RED-IR","685991","679373","907449","17.985672","6.527838","0.020980","693795","865443","763296","12.185148","4.198248","0.015363","796825","877884","814743","9.792653","3.317374","-0.003863","803834","904386","863758","7.529120","2.514290","-0.073663","700814","841247","952610","4.556024","1.420946","-0.038425","2311","3203","3712","2029","2335","2496","1841","1797","1774","1742","1328","1120","1780","1598","1515","DualSpot on"
"MA200-0416","50470","110","1","1.10","1.6","2023-07-19T16:50:00","120","2023/07/19","16:50:00","0","0","0.0","15","300","64","76","-1150","-5091","-26225","2","150","150.16","116.35","33.81","31.29","27.0","10.06","89576","33.19","DUALSPOT-UV-BLUE-GREEN-RED-IR","683434","679366","909863","18.617450","6.790506","0.021701","692226","865888","764785","12.600290","4.338073","0.015489","794250","877170","814850","10.126644","3.412497","-0.003065","802910","905190","865025","7.787245","2.571499","-0.070485","697880","838927","950494","4.756773","1.474481","-0.028485","3189","4562","5351","2645","3065","3286","2383","2335","2311","2225","1697","1437","2410","2211","2122","DualSpot on"
"MA200-0416","50471","110","1","1.10","1.6","2023-07-19T16:55:00","120","2023/07/19","16:55:00","0","0","0.0","15","300","64","78","-1136","-5000","-26175","2","150","150.30","115.75","34.55","31.86","26.6","10.30","89568","33.81","DUALSPOT-UV-BLUE-GREEN-RED-IR","675317","674171","905730","19.355330","7.104126","0.020730","686374","861147","761853","13.068829","4.502344","0.016108","791091","875961","814644","10.496265","3.523017","0.000271","797714","901286","861895","8.071277","2.640122","-0.048910","696777","838895","951016","4.969129","1.534332","-0.017611","3744","5332","6253","3000","3525","3800","2651","2656","2658","2461","1992","1765","2562","2420","2356","DualSpot on"
"MA200-0416","50472","110","1","1.10","1.6","2023-07-19T17:00:00","120","2023/07/19","17:00:00","0","0","0.0","15","300","64","79","-1080","-5052","-26084","2","150","150.03","116.43","33.60","32.32","26.0","10.35","89568","34.31","DUALSPOT-UV-BLUE-GREEN-RED-IR","669898","672030","906118","20.206272","7.465040","0.021126","682473","859389","761796","13.627853","4.701597","0.019379","787724","874916","814841","10.944030","3.664368","0.011301","794287","899665","861159","8.417294","2.732533","-0.014746","697028","840739","953802","5.226316","1.608553","-0.000001","4292","6309","7490","3559","4396","4836","3192","3492","3643","2981","2759","2652","3085","3085","3085","DualSpot on"
"MA200-0416","50473","110","1","1.10","1.6","2023-07-19T17:05:00","120","2023/07/19","17:05:00","0","0","0.0","15","300","64","81","-1120","-5024","-26060","2","150","149.83","116.63","33.20","32.71","25.4","10.37","89576","34.69","DUALSPOT-UV-BLUE-GREEN-RED-IR","662470","667777","903721","21.057070","7.833845","0.021571","681644","861540","765378","14.221883","4.922384","0.022392","783738","873290","814656","11.432658","3.830093","0.019544","795865","903884","866168","8.800857","2.846628","0.007064","696124","841266","955274","5.506265","1.696376","0.023318","4284","6524","7850","3775","4929","5540","3478","4143","4479","3299","3447","3518","3353","3694","3847","DualSpot on"
"MA200-0416","50474","110","1","1.10","1.6","2023-07-19T17:10:00","120","2023/07/19","17:10:00","0","0","0.0","14","300","64","82","-1064","-4996","-26084","2","150","149.90","115.95","33.95","33.03","24.9","10.35","89584","35.00","DUALSPOT-UV-BLUE-GREEN-RED-IR","658350","666125","904131","21.733514","8.129595","0.020283","673064","853357","759577","14.731106","5.113321","0.020415","780345","871945","814593","11.860701","3.976441","0.016999","785903","894688","858235","9.141977","2.950453","0.006052","692921","838853","953321","5.762377","1.779739","0.024170","3426","5117","6127","3255","4169","4655","3064","3579","3838","2951","3068","3124","3085","3430","3584","DualSpot on"
"MA200-0416","50475","110","1","1.10","1.6","2023-07-19T17:15:00","120","2023/07/19","17:15:00","0","0","0.0","14","300","64","84","-1012","-4960","-26272","2","150","150.09","115.79","34.30","33.26","24.6","10.30","89588","35.25","DUALSPOT-UV-BLUE-GREEN-RED-IR","655626","665800","906274","22.377902","8.414841","0.019751","671404","853633","761145","15.180350","5.287296","0.021106","778451","871887","815580","12.227669","4.106170","0.018438","785209","895627","859977","9.431444","3.044146","0.012752","691599","838393","953442","5.969028","1.845592","0.016542","3268","4884","5857","2876","3759","4232","2631","3139","3397","2508","2740","2850","2493","2681","2766","DualSpot on"
"MA200-0416","50476","110","1","1.10","1.6","2023-07-19T17:20:00","120","2023/07/19","17:20:00","0","0","0.0","14","300","64","86","-1048","-4960","-26096","2","150","149.63","115.55","34.08","33.47","24.1","10.22","89596","35.44","DUALSPOT-UV-BLUE-GREEN-RED-IR","648826","661876","904333","23.199306","8.786551","0.019933","671919","856917","765542","15.675749","5.477119","0.020099","774625","869829","814816","12.616474","4.242445","0.017529","781495","893284","858505","9.729711","3.137326","0.008273","688325","835619","950942","6.179126","1.912254","0.016020","4175","6406","7766","3178","4129","4640","2793","3319","3586","2589","2743","2816","2539","2732","2818","DualSpot on"
"MA200-0416","50477","110","1","1.10","1.6","2023-07-19T17:25:00","120","2023/07/19","17:25:00","0","0","0.0","14","300","64","88","-988","-4956","-26168","2","150","150.56","115.93","34.64","33.60","23.8","10.13","89600","35.56","DUALSPOT-UV-BLUE-GREEN-RED-IR","642273","659815","906922","24.508430","9.389294","0.019064","663290","849780","761361","16.422796","5.768949","0.019579","771313","869277","815962","13.189813","4.448248","0.017670","780111","894309","860729","10.169092","3.280753","0.011819","686631","835289","951418","6.475914","2.005912","0.011627","6632","10221","12449","4777","6246","7041","4106","4933","5353","3802","4154","4322","3576","3777","3867","DualSpot on"
"MA200-0416","50478","110","1","1.10","1.6","2023-07-19T17:30:00","120","2023/07/19","17:30:00","0","0","0.0","14","300","64","91","-984","-4832","-26119","2","150","150.03","116.11","33.92","33.71","23.5","10.03","89600","35.63","DUALSPOT-UV-BLUE-GREEN-RED-IR","633950","653732","901532","25.222546","9.718830","0.019243","662162","850703","763638","16.898418","5.959213","0.021500","766199","865553","813597","13.571800","4.590750","0.021745","780120","896055","863264","10.465231","3.381300","0.018478","686360","836098","952986","6.679363","2.072455","0.022131","3612","5706","7019","3036","4158","4769","2731","3488","3874","2558","2974","3172","2447","2740","2872","DualSpot on"
"MA200-0416","50479","110","1","1.10","1.6","2023-07-19T17:35:00","120","2023/07/19","17:35:00","0","0","0.0","14","300","64","93","-996","-4860","-26108","2","150","150.36","115.47","34.89","33.79","23.4","10.00","89600","35.69","DUALSPOT-UV-BLUE-GREEN-RED-IR","630427","652881","903817","26.027756","10.102787","0.018670","659939","850394","764956","17.401786","6.165756","0.020505","763594","864756","814096","13.970045","4.742378","0.020234","779302","896918","865047","10.773336","3.490078","0.018533","685648","836399","953966","6.887489","2.142508","0.020637","4095","6464","7967","3231","4389","5024","2863","3608","3991","2676","3128","3344","2517","2805","2934","DualSpot on"
"MA200-0416","50480","110","1","1.10","1.6","2023-07-19T17:40:00","120","2023/07/19","17:40:00","0","0","0.0","14","300","64","95","-996","-4832","-26124","2","150","150.29","115.67","34.62","33.83","23.2","9.91","89600","35.69","DUALSPOT-UV-BLUE-GREEN-RED-IR","628354","652983","906924","26.695954","10.427662","0.018958","653929","844759","761260","17.837100","6.349081","0.021712","762275","865118","815550","14.319075","4.879105","0.022280","772866","891077","860258","11.046125","3.589100","0.021700","685360","837061","955375","7.069511","2.206092","0.027648","3392","5511","6869","2789","3925","4553","2505","3278","3678","2366","2869","3111","2198","2565","2732","DualSpot on"
"MA200-0416","50481","110","1","1.10","1.6","2023-07-19T17:45:00","120","2023/07/19","17:45:00","0","0","0.0","14","300","64","96","-979","-4812","-26108","2","150","150.16","115.35","34.81","33.85","23.1","9.90","89600","35.63","DUALSPOT-UV-BLUE-GREEN-RED-IR","622853","649853","905935","27.470050","10.801029","0.018077","650159","842278","760567","18.320850","6.548589","0.019837","758897","863332","815072","14.701656","5.026215","0.020014","776428","896878","866794","11.342175","3.695387","0.019373","683374","835695","954409","7.264320","2.271268","0.018814","3941","6300","7829","3108","4249","4883","2753","3509","3901","2574","3063","3299","2359","2615","2732","DualSpot on"
"MA200-0416","50482","110","1","1.10","1.6","2023-07-19T17:50:00","120","2023/07/19","17:50:00","0","0","0.0","15","300","64","97","-1046","-4780","-26157","2","150","149.34","114.96","34.38","33.82","23.0","9.77","89600","35.56","DUALSPOT-UV-BLUE-GREEN-RED-IR","616065","645515","903448","28.289512","11.196617","0.017821","649705","844590","764508","18.903248","6.793970","0.020613","754582","860933","814370","15.186579","5.217636","0.021583","771213","893041","864336","11.732057","3.839952","0.022412","680389","833507","952812","7.532528","2.363535","0.023869","4186","6758","8443","3755","5291","6153","3502","4622","5209","3402","4219","4616","3259","3749","3973","DualSpot on"
"MA200-0416","50483","110","1","1.10","1.6","2023-07-19T17:55:00","120","2023/07/19","17:55:00","0","0","0.0","15","300","64","98","-992","-4728","-26200","2","150","150.03","115.08","34.95","33.77","22.9","9.70","89600","35.44","DUALSPOT-UV-BLUE-GREEN-RED-IR","613616","645978","908384","29.218990","11.662045","0.017766","643713","839753","762217","19.529446","7.065254","0.020507","752856","861579","816697","15.698169","5.427129","0.022126","764777","887794","860588","12.137264","3.997159","0.024103","676706","830438","950216","7.804580","2.461545","0.027388","4744","7821","9865","4034","5753","6728","3690","4976","5655","3532","4512","4993","3302","3917","4200","DualSpot on"
"MA200-0416","50484","110","1","1.10","1.6","2023-07-19T18:00:00","120","2023/07/19","18:00:00","0","0","0.0","15","300","64","98","-992","-4760","-26116","2","150","149.73","114.71","35.02","33.70","22.9","9.60","89600","35.25","DUALSPOT-UV-BLUE-GREEN-RED-IR","604012","639224","903911","30.317886","12.226097","0.017584","641642","840328","765016","20.221914","7.368713","0.020106","746804","857446","814585","16.249296","5.652535","0.021079","764738","890116","864263","12.568298","4.162085","0.021860","677080","832422","953410","8.087440","2.560798","0.022185","5626","9460","12051","4475","6424","7541","3988","5344","6066","3769","4725","5198","3444","3959","4197","DualSpot on"
"MA200-0416","50485","110","1","1.10","1.6","2023-07-19T18:05:00","120","2023/07/19","18:05:00","0","0","0.0","16","300","64","98","-1020","-4728","-26175","2","150","150.17","115.41","34.77","33.60","22.7","9.44","89596","35.13","DUALSPOT-UV-BLUE-GREEN-RED-IR","602362","639537","907434","30.982128","12.567429","0.017522","635613","834713","761629","20.726110","7.593090","0.020730","744836","857287","815937","16.678162","5.833936","0.022983","757836","883895","859425","12.916931","4.301107","0.025299","673468","829205","950577","8.324230","2.647508","0.028860","3380","5766","7395","3238","4784","5678","3085","4332","5002","3030","4011","4501","2866","3484","3772","DualSpot on"
"MA200-0416","50486","110","1","1.10","1.6","2023-07-19T18:10:00","120","2023/07/19","18:10:00","0","0","0.0","16","300","64","98","-1036","-4712","-26184","2","150","149.90","114.80","35.10","33.49","22.7","9.32","89596","34.94","DUALSPOT-UV-BLUE-GREEN-RED-IR","599896","638362","907989","31.452588","12.811012","0.017142","633680","833765","761941","21.067384","7.747560","0.020495","742763","856259","815902","16.960824","5.953408","0.021861","756975","884086","860394","13.143028","4.393506","0.025554","673276","829720","951648","8.467693","2.700259","0.027078","2407","4076","5223","2203","3262","3878","2044","2826","3248","1975","2641","2975","1745","2099","2265","DualSpot on"
"MA200-0416","50487","110","1","1.10","1.6","2023-07-19T18:15:00","120","2023/07/19","18:15:00","0","0","0.0","16","300","64","98","-996","-4724","-26100","2","150","149.73","115.14","34.59","33.37","22.7","9.22","89600","34.75","DUALSPOT-UV-BLUE-GREEN-RED-IR","594160","634182","905059","32.095886","13.148647","0.017405","633928","836166","765730","21.525008","7.955295","0.020802","737626","852172","813349","17.341354","6.116617","0.022946","759444","888567","865832","13.444613","4.515469","0.025489","670877","827825","950166","8.665554","2.773679","0.029666","3281","5733","7435","2946","4452","5335","2743","3917","4557","2627","3537","3997","2400","2965","3231","DualSpot on"
"MA200-0416","50488","110","1","1.10","1.6","2023-07-19T18:20:00","120","2023/07/19","18:20:00","0","0","0.0","15","300","64","98","-1016","-4736","-26132","2","150","149.70","114.60","35.10","33.23","22.8","9.14","89596","34.56","DUALSPOT-UV-BLUE-GREEN-RED-IR","593187","634562","907838","32.565114","13.394062","0.016763","628638","830763","762018","21.877026","8.116710","0.020180","736347","852141","814374","17.635154","6.245667","0.022795","753674","883049","861304","13.682778","4.614818","0.025817","671761","829699","952911","8.822586","2.832177","0.027383","2404","4106","5295","2277","3409","4077","2128","3052","3559","2085","2839","3223","1914","2328","2523","DualSpot on"
"MA200-0416","50489","110","1","1.10","1.6","2023-07-19T18:25:00","120","2023/07/19","18:25:00","0","0","0.0","15","300","64","98","-1025","-4687","-26162","2","150","150.35","115.09","35.27","33.11","22.7","9.03","89604","34.44","DUALSPOT-UV-BLUE-GREEN-RED-IR","590333","632996","908026","33.059536","13.657730","0.016872","626636","829658","762262","22.229686","8.284271","0.021025","733881","850659","814056","17.930376","6.377560","0.023169","752238","882534","861690","13.918572","4.716706","0.027504","667809","825592","948723","8.973358","2.890068","0.030284","2523","4391","5706","2271","3522","4265","2129","3104","3643","2055","2898","3330","1830","2293","2513","DualSpot on"
"MA200-0416","50490","110","1","1.10","1.6","2023-07-19T18:30:00","120","2023/07/19","18:30:00","0","0","0.0","15","300","64","98","-1048","-4752","-26116","2","150","150.30","114.84","35.46","32.96","22.8","8.95","89608","34.19","DUALSPOT-UV-BLUE-GREEN-RED-IR","583499","627920","904461","33.832060","14.069710","0.016389","625869","831131","765566","22.772954","8.533873","0.019245","732726","851505","816486","18.382176","6.574870","0.021329","753347","885781","866184","14.287016","4.869652","0.024015","668983","828378","952840","9.223343","2.984096","0.026430","3951","6823","8868","3506","5217","6243","3266","4619","5372","3218","4327","4900","3040","3704","4021","DualSpot on"
"MA200-0416","50491","110","1","1.10","1.6","2023-07-19T18:35:00","120","2023/07/19","18:35:00","0","0","0.0","15","300","64","98","-1064","-4724","-26108","2","150","150.29","114.84","35.46","32.81","22.8","8.84","89616","34.00","DUALSPOT-UV-BLUE-GREEN-RED-IR","580781","627039","906548","34.535308","14.445732","0.016133","619239","824577","761338","23.298166","8.777327","0.019135","726902","846847","813590","18.831782","6.771827","0.020998","745649","878602","860492","14.659360","5.026072","0.024172","669144","829838","955417","9.478989","3.081675","0.027357","3596","6229","8122","3390","5090","6117","3250","4611","5376","3252","4426","5038","3109","3844","4198","DualSpot on"
"MA200-0416","50492","110","1","1.10","1.6","2023-07-19T18:40:00","120","2023/07/19","18:40:00","0","0","0.0","14","300","64","98","-1056","-4688","-26212","2","150","150.16","115.51","34.65","32.64","22.9","8.75","89616","33.81","DUALSPOT-UV-BLUE-GREEN-RED-IR","580003","627845","910648","35.114240","14.762211","0.016707","618685","825566","763697","23.692542","8.964777","0.020458","725671","846917","814849","19.156916","6.919117","0.023182","746470","880889","863690","14.920407","5.138272","0.026657","666187","827030","952818","9.646030","3.146176","0.030995","2943","5365","7121","2530","4010","4911","2336","3529","4203","2267","3248","3764","2020","2600","2881","DualSpot on"
"MA200-0416","50493","110","1","1.10","1.6","2023-07-19T18:45:00","120","2023/07/19","18:45:00","0","0","0.0","14","300","64","98","-1030","-4657","-26126","2","150","149.83","115.12","34.71","32.50","23.0","8.68","89632","33.69","DUALSPOT-UV-BLUE-GREEN-RED-IR","571580","620906","904338","35.885996","15.180374","0.016162","616915","825751","765952","24.276228","9.239721","0.019596","722774","845862","815662","19.654784","7.141090","0.021830","744533","880680","865005","15.333509","5.313575","0.025038","665669","827799","954816","9.933018","3.259200","0.031501","3937","7075","9375","3758","5871","7169","3590","5308","6289","3600","5066","5843","3482","4548","5068","DualSpot on"
"MA200-0416","50494","110","1","1.10","1.6","2023-07-19T18:50:00","120","2023/07/19","18:50:00","0","0","0.0","14","300","64","98","-1036","-4712","-26100","2","150","150.01","115.09","34.92","32.35","23.1","8.62","89644","33.50","DUALSPOT-UV-BLUE-GREEN-RED-IR","568988","620205","907112","36.643540","15.596584","0.015973","610604","819559","762088","24.796340","9.483881","0.018944","720273","844987","816359","20.084772","7.331097","0.020818","737668","874322","860035","15.682022","5.459606","0.023519","661961","824417","951703","10.164818","3.344567","0.023765","3866","7000","9323","3350","5183","6318","3101","4517","5330","3038","4195","4813","2813","3414","3709","DualSpot on"
"MA200-0416","50495","110","1","1.10","1.6","2023-07-19T18:55:00","120","2023/07/19","18:55:00","0","0","0.0","14","300","64","98","-1068","-4660","-26140","2","150","150.56","115.04","35.52","32.20","23.2","8.57","89648","33.31","DUALSPOT-UV-BLUE-GREEN-RED-IR","566450","619260","909198","37.321976","15.979324","0.015841","609371","819901","764137","25.265844","9.710415","0.018898","718319","844485","817321","20.477252","7.509619","0.020882","737502","875669","862546","15.997103","5.595183","0.023568","662419","826021","954322","10.370842","3.425087","0.027388","3464","6328","8473","3025","4727","5790","2832","4172","4948","2747","3829","4410","2501","3166","3494","DualSpot on"
"MA200-0416","50496","110","1","1.10","1.6","2023-07-19T19:00:00","120","2023/07/19","19:00:00","0","0","0.0","14","300","64","98","-1103","-4665","-26153","2","150","150.43","115.11","35.32","32.08","23.3","8.53","89648","33.19","DUALSPOT-UV-BLUE-GREEN-RED-IR","559973","613764","904089","37.909844","16.312958","0.015789","608356","820289","766012","25.677928","9.905321","0.018243","713862","840865","815038","20.819722","7.661224","0.019782","738533","878346","866142","16.275358","5.711496","0.022005","659195","822966","951411","10.553024","3.492797","0.022732","2999","5547","7472","2654","4090","4992","2470","3563","4199","2425","3303","3778","2211","2677","2908","DualSpot on"
"MA200-0416","50497","110","1","1.10","1.6","2023-07-19T19:05:00","120","2023/07/19","19:05:00","0","0","0.0","14","300","64","98","-1108","-4648","-26200","2","150","150.23","115.00","35.23","31.96","23.4","8.48","89648","33.06","DUALSPOT-UV-BLUE-GREEN-RED-IR","559479","614614","908220","38.453664","16.626041","0.015803","603579","815429","762874","26.060030","10.094042","0.019179","709906","837577","813051","21.133986","7.806594","0.021155","733178","873245","862080","16.528725","5.820256","0.023137","656843","820860","949576","10.720284","3.555747","0.023766","2777","5219","7079","2463","3971","4924","2268","3425","4103","2210","3097","3579","2031","2496","2726","DualSpot on"
"MA200-0416","50498","110","1","1.10","1.6","2023-07-19T19:10:00","120","2023/07/19","19:10:00","0","0","0.0","14","300","64","98","-1076","-4640","-26128","2","150","150.29","115.12","35.18","31.83","23.5","8.44","89652","32.88","DUALSPOT-UV-BLUE-GREEN-RED-IR","553444","609475","903526","39.019720","16.950744","0.015581","603400","816871","765733","26.460310","10.290844","0.018863","708840","837871","814552","21.465936","7.958019","0.020460","735457","877302","867094","16.797430","5.937552","0.023730","658674","824014","953886","10.895256","3.621520","0.023529","2888","5421","7367","2577","4147","5146","2394","3573","4268","2341","3345","3894","2123","2611","2855","DualSpot on"
"MA200-0416","50499","110","1","1.10","1.6","2023-07-19T19:15:00","120","2023/07/19","19:15:00","0","0","0.0","14","300","64","98","-1080","-4634","-26134","2","150","150.23","114.80","35.43","31.69","23.6","8.42","89656","32.75","DUALSPOT-UV-BLUE-GREEN-RED-IR","552168","609648","907212","39.646184","17.319970","0.015579","598030","811401","762426","26.911860","10.519274","0.019026","704674","834576","812855","21.843752","8.138991","0.021427","729236","871332","862400","17.104194","6.075472","0.024243","655419","820991","951138","11.093582","3.700316","0.027158","3205","6121","8383","2915","4779","5975","2732","4240","5136","2680","3905","4580","2413","3106","3454","DualSpot on"
"MA200-0416","50500","110","1","1.10","1.6","2023-07-19T19:20:00","120","2023/07/19","19:20:00","0","0","0.0","14","300","64","99","-1028","-4656","-26091","2","150","150.05","115.11","34.94","31.57","23.8","8.41","89664","32.63","DUALSPOT-UV-BLUE-GREEN-RED-IR","545483","604157","903080","40.418472","17.774478","0.015494","596920","812348","765636","27.522272","10.831566","0.019276","702465","834220","814559","22.364376","8.389808","0.021658","728659","872707","865393","17.529282","6.268400","0.024828","655655","822657","954202","11.381016","3.819126","0.030966","3940","7639","10543","3931","6625","8373","3755","5959","7282","3705","5539","6560","3488","4749","5386","DualSpot on"
"MA200-0416","50501","110","1","1.10","1.6","2023-07-19T19:25:00","120","2023/07/19","19:25:00","0","0","0.0","14","300","64","98","-1112","-4644","-26052","2","150","150.03","115.31","34.71","31.43","24.0","8.40","89668","32.50","DUALSPOT-UV-BLUE-GREEN-RED-IR","543975","604261","907122","41.140828","18.205982","0.015518","591419","806900","762513","28.041026","11.093473","0.018844","697511","830209","812272","22.796848","8.594019","0.020931","722675","867188","861256","17.879452","6.423139","0.023606","652302","819523","951387","11.604671","3.905910","0.026146","3679","7301","10176","3334","5593","7071","3113","4884","5955","3046","4472","5271","2709","3492","3889","DualSpot on"
"MA200-0416","50502","110","1","1.10","1.6","2023-07-19T19:30:00","120","2023/07/19","19:30:00","0","0","0.0","14","300","64","98","-1080","-4624","-26119","2","150","150.09","115.20","34.90","31.33","24.2","8.44","89664","32.38","DUALSPOT-UV-BLUE-GREEN-RED-IR","542597","604286","910776","41.790712","18.598736","0.015360","590447","807483","764989","28.529864","11.344112","0.018744","697091","831500","815151","23.206940","8.790822","0.020881","723642","869959","865281","18.210156","6.571692","0.023630","653459","822100","955228","11.823456","3.993421","0.027570","3313","6610","9253","3145","5324","6761","2955","4681","5734","2880","4270","5055","2653","3502","3936","DualSpot on"
"MA200-0416","50503","110","1","1.10","1.6","2023-07-19T19:35:00","120","2023/07/19","19:35:00","0","0","0.0","14","300","64","99","-1100","-4665","-26084","2","150","150.24","115.11","35.13","31.23","24.4","8.48","89660","32.25","DUALSPOT-UV-BLUE-GREEN-RED-IR","535775","598883","907656","42.711212","19.154366","0.014968","584808","802444","762917","29.222262","11.701895","0.018347","691383","827169","813210","23.791648","9.071815","0.020237","718342","865864","863095","18.689878","6.787318","0.022793","650252","819638","953570","12.144127","4.123663","0.027473","4697","9289","13023","4459","7549","9613","4217","6640","8133","4181","6157","7284","3891","5178","5840","DualSpot on"
"MA200-0416","50504","110","1","1.10","1.6","2023-07-19T19:40:00","120","2023/07/19","19:40:00","0","0","0.0","14","300","64","99","-1096","-4664","-26168","2","150","150.13","114.99","35.14","31.16","24.6","8.54","89664","32.19","DUALSPOT-UV-BLUE-GREEN-RED-IR","528767","593272","904681","43.698164","19.764720","0.014907","579120","797390","760960","29.936008","12.071199","0.017949","686917","824436","812844","24.393688","9.360404","0.019671","713090","861900","861007","19.179020","7.002890","0.021403","647509","817804","952653","12.468739","4.250267","0.023683","5041","10201","14463","4601","7790","9945","4346","6818","8356","4267","6154","7239","3943","5032","5596","DualSpot on"
"MA200-0416","50505","110","1","1.10","1.6","2023-07-19T19:45:00","120","2023/07/19","19:45:00","0","0","0.0","14","300","64","99","-1144","-4672","-26144","2","150","149.45","115.31","34.13","31.10","24.9","8.67","89664","32.13","DUALSPOT-UV-BLUE-GREEN-RED-IR","520181","586650","902741","45.120708","20.671608","0.015081","576691","797794","765337","30.923308","12.594831","0.018495","683613","823932","815596","25.208578","9.756310","0.020285","712217","863967","865596","19.829154","7.292104","0.022344","639842","810188","945346","12.890957","4.414176","0.024941","7245","15606","22675","6347","11373","14827","5866","9630","12006","5656","8501","10156","5114","6708","7538","DualSpot on"
"MA200-0416","50506","110","1","1.10","1.6","2023-07-19T19:50:00","120","2023/07/19","19:50:00","0","0","0.0","14","300","64","98","-1064","-4588","-26175","2","150","149.80","114.71","35.09","31.06","25.1","8.77","89664","32.06","DUALSPOT-UV-BLUE-GREEN-RED-IR","516980","585923","910047","46.541800","21.600182","0.014600","570415","792660","764475","31.907972","13.125385","0.017676","677056","819424","814365","26.019756","10.155983","0.019233","706122","859645","863745","20.477852","7.582890","0.020755","644324","817964","955996","13.313293","4.579553","0.022478","7276","15544","22703","6363","11209","14595","5870","9456","11752","5673","8314","9867","5143","6584","7339","DualSpot on"
"MA200-0416","50507","110","1","1.10","1.6","2023-07-19T19:55:00","120","2023/07/19","19:55:00","0","0","0.0","14","300","64","98","-1120","-4696","-26108","2","150","149.33","114.64","34.69","31.01","25.2","8.78","89668","32.00","DUALSPOT-UV-BLUE-GREEN-RED-IR","509079","579330","907162","47.764720","22.414116","0.014514","563994","786912","762678","32.805386","13.619305","0.017783","671605","815857","813906","26.778540","10.537536","0.019487","700789","855981","862542","21.096176","7.868015","0.021579","640926","815650","954888","13.721645","4.744367","0.024625","6265","13782","20428","5803","10555","13929","5495","9132","11492","5411","8246","9933","4976","6637","7515","DualSpot on"
"MA200-0416","50508","110","1","1.10","1.6","2023-07-19T20:00:00","120","2023/07/19","20:00:00","0","0","0.0","14","300","64","98","-1087","-4729","-26095","2","150","150.16","114.60","35.56","30.98","25.2","8.78","89664","32.00","DUALSPOT-UV-BLUE-GREEN-RED-IR","502263","573789","905795","48.969092","23.232098","0.014160","558293","782095","761897","33.714704","14.127815","0.017202","665957","812102","813386","27.553622","10.933850","0.018793","696078","853141","862225","21.732838","8.163290","0.020338","638261","814375","955034","14.154888","4.919475","0.022378","6172","13510","20133","5882","10600","14003","5615","9252","11645","5573","8330","9988","5281","6878","7729","DualSpot on"
"MA200-0416","50509","110","1","1.10","1.6","2023-07-19T20:05:00","120","2023/07/19","20:05:00","0","0","0.0","14","300","64","98","-1052","-4648","-26144","2","150","149.45","114.96","34.49","30.93","25.2","8.71","89664","31.94","DUALSPOT-UV-BLUE-GREEN-RED-IR","495627","568364","904852","50.189216","24.072312","0.014214","552310","776780","760662","34.638056","14.651979","0.017531","660187","808108","812739","28.344528","11.344744","0.019388","690210","848904","860608","22.389530","8.472600","0.021364","634646","811924","953949","14.608131","5.105142","0.024621","6234","14309","21752","5954","11266","15161","5712","9891","12680","5731","8997","10986","5507","7520","8601","DualSpot on"
"MA200-0416","50510","110","1","1.10","1.6","2023-07-19T20:10:00","120","2023/07/19","20:10:00","0","0","0.0","15","300","68","99","-1108","-4672","-26116","3","150","150.69","117.98","32.71","30.86","25.3","8.74","89664","31.88","DUALSPOT-UV-BLUE-GREEN-RED-IR","805739","719648","906043","0.000000","0.000000","0.000000","775270","898135","763042","0.000000","0.000000","0.000000","870220","902588","813308","0.000000","0.000000","0.000000","860451","923848","862770","0.000000","0.000000","0.000000","727995","849845","950259","0.000000","0.000000","0.000000","","","","","","","","","","","","","","","","Tape advance-DualSpot on"
"MA200-0416","50511","110","1","1.10","1.6","2023-07-19T20:15:00","120","2023/07/19","20:15:00","0","0","0.0","15","300","68","98","-1128","-4688","-26008","3","150","149.80","117.67","32.13","30.80","25.8","8.96","89660","31.75","DUALSPOT-UV-BLUE-GREEN-RED-IR","780672","715821","910795","0.000000","0.000000","0.000000","756797","890140","760551","0.000000","0.000000","0.000000","859295","901504","815755","0.000000","0.000000","0.000000","847884","917927","859811","0.000000","0.000000","0.000000","726547","852231","954564","0.000000","0.000000","0.000000","","","","","","","","","","","","","","","","Tape advance-DualSpot on"
"MA200-0416","50512","110","1","1.10","1.6","2023-07-19T20:20:00","120","2023/07/19","20:20:00","0","0","0.0","14","300","64","98","-1068","-4688","-26175","3","150","150.49","117.58","32.91","30.85","26.6","9.49","89668","31.75","DUALSPOT-UV-BLUE-GREEN-RED-IR","755476","708166","909934","3.191982","0.980836","0.038733","741642","884328","759816","1.924084","0.557905","0.000000","846673","897249","815136","1.402336","0.396561","0.000000","839397","915272","859696","0.992119","0.277495","0.000000","721688","850134","953685","0.581451","0.156673","0.000000","15945","17503","18195","12131","12566","12131","9902","10003","9902","8465","8458","8465","6908","6649","6908","DualSpot on"
"MA200-0416","50513","110","1","1.10","1.6","2023-07-19T20:25:00","120","2023/07/19","20:25:00","0","0","0.0","14","300","64","98","-1125","-4697","-26182","3","150","150.71","117.50","33.21","30.94","26.7","9.61","89664","31.81","DUALSPOT-UV-BLUE-GREEN-RED-IR","729947","695912","901684","5.725223","1.818111","0.034719","730084","880029","759808","3.501793","1.044075","0.032516","837106","894508","815493","2.584928","0.747878","0.000000","832231","912997","859674","1.851637","0.523924","0.000000","718122","849099","953922","1.103300","0.303666","0.000000","12662","14806","15804","9953","10851","11232","8355","8781","8355","7338","7443","7338","6204","6182","6204","DualSpot on"
"MA200-0416","50514","110","1","1.10","1.6","2023-07-19T20:30:00","120","2023/07/19","20:30:00","0","0","0.0","14","300","64","98","-1088","-4676","-26112","3","150","150.66","118.17","32.49","31.01","26.7","9.67","89668","31.88","DUALSPOT-UV-BLUE-GREEN-RED-IR","715563","693624","906406","8.241949","2.669420","0.030823","720226","878998","763019","5.283106","1.589202","0.026338","828935","893789","817985","3.870356","1.129168","0.025877","827716","913810","862707","2.748780","0.786429","0.000000","710901","843922","949621","1.657682","0.461098","0.000000","12509","15389","16769","11174","12437","12981","9030","9742","10036","7616","8105","7616","6553","6768","6553","DualSpot on"
"MA200-0416","50515","110","1","1.10","1.6","2023-07-19T20:35:00","120","2023/07/19","20:35:00","0","0","0.0","14","300","64","98","-1080","-4680","-26236","3","150","149.96","117.46","32.50","31.08","26.4","9.56","89672","32.00","DUALSPOT-UV-BLUE-GREEN-RED-IR","699978","688790","907524","10.563574","3.489410","0.027666","709722","875784","764401","6.922160","2.125918","0.030247","814836","886422","814515","5.157339","1.532304","0.030680","821103","912845","864374","3.735324","1.083141","0.029225","707036","843244","950688","2.311340","0.653512","0.000000","11609","14819","16402","10344","12242","13083","9096","10298","10806","8426","9159","9458","7773","8270","7773","DualSpot on"
"MA200-0416","50516","110","1","1.10","1.6","2023-07-19T20:40:00","120","2023/07/19","20:40:00","0","0","0.0","13","300","64","98","-1016","-4612","-26188","3","150","150.03","117.06","32.96","31.13","26.1","9.42","89672","32.00","DUALSPOT-UV-BLUE-GREEN-RED-IR","687180","683951","907144","12.390835","4.162077","0.025533","699843","871160","763766","8.259763","2.578568","0.027461","805403","882486","813701","6.235727","1.880550","0.027857","814017","910161","864082","4.580711","1.344758","0.026834","702750","841444","950268","2.884437","0.824083","0.000000","9168","11985","13410","8470","10179","10955","7648","8770","9255","7245","7962","8260","6838","7228","6838","DualSpot on"
"MA200-0416","50517","110","1","1.10","1.6","2023-07-19T20:45:00","120","2023/07/19","20:45:00","0","0","0.0","14","300","64","98","-1088","-4704","-26196","3","150","150.01","117.34","32.67","31.15","25.8","9.26","89676","32.06","DUALSPOT-UV-BLUE-GREEN-RED-IR","681474","682197","908107","13.334806","4.526960","0.027761","696058","870063","764501","8.903269","2.805769","0.031592","801904","881642","814293","6.748541","2.052629","0.033738","812707","911133","866065","4.973708","1.469641","0.033579","701875","841852","951424","3.135046","0.900362","0.036866","4725","6559","7502","4065","5155","5656","3628","4372","4698","3360","3834","4034","2983","3261","3373","DualSpot on"
"MA200-0416","50518","110","1","1.10","1.6","2023-07-19T20:50:00","120","2023/07/19","20:50:00","0","0","0.0","13","300","64","99","-1088","-4661","-26100","3","150","150.16","117.14","33.02","31.15","25.4","9.05","89672","32.06","DUALSPOT-UV-BLUE-GREEN-RED-IR","672991","676820","903732","14.105827","4.836565","0.027832","689523","864728","761304","9.430670","3.000116","0.032953","799846","881873","815736","7.179085","2.202130","0.034928","804304","903713","859947","5.306998","1.580482","0.038440","702084","843364","953759","3.347604","0.966737","0.039361","3865","5507","6364","3337","4363","4842","3051","3759","4072","2854","3368","3585","2534","2808","2919","DualSpot on"
"MA200-0416","50519","110","1","1.10","1.6","2023-07-19T20:55:00","120","2023/07/19","20:55:00","0","0","0.0","13","300","64","98","-1076","-4736","-26108","3","150","150.28","117.04","33.24","31.14","25.2","8.90","89680","32.06","DUALSPOT-UV-BLUE-GREEN-RED-IR","674944","681250","912052","14.732437","5.097276","0.028208","686316","863036","761053","9.866020","3.166031","0.033946","796551","880194","815231","7.535469","2.331210","0.037828","802075","902858","859965","5.587119","1.677411","0.042578","700078","841930","952721","3.523664","1.025560","0.056559","3144","4606","5380","2757","3700","4145","2527","3224","3535","2401","2925","3150","2101","2472","2624","DualSpot on"
"MA200-0416","50520","110","1","1.10","1.6","2023-07-19T21:00:00","120","2023/07/19","21:00:00","0","0","0.0","13","300","64","98","-1080","-4726","-26053","3","150","150.56","117.02","33.53","31.12","25.0","8.79","89680","32.06","DUALSPOT-UV-BLUE-GREEN-RED-IR","669155","677391","908757","15.238787","5.309522","0.027254","687232","866085","764790","10.223263","3.304863","0.033733","793110","878095","814170","7.836627","2.441561","0.036780","798157","899819","857781","5.822757","1.759069","0.039635","697881","840124","951134","3.674406","1.073703","0.037921","2541","3717","4346","2263","3069","3454","2136","2732","3001","2020","2443","2626","1799","2005","2090","DualSpot on"
"MA200-0416","50521","110","1","1.10","1.6","2023-07-19T21:05:00","120","2023/07/19","21:05:00","0","0","0.0","13","300","64","92","-1072","-4640","-26147","3","150","149.39","116.59","32.80","30.87","25.0","8.56","89672","30.88","DUALSPOT-UV-BLUE-GREEN-RED-IR","662270","672383","904005","15.748402","5.524534","0.027619","681420","860684","761110","10.588538","3.444981","0.033071","792685","879309","816232","8.144856","2.554887","0.037940","799388","902657","861244","6.069533","1.846176","0.044148","699159","842562","954403","3.831531","1.126701","0.057385","2567","3850","4543","2322","3167","3574","2194","2868","3176","2123","2664","2900","1882","2257","2413","DualSpot on"
"MA200-0416","50522","110","1","1.10","1.6","2023-07-19T21:10:00","120","2023/07/19","21:10:00","0","0","0.0","13","300","64","90","-1120","-4604","-26052","3","150","150.18","116.75","33.43","30.45","25.1","8.25","89676","30.13","DUALSPOT-UV-BLUE-GREEN-RED-IR","661150","673252","907297","16.273026","5.754467","0.027708","678846","859308","761075","10.961268","3.600454","0.036938","788390","876190","814404","8.462288","2.685708","0.046278","799218","903795","863232","6.321347","1.952010","0.063862","696652","840341","952427","3.983131","1.182552","0.072728","2639","4040","4806","2366","3447","3976","2257","3249","3710","2163","3176","3628","1813","2334","2553","DualSpot on"
"MA200-0416","50523","110","1","1.10","1.6","2023-07-19T21:15:00","120","2023/07/19","21:15:00","0","0","0.0","13","300","64","89","-1188","-4561","-26250","3","150","150.01","117.04","32.96","30.03","25.3","8.01","89684","29.63","DUALSPOT-UV-BLUE-GREEN-RED-IR","657224","671383","906942","16.833130","5.998548","0.027302","679021","861489","764290","11.356902","3.765904","0.037022","786644","875975","815333","8.795962","2.823478","0.046275","798317","904167","864565","6.590397","2.064693","0.062969","698065","842870","955806","4.135620","1.237906","0.070603","2810","4349","5201","2505","3720","4323","2366","3470","3991","2306","3429","3942","1820","2345","2570","DualSpot on"
"MA200-0416","50524","110","1","1.10","1.6","2023-07-19T21:20:00","120","2023/07/19","21:20:00","0","0","0.0","13","300","64","88","-1129","-4733","-26012","3","150","149.80","117.50","32.30","29.63","25.5","7.82","0","0.00","DUALSPOT-UV-BLUE-GREEN-RED-IR","653481","671163","910282","17.766410","6.393320","0.025728","674357","859544","764827","12.114143","4.061752","0.032029","783891","876601","818032","9.472330","3.082800","0.038983","793610","902078","864438","7.163239","2.279513","0.048623","693941","840047","953914","4.526090","1.370055","0.055034","4665","7179","8592","4777","6790","7806","4778","6666","7576","4891","6673","7505","4642","5715","6182","DualSpot on"
"MA200-0416","50525","110","1","1.10","1.6","2023-07-19T21:25:00","120","2023/07/19","21:25:00","0","0","0.0","13","300","64","87","-1212","-4552","-26128","3","150","149.72","117.40","32.32","29.24","25.7","7.62","0","0.00","DUALSPOT-UV-BLUE-GREEN-RED-IR","646465","666167","905841","18.364644","6.658045","0.026566","672660","859630","766311","12.563206","4.249793","0.035061","779402","873517","816449","9.862541","3.243721","0.043185","792734","902770","866237","7.482386","2.411156","0.056621","692151","838910","953216","4.716282","1.437213","0.061273","2993","4810","5844","2835","4312","5068","2759","4133","4806","2727","4086","4732","2263","2902","3182","DualSpot on"
"MA200-0416","50526","110","1","1.10","1.6","2023-07-19T21:30:00","120","2023/07/19","21:30:00","0","0","0.0","13","300","64","87","-1196","-4538","-26080","3","150","149.43","116.28","33.15","28.90","26.0","7.47","0","0.00","DUALSPOT-UV-BLUE-GREEN-RED-IR","646198","667986","910758","18.942916","6.921282","0.025589","667225","854660","763238","12.974146","4.427099","0.033770","775799","871241","815547","10.213634","3.392446","0.041246","786985","897700","862411","7.768454","2.532363","0.053961","690936","838267","953059","4.876095","1.496789","0.063079","2920","4664","5668","2619","3965","4662","2506","3725","4331","2468","3668","4249","1919","2510","2772","DualSpot on"
"MA200-0416","50527","110","1","1.10","1.6","2023-07-19T21:35:00","120","2023/07/19","21:35:00","0","0","0.0","13","300","64","86","-1168","-4568","-26180","3","150","149.70","117.26","32.43","28.56","26.2","7.29","0","0.00","DUALSPOT-UV-BLUE-GREEN-RED-IR","642007","665233","908889","19.391690","7.131290","0.026945","667209","856196","765731","13.299160","4.571586","0.036139","773125","869601","815005","10.494889","3.516239","0.044849","788462","900544","866010","7.997694","2.634448","0.059561","690471","838368","953642","5.007267","1.547112","0.071695","2247","3803","4707","2054","3302","3956","1991","3168","3762","1961","3157","3745","1562","2167","2437","DualSpot on"
"MA200-0416","50528","110","1","1.10","1.6","2023-07-19T21:40:00","120","2023/07/19","21:40:00","0","0","0.0","12","300","64","85","-1200","-4636","-26263","3","150","150.36","116.95","33.41","28.29","26.5","7.22","89660","27.88","DUALSPOT-UV-BLUE-GREEN-RED-IR","637885","662465","906847","19.811412","7.325336","0.024992","664122","853661","764498","13.606750","4.708206","0.033722","771312","868909","815294","10.764613","3.631079","0.039497","784626","897293","863703","8.219927","2.729284","0.051695","689537","837929","953596","5.132324","1.594027","0.060838","2108","3411","4175","1949","3031","3603","1914","2853","3331","1906","2847","3315","1493","1961","2172","DualSpot on"
"MA200-0416","50529","110","1","1.10","1.6","2023-07-19T21:45:00","120","2023/07/19","21:45:00","0","0","0.0","12","300","64","85","-1240","-4584","-26060","3","150","149.43","117.05","32.38","28.02","26.8","7.16","89664","27.63","DUALSPOT-UV-BLUE-GREEN-RED-IR","633986","660076","905573","20.281174","7.544317","0.025720","660703","850924","763166","13.947366","4.857504","0.033890","769835","868722","816175","11.062411","3.757465","0.040412","782355","895947","863320","8.463897","2.833151","0.052865","685436","833680","949265","5.277813","1.647941","0.062599","2357","3971","4927","2157","3417","4091","2112","3240","3820","2091","3217","3784","1736","2325","2593","DualSpot on"
"MA200-0416","50530","110","1","1.10","1.6","2023-07-19T21:50:00","120","2023/07/19","21:50:00","0","0","0.0","13","300","64","84","-1180","-4468","-26040","3","150","150.09","117.58","32.51","27.81","27.1","7.16","89664","27.44","DUALSPOT-UV-BLUE-GREEN-RED-IR","628632","656930","904202","20.975174","7.867834","0.024946","657264","848823","762874","14.427043","5.062270","0.031598","766968","867622","816502","11.472924","3.924704","0.036469","778963","893850","862440","8.794157","2.963871","0.044826","686071","835534","952073","5.477661","1.717639","0.050326","3466","5844","7271","3024","4668","5557","2898","4270","4983","2817","4033","4651","2374","2994","3277","DualSpot on"
"MA200-0416","50531","110","1","1.10","1.6","2023-07-19T21:55:00","120","2023/07/19","21:55:00","0","0","0.0","13","300","64","84","-1172","-4500","-25956","3","150","149.92","117.69","32.23","27.58","27.5","7.19","89672","27.19","DUALSPOT-UV-BLUE-GREEN-RED-IR","629118","659812","911052","21.651290","8.184334","0.024609","654319","847317","763054","14.898607","5.264282","0.031279","764526","866899","817196","11.876133","4.090363","0.036445","775934","892115","861887","9.120719","3.094196","0.044846","685939","836487","953840","5.677154","1.788868","0.054130","3374","5767","7222","2970","4646","5562","2844","4267","5014","2783","4056","4710","2367","3087","3418","DualSpot on"
"MA200-0416","50532","110","1","1.10","1.6","2023-07-19T22:00:00","120","2023/07/19","22:00:00","0","0","0.0","13","300","64","83","-1232","-4380","-25768","3","150","150.14","117.46","32.68","27.38","27.9","7.19","89668","27.00","DUALSPOT-UV-BLUE-GREEN-RED-IR","619735","652419","903925","22.372292","8.525021","0.023693","650780","845131","762748","15.401306","5.482089","0.030114","758770","862572","814517","12.307638","4.266971","0.034032","774530","892377","863309","9.469750","3.230935","0.040381","682304","833198","950817","5.896587","1.866606","0.048426","3605","6122","7671","3172","4940","5916","3049","4486","5248","2981","4197","4827","2609","3322","3652","DualSpot on"
"MA200-0416","50533","110","1","1.10","1.6","2023-07-19T22:05:00","120","2023/07/19","22:05:00","0","0","0.0","14","300","64","83","-1180","-4524","-26128","3","150","149.50","117.17","32.32","27.17","28.3","7.24","89664","26.81","DUALSPOT-UV-BLUE-GREEN-RED-IR","615883","650871","904932","23.106624","8.877514","0.023622","648159","844146","763569","15.914028","5.706620","0.030039","756399","862138","815620","12.751885","4.450786","0.034063","771213","890528","862740","9.829928","3.373796","0.040689","682150","834269","952789","6.123665","1.945185","0.044349","3681","6405","8104","3243","5149","6214","3147","4721","5564","3083","4434","5139","2707","3395","3716","DualSpot on"
"MA200-0416","50534","110","1","1.10","1.6","2023-07-19T22:10:00","120","2023/07/19","22:10:00","0","0","0.0","14","300","64","83","-1156","-4588","-26136","3","150","149.96","117.74","32.22","26.99","28.6","7.24","89652","26.63","DUALSPOT-UV-BLUE-GREEN-RED-IR","611362","648394","904563","23.803090","9.215576","0.023442","645456","842929","764127","16.400251","5.922246","0.030042","755151","862831","817736","13.175228","4.625941","0.033469","770389","891388","864773","10.175215","3.510719","0.039973","683035","836534","956099","6.341243","2.020988","0.045120","3474","6162","7860","3061","4960","6034","2985","4513","5339","2942","4263","4959","2581","3286","3616","DualSpot on"
"MA200-0416","50535","110","1","1.10","1.6","2023-07-19T22:15:00","120","2023/07/19","22:15:00","0","0","0.0","14","300","64","82","-1268","-4572","-26060","3","150","150.28","117.75","32.53","26.82","28.9","7.24","89644","26.44","DUALSPOT-UV-BLUE-GREEN-RED-IR","608837","647775","906512","24.432960","9.525326","0.022965","643602","842560","765322","16.845440","6.121814","0.029352","749415","858224","814646","13.561477","4.789084","0.033169","768940","891418","865897","10.492055","3.638595","0.039428","679635","833468","953255","6.543041","2.093252","0.046369","3141","5592","7158","2802","4547","5543","2723","4163","4949","2699","3943","4604","2394","3103","3436","DualSpot on"
"MA200-0416","50536","110","1","1.10","1.6","2023-07-19T22:20:00","120","2023/07/19","22:20:00","0","0","0.0","14","300","64","82","-1208","-4492","-26203","3","150","150.08","117.84","32.24","26.65","29.3","7.27","89652","26.25","DUALSPOT-UV-BLUE-GREEN-RED-IR","606628","647734","909254","25.102276","9.838608","0.021469","637432","836759","761561","17.323534","6.325071","0.026895","748641","859463","817182","13.976946","4.955024","0.029763","762601","885943","861680","10.830642","3.766942","0.034298","676392","830703","950803","6.764168","2.167602","0.037252","3336","5707","7235","3007","4673","5631","2927","4273","5012","2882","3993","4586","2621","3221","3504","DualSpot on"
"MA200-0416","50537","110","1","1.10","1.6","2023-07-19T22:25:00","120","2023/07/19","22:25:00","0","0","0.0","14","300","64","82","-1200","-4164","-26084","3","150","149.96","117.42","32.54","26.50","29.5","7.29","89652","26.13","DUALSPOT-UV-BLUE-GREEN-RED-IR","603680","646225","909505","25.615208","10.098461","0.022547","635644","836109","762264","17.693936","6.491606","0.028018","743572","855229","814310","14.304375","5.093706","0.031511","761456","886020","862694","11.100437","3.875792","0.037109","677027","832383","953341","6.939419","2.230262","0.043169","2565","4690","6073","2338","3794","4637","2315","3538","4214","2305","3356","3919","2084","2690","2976","DualSpot on"
"MA200-0416","50538","110","1","1.10","1.6","2023-07-19T22:30:00","120","2023/07/19","22:30:00","-15.785074651241302","35.03711699321866","0.1","13","300","64","81","-1160","-4800","-26591","3","150","149.45","117.74","31.71","26.35","30.0","7.38","0","0.00","DUALSPOT-UV-BLUE-GREEN-RED-IR","596980","640520","903573","26.075626","10.332005","0.022784","634672","836413","763681","18.033596","6.643712","0.028399","743659","856844","816865","14.603545","5.220086","0.032153","761061","886894","864391","11.347131","3.974455","0.037678","677784","834190","955965","7.099720","2.287675","0.046126","2296","4326","5658","2138","3556","4383","2109","3309","3976","2102","3122","3671","1901","2529","2828","DualSpot on"
"MA200-0416","50539","110","1","1.10","1.6","2023-07-19T22:35:00","120","2023/07/19","22:35:00","-15.784942209720612","35.03713548928499","0.4","13","300","64","80","-1184","-4492","-25940","3","150","149.45","117.36","32.10","26.21","30.4","7.43","0","0.00","DUALSPOT-UV-BLUE-GREEN-RED-IR","594473","639050","903391","26.478932","10.542797","0.022742","632618","835058","763534","18.337804","6.783473","0.028302","738774","852472","813622","14.872582","5.335796","0.031718","759078","885731","864064","11.571040","4.065674","0.037173","673753","830004","951632","7.243778","2.338712","0.041932","2018","3857","5074","1921","3228","3995","1903","2993","3602","1914","2851","3359","1714","2221","2462","DualSpot on"
"MA200-0416","50540","110","1","1.10","1.6","2023-07-19T22:40:00","120","2023/07/19","22:40:00","0","0","0.0","13","300","64","80","-1203","-4473","-26069","3","150","149.37","117.88","31.49","26.09","30.7","7.48","89628","25.69","DUALSPOT-UV-BLUE-GREEN-RED-IR","595851","641619","908720","26.834816","10.727406","0.022760","629899","832776","762378","18.617782","6.907111","0.027361","735419","849804","811965","15.121592","5.440033","0.031060","756657","884012","863086","11.779570","4.148161","0.036163","672811","829608","951626","7.380962","2.385588","0.039562","1773","3443","4555","1760","2910","3588","1753","2748","3306","1774","2628","3091","1625","2079","2296","DualSpot on"
"MA200-0416","50541","110","1","1.10","1.6","2023-07-19T22:45:00","120","2023/07/19","22:45:00","0","0","0.0","13","300","64","80","-1212","-4552","-26019","3","150","150.36","117.94","32.42","25.96","31.0","7.51","89624","25.56","DUALSPOT-UV-BLUE-GREEN-RED-IR","591585","637958","905003","27.145916","10.893017","0.022473","630246","834367","764702","18.865314","7.020228","0.027214","736164","851785","814572","15.339347","5.532902","0.030193","757015","885421","865092","11.964199","4.224557","0.036655","674285","832056","954837","7.501716","2.427263","0.036548","1549","3000","3973","1555","2586","3197","1532","2378","2855","1570","2364","2797","1430","1795","1970","DualSpot on"
"MA200-0416","50542","110","1","1.10","1.6","2023-07-19T22:50:00","120","2023/07/19","22:50:00","0","0","0.0","14","300","72","79","-1232","-4544","-26052","3","150","149.83","117.58","32.25","25.83","31.2","7.52","89620","25.44","DUALSPOT-UV-BLUE-GREEN-RED-IR","682627","737110","1047315","27.436856","11.048450","0.022359","626313","830222","761697","19.098386","7.126212","0.026814","845880","979880","937909","15.546647","5.622190","0.030354","868972","1017411","994781","12.137177","4.294807","0.035150","775878","958146","1100000","7.614067","2.468092","0.042649","1453","2831","3759","1469","2436","3011","1463","2298","2771","1475","2185","2574","1334","1768","1976","DualSpot on"
"MA200-0416","50543","110","1","1.10","1.6","2023-07-19T22:55:00","120","2023/07/19","22:55:00","0","0","0.0","14","300","64","79","-1240","-4420","-26072","3","150","149.33","117.62","31.70","25.73","31.5","7.54","89612","25.31","DUALSPOT-UV-BLUE-GREEN-RED-IR","588295","636052","905033","27.708190","11.195724","0.022728","627548","832867","764919","19.319722","7.226825","0.027073","734122","851370","815587","15.743412","5.706931","0.030737","754754","884528","865450","12.303033","4.362959","0.036439","670239","828241","951195","7.722774","2.506010","0.039271","1354","2728","3659","1395","2352","2924","1388","2219","2691","1414","2156","2564","1291","1670","1853","DualSpot on"
"MA200-0416","50544","110","1","1.10","1.6","2023-07-19T23:00:00","120","2023/07/19","23:00:00","0","0","0.0","14","300","64","79","-1248","-4604","-26412","3","150","149.70","117.14","32.55","25.63","31.8","7.61","89612","25.25","DUALSPOT-UV-BLUE-GREEN-RED-IR","589057","637631","908550","27.968068","11.334957","0.021790","623936","829006","762087","19.534048","7.324147","0.025779","731296","849015","814009","15.933292","5.789387","0.029445","751172","881116","862675","12.461865","4.428506","0.034454","672638","831787","955647","7.827057","2.542912","0.036826","1303","2512","3336","1356","2216","2732","1345","2102","2535","1360","2020","2383","1243","1583","1747","DualSpot on"
"MA200-0416","50545","110","1","1.10","1.6","2023-07-19T23:05:00","120","2023/07/19","23:05:00","0","0","0.0","14","300","64","78","-1256","-4480","-26047","3","150","150.43","118.14","32.29","25.54","32.1","7.65","89612","25.13","DUALSPOT-UV-BLUE-GREEN-RED-IR","585046","634212","905090","28.267922","11.491604","0.021426","624974","831544","765246","19.778916","7.433694","0.025536","728635","846946","812792","16.148266","5.881298","0.029121","752313","883414","865554","12.640947","4.500097","0.033077","670710","830040","954017","7.946476","2.584500","0.036368","1490","2849","3780","1536","2515","3104","1510","2363","2851","1520","2224","2613","1412","1799","1986","DualSpot on"
"MA200-0416","50546","110","1","1.10","1.6","2023-07-19T23:10:00","120","2023/07/19","23:10:00","0","0","0.0","14","300","64","78","-1204","-4432","-26175","3","150","150.35","117.92","32.43","25.45","32.4","7.71","89612","25.06","DUALSPOT-UV-BLUE-GREEN-RED-IR","585418","635472","908305","28.561046","11.646133","0.021270","621318","827763","762606","20.018630","7.542353","0.025463","729432","848911","815384","16.358530","5.971361","0.028573","749338","880819","863623","12.814754","4.571933","0.034230","668768","828243","952375","8.063602","2.627026","0.039918","1460","2798","3719","1507","2483","3073","1480","2305","2779","1478","2222","2634","1387","1831","2046","DualSpot on"
"MA200-0416","50547","110","1","1.10","1.6","2023-07-19T23:15:00","120","2023/07/19","23:15:00","0","0","0.0","3","300","64","77","-1220","-4445","-26158","3","150","150.69","118.38","32.31","25.36","32.7","7.77","89616","25.00","DUALSPOT-UV-BLUE-GREEN-RED-IR","582352","632940","906053","28.836808","11.797634","0.021902","622800","830726","766131","20.243120","7.644582","0.025583","726471","846381","813663","16.552734","6.056267","0.029419","749745","882151","865482","12.975480","4.637712","0.033709","669695","829966","954729","8.170727","2.665454","0.038934","1368","2754","3713","1405","2345","2915","1362","2181","2654","1362","2042","2421","1264","1661","1853","DualSpot on"
"MA200-0416","50548","110","1","1.10","1.6","2023-07-19T23:20:00","120","2023/07/19","23:20:00","0","0","0.0","0","300","64","77","-1272","-4504","-26140","3","150","150.09","117.66","32.43","25.29","33.0","7.85","0","0.00","DUALSPOT-UV-BLUE-GREEN-RED-IR","582988","634456","909604","29.117722","11.947109","0.021020","619397","827211","763688","20.469518","7.748246","0.025181","727818","848927","816796","16.751760","6.141467","0.027825","746379","879058","863047","13.142248","4.704982","0.031896","667894","828315","953207","8.280700","2.704939","0.037436","1402","2706","3614","1426","2369","2943","1404","2180","2630","1422","2080","2448","1305","1700","1892","DualSpot on"
"MA200-0416","50549","110","1","1.10","1.6","2023-07-19T23:25:00","120","2023/07/19","23:25:00","0","0","0.0","1","300","64","76","-1232","-4496","-26019","3","150","149.39","118.02","31.37","25.22","33.4","7.96","0","0.00","DUALSPOT-UV-BLUE-GREEN-RED-IR","579627","631646","906988","29.406556","12.102398","0.021587","616450","824296","761772","20.702092","7.852751","0.025441","725356","847013","815651","16.953324","6.228459","0.029288","743037","876023","860636","13.308566","4.772180","0.033649","666398","827043","952071","8.390339","2.743315","0.038162","1437","2907","3936","1460","2469","3086","1417","2302","2816","1413","2149","2560","1297","1709","1909","DualSpot on"
"MA200-0416","50550","110","1","1.10","1.6","2023-07-19T23:30:00","120","2023/07/19","23:30:00","0","0","0.0","1","300","64","75","-1196","-4420","-26140","3","150","149.90","117.66","32.23","25.17","33.6","8.03","89628","24.81","DUALSPOT-UV-BLUE-GREEN-RED-IR","576992","629684","905627","29.712338","12.268051","0.021026","618186","827723","765787","20.941964","7.964438","0.025320","723353","845675","815121","17.160536","6.317866","0.027763","745892","880256","865413","13.480789","4.843241","0.032734","665131","826105","951395","8.504887","2.784190","0.036473","1526","3018","4067","1511","2568","3217","1462","2302","2792","1468","2211","2628","1359","1771","1971","DualSpot on"
"MA200-0416","50551","110","1","1.10","1.6","2023-07-19T23:35:00","120","2023/07/19","23:35:00","0","0","0.0","1","300","64","74","-1236","-4512","-26228","3","150","149.54","117.73","31.81","25.09","33.9","8.07","89632","24.69","DUALSPOT-UV-BLUE-GREEN-RED-IR","578206","631903","910499","30.042252","12.449898","0.021294","615335","825011","764216","21.196628","8.081752","0.025121","720531","843400","813724","17.381302","6.414843","0.028643","742418","877093","862956","13.662801","4.918152","0.032915","667117","829204","955412","8.627796","2.828297","0.038008","1645","3357","4568","1603","2733","3429","1556","2530","3100","1551","2362","2818","1458","1936","2170","DualSpot on"
"MA200-0416","50552","110","1","1.10","1.6","2023-07-19T23:40:00","120","2023/07/19","23:40:00","0","0","0.0","0","300","64","74","-1228","-4572","-26016","3","150","149.57","117.94","31.63","25.02","34.1","8.12","89636","24.69","DUALSPOT-UV-BLUE-GREEN-RED-IR","574221","628583","907453","30.396694","12.643803","0.021068","611704","821361","761770","21.470234","8.208150","0.025114","721955","846222","817246","17.616036","6.516320","0.027973","739742","874922","861497","13.854984","4.995298","0.031563","665613","828026","954473","8.756649","2.874208","0.037522","1765","3601","4908","1719","2962","3732","1652","2663","3257","1634","2447","2905","1526","2027","2273","DualSpot on"
"MA200-0416","50553","110","1","1.10","1.6","2023-07-19T23:45:00","120","2023/07/19","23:45:00","0","0","0.0","1","300","64","73","-1265","-4515","-26096","3","150","150.08","117.79","32.28","24.94","34.3","8.11","89636","24.56","DUALSPOT-UV-BLUE-GREEN-RED-IR","570392","625419","904725","30.764480","12.845928","0.020581","613135","824502","765697","21.747962","8.338469","0.024645","718820","843683","815654","17.852540","6.619216","0.027047","741418","877935","865132","14.051086","5.074853","0.030543","663574","826193","952812","8.889492","2.920954","0.033440","1833","3677","4999","1747","2992","3766","1666","2646","3223","1670","2472","2925","1575","2022","2241","DualSpot on"
"MA200-0416","50554","110","1","1.10","1.6","2023-07-19T23:50:00","120","2023/07/19","23:50:00","0","0","0.0","1","300","64","73","-1246","-4553","-26119","3","150","149.45","118.10","31.35","24.88","34.4","8.11","89640","24.50","DUALSPOT-UV-BLUE-GREEN-RED-IR","571848","628088","910558","31.148514","13.058380","0.020906","610244","821881","764271","22.033932","8.473849","0.025419","716574","842185","815086","18.097250","6.727851","0.028568","738284","875289","863224","14.252587","5.157763","0.032485","661846","824742","951580","9.023396","2.970528","0.041059","1909","3980","5475","1795","3201","4080","1720","2877","3561","1711","2653","3187","1583","2209","2516","DualSpot on"
"MA200-0416","50555","110","1","1.10","1.6","2023-07-19T23:55:00","120","2023/07/19","23:55:00","0","0","0.0","1","300","64","72","-1220","-4600","-26196","3","150","150.49","117.94","32.55","24.82","34.6","8.14","0","0.00","DUALSPOT-UV-BLUE-GREEN-RED-IR","568720","625681","908896","31.513610","13.259907","0.020093","607320","819144","762687","22.311604","8.602738","0.023574","717898","844831","818514","18.333998","6.832391","0.026661","735352","872781","861448","14.443650","5.236775","0.030377","664704","828995","956952","9.153343","3.017110","0.033681","1818","3636","4957","1745","2935","3682","1666","2666","3260","1625","2435","2895","1539","1999","2225","DualSpot on"
"MA200-0416","50556","110","1","1.10","1.6","2023-07-20T00:00:00","120","2023/07/20","00:00:00","0","0","0.0","1","300","64","71","-1268","-4568","-26084","3","150","148.18","118.58","29.60","24.75","34.8","8.17","0","0.00","DUALSPOT-UV-BLUE-GREEN-RED-IR","566897","624910","909932","31.945550","13.497013","0.021129","606432","819419","764159","22.649118","8.759684","0.025811","713553","841135","815957","18.626364","6.958199","0.028784","735598","874371","863870","14.689728","5.335659","0.033306","661279","825631","953666","9.325161","3.078104","0.041461","2139","4705","6582","2110","3931","5079","2047","3529","4412","2082","3352","4076","2024","2878","3300","DualSpot on"
"MA200-0416","50557","110","1","1.10","1.6","2023-07-20T00:05:00","120","2023/07/20","00:05:00","0","0","0.0","1","300","64","71","-1188","-4448","-26112","3","150","149.66","118.21","31.45","24.69","34.9","8.16","89636","24.31","DUALSPOT-UV-BLUE-GREEN-RED-IR","564939","623739","910120","32.314708","13.705360","0.020446","605033","818746","764600","22.932662","8.895814","0.024765","711850","840258","815964","18.870218","7.066847","0.027499","734112","873624","863874","14.891920","5.419266","0.031267","660596","825488","953971","9.461956","3.127602","0.036963","1834","3891","5405","1778","3208","4115","1712","2868","3559","1716","2667","3211","1616","2198","2486","DualSpot on"
"MA200-0416","50558","110","1","1.10","1.6","2023-07-20T00:10:00","120","2023/07/20","00:10:00","0","0","0.0","2","300","64","70","-1328","-4532","-26140","3","150","150.03","118.38","31.65","24.63","35.0","8.13","89632","24.25","DUALSPOT-UV-BLUE-GREEN-RED-IR","561576","621266","908663","32.749650","13.947208","0.019934","601961","816062","763306","23.270446","9.054184","0.023732","709029","838298","815115","19.162100","7.195611","0.026614","730819","870983","862106","15.136911","5.520951","0.030725","658847","824291","953140","9.634525","3.190002","0.035812","2158","4488","6216","2115","3709","4724","2047","3377","4177","2076","3223","3881","2036","2754","3109","DualSpot on"
"MA200-0416","50559","110","1","1.10","1.6","2023-07-20T00:15:00","120","2023/07/20","00:15:00","0","0","0.0","2","300","64","70","-1296","-4408","-26132","3","150","149.59","118.34","31.26","24.57","35.0","8.08","89628","24.19","DUALSPOT-UV-BLUE-GREEN-RED-IR","556422","617547","906581","33.438598","14.312450","0.019074","597563","812554","762053","23.840888","9.318286","0.023186","704755","835672","814365","19.671958","7.416785","0.025807","726195","867713","860417","15.574650","5.696261","0.028811","655827","822212","951910","9.964870","3.310135","0.036200","3419","6863","9441","3573","6264","7990","3577","5875","7265","3711","5627","6732","3899","5369","6100","DualSpot on"
"MA200-0416","50560","110","1","1.10","1.6","2023-07-20T00:20:00","120","2023/07/20","00:20:00","0","0","0.0","1","300","64","69","-1236","-4592","-26236","3","150","150.43","118.14","32.29","24.51","35.0","8.04","89628","24.13","DUALSPOT-UV-BLUE-GREEN-RED-IR","549228","612401","903881","34.439980","14.848995","0.018236","594700","812476","765059","24.705440","9.722119","0.021818","698802","832263","813858","20.452608","7.759691","0.024181","726160","871209","866289","16.255627","5.976248","0.027297","652181","820320","951623","10.489315","3.508047","0.034697","4978","9760","13385","5425","9272","11768","5486","8817","10854","5783","8700","10396","6201","8563","9749","DualSpot on"
"MA200-0416","50561","110","1","1.10","1.6","2023-07-20T00:25:00","120","2023/07/20","00:25:00","0","0","0.0","1","300","64","69","-1208","-4552","-26100","3","150","150.30","117.91","32.39","24.44","35.1","8.02","0","0.00","DUALSPOT-UV-BLUE-GREEN-RED-IR","546687","612220","908272","35.387160","15.364407","0.017922","588425","807335","763144","25.522028","10.107171","0.021263","696034","832408","816708","21.193850","8.088571","0.023534","718695","865535","862957","16.906160","6.244230","0.026150","651557","822108","955511","10.992878","3.695726","0.031807","4718","9347","12899","5134","8813","11226","5219","8430","10412","5535","8301","9921","5966","8095","9173","DualSpot on"
"MA200-0416","50562","110","1","1.10","1.6","2023-07-20T00:30:00","120","2023/07/20","00:30:00","0","0","0.0","1","300","64","68","-1252","-4512","-26100","3","150","149.86","118.11","31.75","24.36","35.4","8.06","0","0.00","DUALSPOT-UV-BLUE-GREEN-RED-IR","540129","606474","902829","36.002760","15.712772","0.018396","586605","806993","764699","26.044240","10.358912","0.021827","690627","828025","814061","21.662634","8.299071","0.024043","717332","865908","864799","17.316500","6.416952","0.027341","647310","818320","952227","11.305119","3.814516","0.034083","3061","6445","9065","3277","5878","7595","3295","5504","6876","3485","5458","6619","3693","5226","6008","DualSpot on"
"MA200-0416","50563","110","1","1.10","1.6","2023-07-20T00:35:00","120","2023/07/20","00:35:00","0","0","0.0","1","300","64","68","-1240","-4516","-26147","3","150","149.76","118.38","31.39","24.30","35.7","8.15","0","0.00","DUALSPOT-UV-BLUE-GREEN-RED-IR","538893","605910","903837","36.346368","15.916615","0.018919","585298","806319","765173","26.326246","10.500294","0.022680","689394","827645","814609","21.912170","8.414418","0.024957","716497","865971","865655","17.530274","6.508732","0.028305","646903","818578","953057","11.459389","3.871611","0.032650","1704","3814","5458","1766","3339","4383","1750","3051","3862","1811","2933","3596","1820","2541","2908","DualSpot on"
"MA200-0416","50564","110","1","1.10","1.6","2023-07-20T00:40:00","120","2023/07/20","00:40:00","0","0","0.0","1","300","64","67","-1256","-4492","-26063","3","150","149.83","118.10","31.73","24.25","36.1","8.25","0","0.00","DUALSPOT-UV-BLUE-GREEN-RED-IR","540450","608357","909105","36.639136","16.093922","0.018860","582959","804045","763932","26.567160","10.622001","0.022380","687193","825916","813767","22.126056","8.514924","0.024813","713715","863503","863849","17.711458","6.586143","0.027350","645373","817353","952050","11.588848","3.919005","0.030538","1456","3282","4712","1512","2843","3730","1503","2629","3334","1539","2447","2985","1531","2086","2370","DualSpot on"
"MA200-0416","50565","110","1","1.10","1.6","2023-07-20T00:45:00","120","2023/07/20","00:45:00","0","0","0.0","1","300","64","67","-1356","-4436","-26096","3","150","150.01","118.09","31.92","24.19","36.4","8.33","89612","23.75","DUALSPOT-UV-BLUE-GREEN-RED-IR","538082","606346","907646","36.915308","16.264503","0.018873","581059","802315","763136","26.792012","10.737366","0.022386","688893","828859","817435","22.325612","8.606852","0.023919","710900","860929","861915","17.881294","6.659060","0.027058","643903","816081","951012","11.709991","3.963490","0.030010","1373","3138","4528","1411","2679","3527","1403","2390","3010","1442","2291","2795","1433","1946","2209","DualSpot on"
"MA200-0416","50566","110","1","1.10","1.6","2023-07-20T00:50:00","120","2023/07/20","00:50:00","0","0","0.0","1","300","64","66","-1248","-4524","-26156","3","150","149.91","117.79","32.12","24.15","36.8","8.45","0","0.00","DUALSPOT-UV-BLUE-GREEN-RED-IR","535289","603808","905241","37.172592","16.419476","0.018405","582156","804742","766269","27.008626","10.843193","0.021087","686603","827004","816301","22.517186","8.693827","0.023096","713982","865526","867112","18.048156","6.727289","0.024569","646575","820119","956109","11.830772","4.005020","0.023925","1282","2834","4061","1363","2442","3166","1350","2248","2813","1421","2131","2553","1432","1806","1997","DualSpot on"
"MA200-0416","50567","110","1","1.10","1.6","2023-07-20T00:55:00","120","2023/07/20","00:55:00","0","0","0.0","0","300","64","66","-1203","-4553","-26130","3","150","149.87","118.29","31.57","24.11","37.0","8.52","0","0.00","DUALSPOT-UV-BLUE-GREEN-RED-IR","537200","606555","910808","37.428672","16.578842","0.018837","579935","802485","764963","27.225292","10.954147","0.022253","684785","825674","815701","22.709636","8.784009","0.024308","711596","863445","865622","18.215074","6.798266","0.026692","645190","818986","955213","11.949844","4.048040","0.029158","1271","2964","4310","1357","2605","3444","1350","2371","3015","1415","2255","2755","1406","1903","2158","DualSpot on"
"MA200-0416","50568","110","1","1.10","1.6","2023-07-20T01:00:00","120","2023/07/20","01:00:00","0","0","0.0","0","300","64","65","-1315","-4546","-26115","3","150","149.46","118.13","31.34","24.05","37.3","8.59","89616","23.69","DUALSPOT-UV-BLUE-GREEN-RED-IR","535112","604740","909450","37.671700","16.731091","0.018850","578732","801593","764957","27.432042","11.060161","0.022232","683028","824340","815059","22.893668","8.869196","0.023970","709624","861876","864632","18.375280","6.865144","0.026015","643982","818064","954534","12.066196","4.089902","0.029024","1208","2853","4168","1297","2508","3325","1293","2256","2866","1360","2141","2606","1375","1866","2117","DualSpot on"
"MA200-0416","50569","110","1","1.10","1.6","2023-07-20T01:05:00","120","2023/07/20","01:05:00","0","0","0.0","1","300","64","65","-1288","-4484","-26172","3","150","149.96","118.22","31.74","24.02","37.5","8.64","89624","23.63","DUALSPOT-UV-BLUE-GREEN-RED-IR","533234","603178","908514","37.918036","16.884278","0.018552","576613","799492","763742","27.637042","11.167449","0.022226","681385","823143","814625","23.079736","8.957739","0.024172","707003","859472","862822","18.534728","6.933083","0.026106","642572","816894","953583","12.185917","4.132679","0.027365","1223","2834","4127","1285","2505","3332","1306","2315","2955","1353","2147","2621","1414","1882","2122","DualSpot on"
"MA200-0416","50570","110","1","1.10","1.6","2023-07-20T01:10:00","120","2023/07/20","01:10:00","0","0","0.0","1","300","64","64","-1296","-4540","-26152","3","150","149.59","118.29","31.30","23.99","37.7","8.67","89620","23.56","DUALSPOT-UV-BLUE-GREEN-RED-IR","531008","601204","906898","38.155848","17.035374","0.018788","574894","797871","763001","27.838178","11.271233","0.022089","679373","821484","813669","23.260514","9.042228","0.023918","705072","857884","861811","18.692428","7.000362","0.026468","641340","815936","952824","12.300388","4.173221","0.027550","1180","2835","4170","1260","2458","3273","1268","2241","2859","1337","2156","2647","1351","1809","2044","DualSpot on"
"MA200-0416","50571","110","1","1.10","1.6","2023-07-20T01:15:00","120","2023/07/20","01:15:00","0","0","0.0","2","300","64","64","-1280","-4504","-26256","3","150","149.59","118.13","31.46","23.96","37.9","8.73","89616","23.56","DUALSPOT-UV-BLUE-GREEN-RED-IR","528786","599175","905175","38.387968","17.183460","0.018662","576262","800540","766345","28.036612","11.373538","0.021812","678044","820676","813540","23.438368","9.126968","0.024049","703710","856985","861445","18.847188","7.066020","0.025827","640572","815584","952824","12.417873","4.215604","0.028119","1154","2764","4069","1245","2410","3205","1250","2236","2864","1314","2093","2561","1389","1881","2134","DualSpot on"
"MA200-0416","50572","110","1","1.10","1.6","2023-07-20T01:20:00","120","2023/07/20","01:20:00","0","0","0.0","2","300","64","63","-1268","-4468","-26119","3","150","149.76","118.38","31.39","23.92","38.1","8.78","89608","23.56","DUALSPOT-UV-BLUE-GREEN-RED-IR","526266","596788","902876","38.612552","17.326298","0.018577","573972","798086","764765","28.229530","11.473936","0.021914","679332","823000","816497","23.609578","9.206951","0.023523","705482","859892","864941","18.998368","7.129432","0.025385","638625","813684","950980","12.530445","4.254734","0.025549","1114","2672","3941","1208","2371","3167","1200","2115","2700","1281","2026","2474","1328","1741","1953","DualSpot on"
"MA200-0416","50573","110","1","1.10","1.6","2023-07-20T01:25:00","120","2023/07/20","01:25:00","0","0","0.0","2","300","64","63","-1244","-4492","-26188","3","150","149.34","118.42","30.92","23.89","38.3","8.83","89608","23.50","DUALSPOT-UV-BLUE-GREEN-RED-IR","529437","600866","910330","38.830172","17.467788","0.018809","573080","797545","764980","28.415752","11.570764","0.022023","678256","822406","816589","23.778882","9.287364","0.024113","705334","860462","866057","19.146210","7.191888","0.025980","637955","813423","951057","12.641308","4.294630","0.028814","1079","2687","4003","1165","2321","3115","1186","2159","2782","1252","2026","2492","1307","1802","2057","DualSpot on"
"MA200-0416","50574","110","1","1.10","1.6","2023-07-20T01:30:00","120","2023/07/20","01:30:00","0","0","0.0","2","300","64","62","-1252","-4500","-26156","3","150","149.96","118.66","31.31","23.87","38.5","8.87","89604","23.50","DUALSPOT-UV-BLUE-GREEN-RED-IR","525009","596295","904618","39.046356","17.604596","0.018390","572468","797434","765606","28.602042","11.667657","0.021722","677323","822053","816861","23.948462","9.366084","0.023174","703259","858692","864815","19.294118","7.253746","0.025080","637066","812872","950780","12.754353","4.334668","0.026776","1070","2566","3795","1163","2294","3073","1186","2087","2666","1250","1982","2423","1330","1786","2021","DualSpot on"
"MA200-0416","50575","110","1","1.10","1.6","2023-07-20T01:35:00","120","2023/07/20","01:35:00","0","0","0.0","0","300","64","62","-1211","-4461","-26223","3","150","150.11","118.15","31.96","23.85","38.6","8.90","89600","23.44","DUALSPOT-UV-BLUE-GREEN-RED-IR","526277","598175","908708","39.253276","17.738984","0.018311","570225","794978","763979","28.781312","11.761498","0.021283","675354","820333","815783","24.109402","9.442736","0.023044","701673","857476","864124","19.437844","7.315078","0.024732","636075","812175","950333","12.862045","4.371360","0.021932","1028","2469","3657","1124","2176","2903","1130","1991","2544","1220","1925","2350","1273","1603","1773","DualSpot on"
"MA200-0416","50576","110","1","1.10","1.6","2023-07-20T01:40:00","120","2023/07/20","01:40:00","0","0","0.0","0","300","64","61","-1236","-4448","-26052","3","150","150.07","118.56","31.51","23.82","38.7","8.92","89600","23.44","DUALSPOT-UV-BLUE-GREEN-RED-IR","524393","596517","907404","39.470152","17.875062","0.018071","568990","793981","763742","28.968232","11.854654","0.020610","673840","819239","815334","24.276734","9.519059","0.022282","699702","855773","862902","19.584192","7.374573","0.023455","639199","816762","956060","12.973244","4.409834","0.024192","1074","2536","3747","1168","2191","2900","1171","2011","2552","1238","1894","2290","1310","1705","1909","DualSpot on"
"MA200-0416","50577","110","1","1.10","1.6","2023-07-20T01:45:00","120","2023/07/20","01:45:00","0","0","0.0","1","300","64","61","-1240","-4488","-26108","3","150","149.80","117.88","31.92","23.77","38.9","8.95","0","0.00","DUALSPOT-UV-BLUE-GREEN-RED-IR","522385","594666","905844","39.677088","18.008968","0.018093","566556","791282","761855","29.146384","11.949766","0.021345","671882","817558","814296","24.440916","9.597631","0.022837","697406","853641","861289","19.727264","7.436208","0.024672","637796","815585","955027","13.082741","4.448887","0.024804","1031","2463","3654","1120","2208","2965","1156","2043","2617","1217","1937","2372","1297","1709","1921","DualSpot on"
"MA200-0416","50578","110","1","1.10","1.6","2023-07-20T01:50:00","120","2023/07/20","01:50:00","0","0","0.0","1","300","64","60","-1273","-4546","-26242","3","150","150.43","118.38","32.05","23.73","39.1","8.97","0","0.00","DUALSPOT-UV-BLUE-GREEN-RED-IR","520494","592906","904338","39.876816","18.141984","0.018260","568548","794692","765854","29.323506","12.043744","0.021130","670471","816525","813876","24.600800","9.674383","0.022776","695606","852145","860314","19.870298","7.496280","0.023632","636752","814773","954471","13.191795","4.487213","0.023591","990","2437","3645","1109","2173","2915","1121","1988","2550","1212","1880","2285","1286","1670","1868","DualSpot on"
"MA200-0416","50579","110","1","1.10","1.6","2023-07-20T01:55:00","120","2023/07/20","01:55:00","0","0","0.0","2","300","64","60","-1284","-4560","-26136","3","150","149.86","118.38","31.48","23.71","39.2","9.00","89592","23.31","DUALSPOT-UV-BLUE-GREEN-RED-IR","519610","592275","904502","40.067216","18.268158","0.018288","567428","793786","765673","29.491364","12.134689","0.021633","669600","816069","814024","24.754084","9.748693","0.023261","699990","858199","866933","20.007506","7.556461","0.025520","636061","814490","954484","13.296646","4.524925","0.026188","944","2354","3535","1051","2141","2903","1075","1959","2534","1162","1917","2376","1237","1673","1898","DualSpot on"
"MA200-0416","50580","110","1","1.10","1.6","2023-07-20T02:00:00","120","2023/07/20","02:00:00","0","0","0.0","2","300","64","59","-1264","-4408","-26175","3","150","149.94","118.29","31.64","23.69","39.3","9.03","89588","23.25","DUALSPOT-UV-BLUE-GREEN-RED-IR","520666","593824","907985","40.247108","18.388816","0.018266","565020","790981","763649","29.651326","12.221587","0.021478","670521","817805","816361","24.901930","9.821887","0.023459","695807","853697","862887","20.137820","7.614256","0.025529","633467","811650","951516","13.395851","4.562020","0.028090","893","2239","3372","1002","2035","2760","1037","1920","2495","1105","1832","2274","1171","1637","1878","DualSpot on"
"MA200-0416","50581","110","1","1.10","1.6","2023-07-20T02:05:00","120","2023/07/20","02:05:00","0","0","0.0","2","300","64","59","-1344","-4512","-26147","3","150","149.57","118.50","31.07","23.66","39.4","9.03","89584","23.25","DUALSPOT-UV-BLUE-GREEN-RED-IR","520266","593744","909009","40.437808","18.515052","0.018243","564394","790714","764081","29.821446","12.313294","0.021551","666687","813789","812934","25.055398","9.896094","0.023249","696477","855191","864892","20.274608","7.673447","0.025220","634096","812992","953460","13.500435","4.599116","0.025820","945","2386","3603","1064","2188","2978","1075","1982","2575","1158","1911","2370","1232","1667","1892","DualSpot on"
"MA200-0416","50582","110","1","1.10","1.6","2023-07-20T02:10:00","120","2023/07/20","02:10:00","0","0","0.0","1","300","64","58","-1296","-4548","-26140","3","150","149.98","118.17","31.81","23.62","39.5","9.04","89584","23.25","DUALSPOT-UV-BLUE-GREEN-RED-IR","519088","592748","908565","40.615040","18.634674","0.018118","563058","789370","763433","29.975682","12.399024","0.021515","669062","817293","817065","25.198678","9.967959","0.023344","694784","853678","863863","20.401832","7.729620","0.024882","632891","811948","952572","13.597435","4.635388","0.027308","880","2208","3334","967","1998","2725","1006","1875","2444","1080","1771","2193","1146","1593","1823","DualSpot on"
"MA200-0416","50583","110","1","1.10","1.6","2023-07-20T02:15:00","120","2023/07/20","02:15:00","0","0","0.0","1","300","64","58","-1264","-4500","-26096","3","150","150.36","118.62","31.74","23.60","39.6","9.06","89584","23.19","DUALSPOT-UV-BLUE-GREEN-RED-IR","517702","591530","907755","40.793364","18.753026","0.017958","561971","788446","763214","30.136780","12.485772","0.021019","667709","816247","816574","25.342766","10.037727","0.022597","693369","852573","863222","20.527938","7.785790","0.025184","632061","811382","952232","13.693893","4.670990","0.026672","883","2189","3301","1006","2025","2746","1008","1824","2360","1066","1775","2208","1136","1566","1789","DualSpot on"
"MA200-0416","50584","110","1","1.10","1.6","2023-07-20T02:20:00","120","2023/07/20","02:20:00","0","0","0.0","1","300","64","57","-1160","-4468","-26180","3","150","149.67","118.54","31.13","23.57","39.7","9.05","89576","23.19","DUALSPOT-UV-BLUE-GREEN-RED-IR","516274","590261","906898","40.971996","18.870854","0.017988","560846","787417","762844","30.293734","12.570465","0.021232","666090","814824","815696","25.486300","10.109282","0.023471","691214","850506","861620","20.655888","7.842654","0.025533","634082","814485","956239","13.792461","4.707382","0.027641","885","2223","3365","981","2016","2750","1005","1908","2501","1082","1832","2291","1161","1632","1877","DualSpot on"
"MA200-0416","50585","110","1","1.10","1.6","2023-07-20T02:25:00","120","2023/07/20","02:25:00","0","0","0.0","1","300","64","57","-1240","-4516","-26268","3","150","150.21","118.46","31.75","23.54","39.7","9.05","89576","23.13","DUALSPOT-UV-BLUE-GREEN-RED-IR","514839","588935","905913","41.147284","18.988338","0.017884","559145","785562","761713","30.449208","12.655676","0.021060","665269","814399","815860","25.627644","10.180339","0.023109","690480","850177","861770","20.779818","7.898271","0.025071","633527","814240","956283","13.886166","4.742391","0.026950","869","2173","3290","972","1989","2712","990","1857","2429","1049","1757","2191","1105","1540","1765","DualSpot on"
"MA200-0416","50586","110","1","1.10","1.6","2023-07-20T02:30:00","120","2023/07/20","02:30:00","0","0","0.0","1","300","64","57","-1292","-4528","-26160","3","150","150.03","118.50","31.53","23.51","39.8","9.05","89568","23.13","DUALSPOT-UV-BLUE-GREEN-RED-IR","513931","588246","905914","41.323880","19.105710","0.017807","558413","785112","761907","30.604970","12.740654","0.021002","663519","812875","814882","25.767972","10.250478","0.023023","693406","854365","866510","20.903648","7.954027","0.025243","632306","813128","955287","13.978889","4.776184","0.025720","875","2186","3313","974","1997","2727","983","1846","2417","1048","1774","2219","1093","1497","1706","DualSpot on"
"MA200-0416","50587","110","1","1.10","1.6","2023-07-20T02:35:00","120","2023/07/20","02:35:00","0","0","0.0","1","300","64","56","-1224","-4616","-26103","3","150","149.51","118.38","31.13","23.46","39.9","9.05","89564","23.06","DUALSPOT-UV-BLUE-GREEN-RED-IR","515250","590154","909931","41.502400","19.222476","0.017705","559963","787869","765197","30.760222","12.824762","0.020974","661825","811327","813970","25.910800","10.321144","0.022938","691397","852467","865053","21.029156","8.009911","0.025120","631000","811948","954212","14.072521","4.811060","0.027541","885","2203","3339","972","2003","2740","1001","1884","2469","1063","1801","2254","1104","1565","1804","DualSpot on"
"MA200-0416","50588","110","1","1.10","1.6","2023-07-20T02:40:00","120","2023/07/20","02:40:00","0","0","0.0","1","300","64","56","-1273","-4526","-26142","3","150","150.01","118.27","31.74","23.44","40.0","9.05","89564","23.06","DUALSPOT-UV-BLUE-GREEN-RED-IR","514000","589101","909352","41.683632","19.339756","0.017387","558315","786103","764167","30.918910","12.910903","0.020607","660976","810863","814058","26.053404","10.391454","0.022341","690510","851970","865050","21.154966","8.066541","0.024703","630476","811778","954390","14.169025","4.846525","0.025377","900","2170","3269","994","2012","2741","1001","1839","2395","1067","1790","2235","1139","1560","1779","DualSpot on"
"MA200-0416","50589","110","1","1.10","1.6","2023-07-20T02:45:00","120","2023/07/20","02:45:00","0","0","0.0","2","300","64","55","-1224","-4512","-26152","3","150","150.08","118.59","31.49","23.41","40.0","9.05","89564","23.00","DUALSPOT-UV-BLUE-GREEN-RED-IR","511031","586009","905678","41.859200","19.458786","0.017768","556199","783682","762472","31.077810","12.999189","0.020996","661921","812637","816403","26.196098","10.463250","0.022842","686459","847569","861055","21.280906","8.123796","0.025151","628107","809171","951688","14.263821","4.882745","0.028059","869","2220","3393","993","2078","2858","999","1892","2487","1065","1824","2292","1116","1606","1861","DualSpot on"
"MA200-0416","50590","110","1","1.10","1.6","2023-07-20T02:50:00","120","2023/07/20","02:50:00","0","0","0.0","1","300","64","55","-1280","-4544","-26168","3","150","149.39","118.54","30.85","23.39","40.1","9.07","89564","23.00","DUALSPOT-UV-BLUE-GREEN-RED-IR","511149","586496","907450","42.031384","19.573822","0.017742","555825","783711","763162","31.230326","13.082319","0.020914","661887","813166","817537","26.336754","10.532738","0.022763","686719","848476","862452","21.404914","8.178599","0.024782","628096","809652","952554","14.360878","4.918993","0.027726","853","2190","3355","953","1997","2750","985","1870","2459","1049","1782","2235","1143","1641","1900","DualSpot on"
"MA200-0416","50591","110","1","1.10","1.6","2023-07-20T02:55:00","120","2023/07/20","02:55:00","0","0","0.0","1","300","64","54","-1208","-4624","-26228","3","150","150.27","118.46","31.81","23.36","40.2","9.07","89564","22.94","DUALSPOT-UV-BLUE-GREEN-RED-IR","509081","584420","905271","42.198772","19.686890","0.017528","554225","781918","762047","31.377476","13.164979","0.020810","660577","812077","817000","26.468604","10.600101","0.022704","685730","847802","862249","21.523900","8.233288","0.024878","627590","809465","952681","14.448238","4.952757","0.027733","829","2087","3187","920","1926","2653","924","1758","2315","1007","1724","2169","1030","1482","1718","DualSpot on"
"MA200-0416","50592","110","1","1.10","1.6","2023-07-20T03:00:00","120","2023/07/20","03:00:00","0","0","0.0","1","300","64","54","-1276","-4496","-26156","3","150","149.66","118.46","31.20","23.32","40.3","9.08","89556","22.94","DUALSPOT-UV-BLUE-GREEN-RED-IR","508365","583901","905520","42.366012","19.799686","0.017598","553465","781331","762080","31.524084","13.246489","0.020843","659218","810994","816423","26.605718","10.668544","0.022518","683992","846161","861037","21.642818","8.287557","0.025082","626479","808460","951810","14.540073","4.987825","0.027954","829","2123","3259","917","1936","2675","960","1821","2397","1007","1745","2203","1082","1570","1824","DualSpot on"
"MA200-0416","50593","110","1","1.10","1.6","2023-07-20T03:05:00","120","2023/07/20","03:05:00","0","0","0.0","1","300","64","54","-1234","-4519","-26173","3","150","149.67","118.53","31.14","23.30","40.4","9.08","89560","22.94","DUALSPOT-UV-BLUE-GREEN-RED-IR","510886","587136","911501","42.533564","19.912940","0.017570","555474","784731","766051","31.673836","13.330298","0.020876","657874","809827","815863","26.741392","10.738798","0.023136","687508","851056","866500","21.763486","8.342693","0.025051","628744","811858","956160","14.631596","5.022861","0.028049","830","2136","3285","936","1995","2764","950","1873","2492","1021","1776","2245","1078","1571","1829","DualSpot on"
"MA200-0416","50594","110","1","1.10","1.6","2023-07-20T03:10:00","120","2023/07/20","03:10:00","0","0","0.0","1","300","64","53","-1226","-4496","-26100","3","150","150.03","118.89","31.13","23.27","40.5","9.09","89556","22.88","DUALSPOT-UV-BLUE-GREEN-RED-IR","509386","585766","910464","42.709292","20.027756","0.017277","554098","783343","765356","31.830922","13.417304","0.020685","656801","809094","815676","26.881254","10.809570","0.022666","685761","849493","865415","21.887608","8.399050","0.024834","627733","811027","955525","14.726597","5.059149","0.027929","868","2166","3312","979","2071","2867","976","1887","2499","1047","1816","2294","1116","1628","1896","DualSpot on"
"MA200-0416","50595","110","1","1.10","1.6","2023-07-20T03:15:00","120","2023/07/20","03:15:00","0","0","0.0","1","300","64","52","-1244","-4492","-26163","3","150","150.23","118.62","31.61","23.23","40.5","9.07","89568","22.81","DUALSPOT-UV-BLUE-GREEN-RED-IR","507612","584076","908850","42.880044","20.141582","0.017234","552686","781874","764569","31.983398","13.501472","0.020311","655005","807419","814544","27.021470","10.880850","0.022318","684012","847908","864279","22.012200","8.456654","0.024717","626619","810058","954737","14.821091","5.095278","0.026885","845","2114","3239","952","1973","2719","981","1872","2472","1053","1828","2311","1112","1596","1850","DualSpot on"
"MA200-0416","50596","110","1","1.10","1.6","2023-07-20T03:20:00","120","2023/07/20","03:20:00","0","0","0.0","1","300","64","52","-1276","-4472","-26284","3","150","150.17","118.64","31.53","23.21","40.6","9.09","89568","22.81","DUALSPOT-UV-BLUE-GREEN-RED-IR","507155","583870","909597","43.047892","20.253868","0.017220","551959","781397","764722","32.137332","13.586068","0.020198","654343","807130","814874","27.161558","10.951711","0.022169","682529","846665","863473","22.136570","8.513111","0.024168","625900","809620","954563","14.917042","5.133022","0.028333","830","2091","3211","961","1988","2741","980","1865","2464","1051","1796","2261","1129","1672","1956","DualSpot on"
"MA200-0416","50597","110","1","1.10","1.6","2023-07-20T03:25:00","120","2023/07/20","03:25:00","0","0","0.0","1","300","64","51","-1257","-4488","-26173","3","150","149.61","118.99","30.62","23.17","40.7","9.10","89568","22.81","DUALSPOT-UV-BLUE-GREEN-RED-IR","504904","581585","907010","43.211584","20.364536","0.017466","550032","779173","763188","32.284478","13.669146","0.020887","652871","805864","814131","27.298048","11.020442","0.022568","681008","845326","862639","22.257358","8.568373","0.025090","625194","809124","954339","15.007950","5.168136","0.028860","808","2122","3294","916","2011","2815","952","1863","2480","1018","1810","2306","1067","1601","1882","DualSpot on"
"MA200-0416","50598","110","1","1.10","1.6","2023-07-20T03:30:00","120","2023/07/20","03:30:00","0","0","0.0","1","300","64","51","-1262","-4478","-26162","3","150","149.72","118.67","31.05","23.14","40.9","9.11","0","0.00","DUALSPOT-UV-BLUE-GREEN-RED-IR","502966","579673","905062","43.381804","20.479190","0.017263","548188","777077","761796","32.436062","13.753808","0.020450","654838","808887","817790","27.437246","11.092281","0.022603","679183","843614","861347","22.381294","8.626500","0.025168","623875","807887","953205","15.102123","5.205105","0.028671","842","2169","3355","946","2021","2812","973","1921","2563","1047","1878","2399","1108","1663","1955","DualSpot on"
"MA200-0416","50599","110","1","1.10","1.6","2023-07-20T03:35:00","120","2023/07/20","03:35:00","0","0","0.0","1","300","64","51","-1240","-4528","-26224","3","150","149.90","118.85","31.04","23.10","40.9","9.09","0","0.00","DUALSPOT-UV-BLUE-GREEN-RED-IR","501624","578447","904160","43.551936","20.592460","0.017131","550476","780878","766155","32.592320","13.841796","0.020487","653477","807762","817248","27.578932","11.164282","0.022254","682863","848774","867128","22.507126","8.683821","0.024341","622911","807123","952664","15.199024","5.240991","0.025626","840","2143","3311","974","2101","2933","989","1925","2562","1062","1852","2349","1138","1614","1865","DualSpot on"
"MA200-0416","50600","110","1","1.10","1.6","2023-07-20T03:40:00","120","2023/07/20","03:40:00","0","0","0.0","0","300","64","49","-1280","-4496","-26140","3","150","149.53","118.96","30.57","23.08","41.0","9.10","0","0.00","DUALSPOT-UV-BLUE-GREEN-RED-IR","503052","580927","910352","43.932044","20.837806","0.016891","547846","778488","765429","32.961608","14.044004","0.020126","650738","805789","816742","27.927030","11.341597","0.022318","679766","846391","866062","22.823020","8.832121","0.025165","620767","805580","951885","15.450130","5.347353","0.032229","1876","4714","7275","2301","4904","6836","2429","4816","6448","2664","4867","6258","2948","4861","5873","DualSpot on"
"MA200-0416","50601","110","1","1.10","1.6","2023-07-20T03:45:00","120","2023/07/20","03:45:00","0","0","0.0","0","300","64","49","-1208","-4524","-26047","3","150","149.87","118.92","30.95","23.05","41.0","9.08","0","0.00","DUALSPOT-UV-BLUE-GREEN-RED-IR","496432","575971","908856","45.091044","21.528926","0.015788","540719","772758","764559","34.156604","14.667278","0.018668","642714","800605","816047","29.081830","11.901834","0.020423","671653","841280","864934","23.895606","9.309799","0.022521","617995","806204","955929","16.320568","5.693147","0.027392","5724","13116","19870","7449","14929","20558","8062","15028","19854","9049","15484","19592","10225","15608","18491","DualSpot on"
"MA200-0416","50602","110","1","1.10","1.6","2023-07-20T03:50:00","120","2023/07/20","03:50:00","0","0","0.0","0","300","64","48","-1228","-4548","-26244","3","150","149.57","118.85","30.71","23.01","41.1","9.07","0","0.00","DUALSPOT-UV-BLUE-GREEN-RED-IR","491696","572405","908374","46.006136","22.103520","0.015944","535377","768360","764186","35.107644","15.191144","0.018973","636733","796701","815941","30.010716","12.379540","0.020914","665623","837522","864597","24.763832","9.721893","0.023399","613682","803885","956032","17.037510","5.993679","0.028748","4522","10989","16969","5931","12645","17766","6488","12914","17425","7328","13462","17426","8426","13670","16515","DualSpot on"
"MA200-0416","50603","110","1","1.10","1.6","2023-07-20T03:55:00","120","2023/07/20","03:55:00","0","0","0.0","0","300","64","48","-1273","-4480","-26150","3","150","149.32","118.19","31.13","22.98","41.2","9.07","0","0.00","DUALSPOT-UV-BLUE-GREEN-RED-IR","487145","568958","907097","46.786380","22.560672","0.015022","530400","764224","763325","35.918548","15.612167","0.017598","631170","793032","815357","30.806388","12.764823","0.019112","659711","833564","863393","25.511316","10.053603","0.020798","609359","801368","955419","17.672310","6.240288","0.023956","3877","8625","13047","5086","10026","13824","5589","10275","13591","6345","10690","13517","7503","11066","13012","DualSpot on"
"MA200-0416","50604","110","1","1.10","1.6","2023-07-20T04:00:00","120","2023/07/20","04:00:00","0","0","0.0","0","300","64","47","-1260","-4500","-26060","3","150","149.57","119.09","30.47","22.96","41.2","9.06","0","0.00","DUALSPOT-UV-BLUE-GREEN-RED-IR","481633","564777","906437","47.850288","23.224026","0.015387","524238","759073","762889","37.032376","16.232204","0.018273","624133","788327","815147","31.896640","13.333669","0.020096","652476","828803","862750","26.537566","10.550344","0.022489","603826","797970","954960","18.537338","6.614069","0.027895","5247","12786","19895","6933","15084","21444","7600","15498","21171","8645","16354","21442","10146","17135","21011","DualSpot on"
"MA200-0416","50605","110","1","1.10","1.6","2023-07-20T04:05:00","120","2023/07/20","04:05:00","0","0","0.0","1","300","64","46","-1252","-4528","-26044","3","150","149.49","118.68","30.81","22.93","41.3","9.06","0","0.00","DUALSPOT-UV-BLUE-GREEN-RED-IR","476908","562193","909602","49.186156","24.027812","0.014647","518541","755497","765042","38.403020","16.984754","0.017359","614341","780925","813093","33.232560","14.025373","0.019033","641497","820144","858907","27.788398","11.153219","0.021185","595715","792057","952202","19.595238","7.067802","0.025774","6611","15325","23647","8561","18109","25681","9345","18641","25429","10573","19634","25708","12452","20575","25158","DualSpot on"
"MA200-0416","50606","110","1","1.10","1.6","2023-07-20T04:10:00","120","2023/07/20","04:10:00","0","0","0.0","1","300","64","46","-1272","-4624","-26108","3","150","150.16","119.01","31.15","22.91","41.4","9.08","89572","22.56","DUALSPOT-UV-BLUE-GREEN-RED-IR","471228","556943","904740","49.865800","24.445416","0.014550","513042","749736","762028","39.096144","17.365684","0.016992","610932","779077","813946","33.907464","14.374996","0.018570","643843","825823","867412","28.420944","11.456283","0.020474","593570","791547","953715","20.129124","7.296608","0.024840","3354","7874","12222","4317","9066","12861","4708","9319","12712","5332","9761","12753","6266","10261","12533","DualSpot on"
"MA200-0416","50607","110","1","1.10","1.6","2023-07-20T04:15:00","120","2023/07/20","04:15:00","0","0","0.0","1","300","64","45","-1296","-4528","-26175","3","150","150.41","119.01","31.40","22.88","41.4","9.08","89576","22.50","DUALSPOT-UV-BLUE-GREEN-RED-IR","470043","555891","904386","50.078392","24.593052","0.015222","514891","753132","766458","39.311184","17.494268","0.017686","609571","778056","813758","34.115572","14.489090","0.019111","642130","824401","866738","28.615112","11.552792","0.020867","592494","790866","953512","20.294484","7.365198","0.023312","1049","2761","4413","1339","3035","4395","1451","3016","4171","1636","3083","4062","1941","3051","3683","DualSpot on"
"MA200-0416","50608","110","1","1.10","1.6","2023-07-20T04:20:00","120","2023/07/20","04:20:00","0","0","0.0","1","300","68","45","-1232","-4464","-26052","4","150","150.16","117.98","32.18","22.86","41.7","9.17","0","0.00","DUALSPOT-UV-BLUE-GREEN-RED-IR","822032","726007","909758","0.000000","0.000000","0.000000","776362","900267","762235","0.000000","0.000000","0.000000","871062","905926","815247","0.000000","0.000000","0.000000","855108","921744","861286","0.000000","0.000000","0.000000","730622","856581","953762","0.000000","0.000000","0.000000","","","","","","","","","","","","","","","","Tape advance-DualSpot on"
"MA200-0416","50609","110","1","1.10","1.6","2023-07-20T04:25:00","120","2023/07/20","04:25:00","0","0","0.0","1","300","68","44","-1248","-4552","-26212","4","150","150.29","118.77","31.52","22.80","41.8","9.13","0","0.00","DUALSPOT-UV-BLUE-GREEN-RED-IR","812599","722984","908405","0.000000","0.000000","0.000000","769866","897730","761716","0.000000","0.000000","0.000000","864277","903172","814218","0.000000","0.000000","0.000000","855184","925387","865923","0.000000","0.000000","0.000000","727051","854668","952493","0.000000","0.000000","0.000000","","","","","","","","","","","","","","","","Tape advance-DualSpot on"
"MA200-0416","50610","110","1","1.10","1.6","2023-07-20T04:30:00","120","2023/07/20","04:30:00","0","0","0.0","1","300","64","43","-1236","-4544","-26112","4","150","149.90","118.18","31.72","22.78","41.9","9.14","89576","22.38","DUALSPOT-UV-BLUE-GREEN-RED-IR","802591","719431","906467","1.027474","0.283790","0.000000","767194","899736","765060","0.793725","0.222099","0.000000","862293","905517","817868","0.677794","0.187271","0.000000","849139","922500","864579","0.550536","0.152641","0.000000","723749","853125","951669","0.368223","0.093491","0.000000","5106","5255","5106","4979","5191","4979","4761","4901","4761","4673","4828","4673","4352","4117","4352","DualSpot on"
"MA200-0416","50611","110","1","1.10","1.6","2023-07-20T04:35:00","120","2023/07/20","04:35:00","0","0","0.0","1","300","64","42","-1257","-4526","-26219","4","150","149.83","118.70","31.13","22.73","42.0","9.14","89588","22.38","DUALSPOT-UV-BLUE-GREEN-RED-IR","796021","716957","905145","1.706402","0.480262","0.000000","762834","897684","764419","1.281883","0.362831","0.000000","858397","904025","817463","1.086092","0.305151","0.000000","845470","920616","863604","0.877584","0.248307","0.000000","725831","856900","956429","0.579576","0.150313","0.000000","3359","3706","3359","3048","3350","3048","2855","3143","2855","2764","3082","2764","2487","2549","2487","DualSpot on"
"MA200-0416","50612","110","1","1.10","1.6","2023-07-20T04:40:00","120","2023/07/20","04:40:00","0","0","0.0","1","300","64","42","-1268","-4380","-26080","4","150","149.80","118.38","31.42","22.70","42.1","9.17","89588","22.31","DUALSPOT-UV-BLUE-GREEN-RED-IR","796435","719851","910102","2.203477","0.624197","0.000000","758847","895115","762954","1.615133","0.458730","0.000000","855763","902984","817140","1.355421","0.381922","0.000000","843152","919429","863003","1.084840","0.307440","0.000000","724415","856028","955767","0.707798","0.184406","0.000000","2466","2690","2466","2086","2262","2086","1888","2028","1888","1756","1888","1756","1513","1515","1513","DualSpot on"
"MA200-0416","50613","110","1","1.10","1.6","2023-07-20T04:45:00","120","2023/07/20","04:45:00","0","0","0.0","0","300","64","41","-1304","-4456","-26075","4","150","150.31","118.98","31.33","22.66","42.2","9.17","0","0.00","DUALSPOT-UV-BLUE-GREEN-RED-IR","788671","715626","906216","2.753558","0.785316","0.000000","758265","896872","765307","1.994938","0.570423","0.000000","850550","899445","814689","1.664495","0.472181","0.000000","843520","921425","865493","1.326608","0.377559","0.000000","720894","852832","952599","0.862056","0.226127","0.000000","2715","3020","2715","2366","2642","2366","2156","2391","2156","2038","2245","2038","1811","1860","1811","DualSpot on"
"MA200-0416","50614","110","1","1.10","1.6","2023-07-20T04:50:00","120","2023/07/20","04:50:00","0","0","0.0","1","300","64","41","-1292","-4416","-26068","4","150","149.51","118.89","30.61","22.63","42.3","9.15","0","0.00","DUALSPOT-UV-BLUE-GREEN-RED-IR","785406","715490","907523","3.311243","0.949602","0.050777","756299","896903","766155","2.372604","0.680261","0.000000","848677","899442","815407","1.973229","0.560909","0.000000","842392","921812","866427","1.570150","0.446421","0.000000","720606","853482","953715","1.017080","0.267227","0.000000","2755","3152","3311","2354","2660","2354","2155","2406","2155","2055","2256","2055","1821","1875","1821","DualSpot on"
"MA200-0416","50615","110","1","1.10","1.6","2023-07-20T04:55:00","120","2023/07/20","04:55:00","0","0","0.0","1","300","64","40","-1260","-4480","-26175","4","150","149.96","118.70","31.27","22.60","42.4","9.16","89600","22.19","DUALSPOT-UV-BLUE-GREEN-RED-IR","781338","714133","907130","3.786743","1.092939","0.044543","753453","895584","765763","2.693522","0.773979","0.000000","845954","898209","814885","2.231741","0.635891","0.000000","839520","919976","865195","1.768798","0.503718","0.000000","719173","852537","952984","1.141122","0.299029","0.000000","2353","2692","2830","2004","2221","2004","1808","1991","1808","1679","1838","1679","1459","1420","1459","DualSpot on"
"MA200-0416","50616","110","1","1.10","1.6","2023-07-20T05:00:00","120","2023/07/20","05:00:00","0","0","0.0","1","300","64","40","-1280","-4452","-26208","4","150","149.63","118.54","31.10","22.56","42.4","9.14","89600","22.19","DUALSPOT-UV-BLUE-GREEN-RED-IR","773950","711151","905398","4.541886","1.319156","0.036705","748054","892693","764545","3.255620","0.940662","0.047602","841761","896755","814690","2.701783","0.772815","0.000000","836378","919021","865244","2.148918","0.613200","0.000000","717295","851938","952954","1.399494","0.368862","0.000000","3741","4272","4490","3515","3973","4160","3292","3655","3292","3217","3532","3217","3044","3137","3044","DualSpot on"
"MA200-0416","50617","110","1","1.10","1.6","2023-07-20T05:05:00","120","2023/07/20","05:05:00","0","0","0.0","1","300","64","39","-1211","-4384","-26511","4","150","149.76","118.89","30.87","22.54","42.5","9.16","89604","22.13","DUALSPOT-UV-BLUE-GREEN-RED-IR","770306","710100","905374","5.020981","1.465457","0.039669","745727","891943","764665","3.582040","1.038141","0.048722","839324","895834","814519","2.970874","0.851875","0.000000","833014","916689","863592","2.357853","0.673562","0.000000","715917","851113","952337","1.531677","0.403456","0.000000","2366","2783","2955","2035","2340","2465","1879","2126","1879","1763","1961","1763","1553","1565","1553","DualSpot on"
