"Serial number","Datum ID","Session ID","Data format version","Firmware version","App version","Date / time local","Timezone offset (mins)","Date local (yyyy/MM/dd)","Time local (hh:mm:ss)","GPS lat (ddmm.mmmmm)","GPS long (dddmm.mmmmm)","GPS speed (km/h)","GPS sat count","Timebase (s)","Status","Battery remaining (%)","Accel X","Accel Y","Accel Z","Tape position","Flow setpoint (mL/min)","Flow total (mL/min)","Flow1 (mL/min)","Flow2 (mL/min)","Sample temp (C)","Sample RH (%)","Sample dewpoint (C)","Internal pressure (Pa)","Internal temp (C)","Optical config","UV Sen1","UV Sen2","UV Ref","UV ATN1","UV ATN2","UV K","Blue Sen1","Blue Sen2","Blue Ref","Blue ATN1","Blue ATN2","Blue K","Green Sen1","Green Sen2","Green Ref","Green ATN1","Green ATN2","Green K","Red Sen1","Red Sen2","Red Ref","Red ATN1","Red ATN2","Red K","IR Sen1","IR Sen2","IR Ref","IR ATN1","IR ATN2","IR K","UV BC1","UV BC2","UV BCc","Blue BC1","Blue BC2","Blue BCc","Green BC1","Green BC2","Green BCc","Red BC1","Red BC2","Red BCc","IR BC1","IR BC2","IR BCc","Readable status"
"MA200-0416","18600","54","1","1.10","1.4","2023-05-03T07:16:30","120","2023/05/03","07:16:30","-15.800464034080505","35.02817499637604","0.0","14","30","66","85","-9872","-24544","184","13","150","150.31","116.79","33.52","21.14","66.4","14.64","89988","21.31","DUALSPOT-UV-BLUE-GREEN-RED-IR","872924","742775","907019","0.000000","0.000000","0.000000","820263","924993","762573","0.000000","0.000000","0.000000","916183","926522","814615","0.000000","0.000000","0.000000","896410","942501","863811","0.000000","0.000000","0.000000","764340","868430","956551","0.000000","0.000000","0.000000","","","","","","","","","","","","","","","","Start up"
"MA200-0416","18601","54","1","1.10","1.4","2023-05-03T07:17:00","120","2023/05/03","07:17:00","-15.800470232963562","35.02817482687533","0.0","15","30","66","86","-9936","-24444","-24","13","150","150.31","116.74","33.57","21.18","66.5","14.70","0","0.00","DUALSPOT-UV-BLUE-GREEN-RED-IR","868268","739848","903891","0.000000","0.000000","0.000000","817466","922744","761009","0.000000","0.000000","0.000000","917238","928370","816488","0.000000","0.000000","0.000000","891781","938265","860183","0.000000","0.000000","0.000000","761083","865288","953203","0.000000","0.000000","0.000000","","","","","","","","","","","","","","","","Start up"
"MA200-0416","18602","54","1","1.10","1.4","2023-05-03T07:17:30","120","2023/05/03","07:17:30","-15.800471663475037","35.0281673297286","0.0","15","30","66","85","-9948","-24472","364","13","150","149.57","116.31","33.26","21.21","66.5","14.73","0","0.00","DUALSPOT-UV-BLUE-GREEN-RED-IR","865333","738500","902710","0.000000","0.000000","0.000000","815236","921273","760075","0.000000","0.000000","0.000000","915420","927420","815912","0.000000","0.000000","0.000000","890041","937183","859428","0.000000","0.000000","0.000000","759928","864465","952504","0.000000","0.000000","0.000000","","","","","","","","","","","","","","","","Start up"
"MA200-0416","18603","54","1","1.10","1.4","2023-05-03T07:18:00","120","2023/05/03","07:18:00","-15.800472021102905","35.0281724948436","0.0","15","30","66","86","-9900","-24392","419","13","150","149.43","116.55","32.88","21.25","66.6","14.78","89992","21.25","DUALSPOT-UV-BLUE-GREEN-RED-IR","866266","741107","906586","0.000000","0.000000","0.000000","815712","923518","762366","0.000000","0.000000","0.000000","915661","929107","817815","0.000000","0.000000","0.000000","891646","940119","862422","0.000000","0.000000","0.000000","760726","866207","954690","0.000000","0.000000","0.000000","","","","","","","","","","","","","","","","Start up"
"MA200-0416","18604","54","1","1.10","1.4","2023-05-03T07:18:30","120","2023/05/03","07:18:30","-15.800472378730774","35.028160493820906","0.0","15","30","66","85","-10136","-24540","716","13","150","149.83","116.39","33.44","21.29","66.7","14.84","89996","21.19","DUALSPOT-UV-BLUE-GREEN-RED-IR","863875","740527","906464","0.000000","0.000000","0.000000","814934","923995","763146","0.000000","0.000000","0.000000","913660","928311","817388","0.000000","0.000000","0.000000","890353","939725","862307","0.000000","0.000000","0.000000","759537","865535","954162","0.000000","0.000000","0.000000","","","","","","","","","","","","","","","","Start up"
"MA200-0416","18605","54","1","1.10","1.4","2023-05-03T07:19:00","120","2023/05/03","07:19:00","-15.800467252731323","35.02816132828593","0.1","15","30","64","85","-9884","-24364","184","13","150","150.17","116.47","33.70","21.32","66.8","14.89","89996","21.19","DUALSPOT-UV-BLUE-GREEN-RED-IR","859447","740332","907660","0.000000","0.000000","0.000000","811161","923338","763499","0.000000","0.000000","0.000000","910282","927906","817861","0.000000","0.000000","0.000000","887407","939167","862515","0.000000","0.000000","0.000000","757696","865132","954295","0.000000","0.000000","0.000000","","","","","","","","","","","","","","","",""
"MA200-0416","18606","54","1","1.10","1.4","2023-05-03T07:19:30","120","2023/05/03","07:19:30","-15.80046808719635","35.02816432714462","0.0","15","30","64","85","-10019","-24492","646","13","150","149.61","116.17","33.44","21.36","66.8","14.94","89996","21.19","DUALSPOT-UV-BLUE-GREEN-RED-IR","853068","737924","905892","0.543703","0.131574","0.000000","806396","920967","762308","0.430709","0.100107","0.000000","906087","926303","817156","0.369728","0.084710","0.000000","883146","936910","861045","0.303518","0.066751","0.000000","755339","863976","953480","0.223695","0.049921","0.000000","27489","23113","27489","27485","22195","27485","26423","21034","26423","26212","20029","26212","26899","20857","26899",""
"MA200-0416","18607","54","1","1.10","1.4","2023-05-03T07:20:00","120","2023/05/03","07:20:00","-15.800473034381866","35.02817016094923","0.0","15","30","64","85","-9903","-24369","203","13","150","149.73","116.32","33.41","21.38","66.8","14.96","89992","21.19","DUALSPOT-UV-BLUE-GREEN-RED-IR","850762","738747","908119","1.087441","0.268348","0.000000","804375","921530","763534","0.864565","0.206089","0.000000","899363","921890","813949","0.742924","0.173032","0.000000","884138","940056","864539","0.614500","0.139557","0.000000","755217","865192","955350","0.445232","0.104397","0.000000","27455","24045","27455","27649","23516","27649","26636","21948","26636","26821","21863","26821","26604","22778","26604",""
"MA200-0416","18608","54","1","1.10","1.4","2023-05-03T07:20:30","120","2023/05/03","07:20:30","-15.800473630428314","35.028166161850095","0.0","15","30","64","85","-9852","-24280","368","13","150","149.67","116.51","33.16","21.43","66.8","15.01","89996","21.19","DUALSPOT-UV-BLUE-GREEN-RED-IR","851095","740823","911390","1.432520","0.354532","0.000000","799117","917257","760450","1.135975","0.272167","0.000000","898123","922145","814620","0.977319","0.230515","0.000000","882823","939997","864839","0.809270","0.185566","0.000000","754403","865095","955534","0.585144","0.138913","0.000000","17395","15267","17395","17268","14774","17268","16702","14393","16702","16771","13922","16771","16774","14542","16774",""
"MA200-0416","18609","54","1","1.10","1.4","2023-05-03T07:21:00","120","2023/05/03","07:21:00","-15.800475895404816","35.02816132828593","0.0","16","30","64","85","-9932","-24368","427","13","150","149.98","116.80","33.18","21.45","66.9","15.04","89996","21.25","DUALSPOT-UV-BLUE-GREEN-RED-IR","848259","739801","910713","1.704540","0.421964","0.000000","802302","922312","765004","1.343560","0.321626","0.000000","897012","922189","814938","1.154453","0.270009","0.000000","882714","940898","865919","0.955951","0.218564","0.000000","749950","860684","950883","0.693473","0.163563","0.000000","13679","11937","13679","13175","11050","13175","12590","9882","12590","12599","9977","12599","12956","10378","12956",""
"MA200-0416","18610","54","1","1.10","1.4","2023-05-03T07:21:30","120","2023/05/03","07:21:30","-15.800475239753723","35.02815532684326","0.0","16","30","64","85","-9976","-24460","384","13","150","150.01","116.67","33.34","21.49","66.9","15.08","89992","21.19","DUALSPOT-UV-BLUE-GREEN-RED-IR","840112","734466","904831","2.028423","0.501771","0.000000","796447","917279","761277","1.592260","0.380456","0.000000","895225","921855","815057","1.365900","0.320118","0.000000","881906","941270","866612","1.130569","0.257224","0.000000","749479","860972","951421","0.818752","0.191238","0.000000","16305","14060","16305","15802","13082","15802","15046","12479","15046","15016","11634","15016","15000","11596","15000",""
"MA200-0416","18611","54","1","1.10","1.4","2023-05-03T07:22:00","120","2023/05/03","07:22:00","-15.800466001033783","35.02815982699394","0.0","16","30","64","85","-9932","-24580","156","13","150","149.73","116.71","33.02","21.51","66.9","15.09","89992","21.25","DUALSPOT-UV-BLUE-GREEN-RED-IR","839788","735086","905957","2.201495","0.544706","0.000000","796323","917954","762047","1.719451","0.410593","0.000000","895475","922841","816095","1.474356","0.344252","0.000000","875276","934800","860828","1.221078","0.277477","0.000000","749368","861253","951895","0.885746","0.205875","0.000000","8710","7637","8710","8078","6766","8078","7715","6068","7715","7780","6153","7780","8018","6192","8018",""
"MA200-0416","18612","54","1","1.10","1.4","2023-05-03T07:22:30","120","2023/05/03","07:22:30","-15.800467550754547","35.02816182747483","0.0","16","30","64","85","-10056","-24560","356","13","150","149.91","116.45","33.46","21.54","66.8","15.11","89996","21.25","DUALSPOT-UV-BLUE-GREEN-RED-IR","838766","735061","906318","2.363776","0.584426","0.000000","795182","917475","761855","1.838392","0.438219","0.000000","894684","922757","816221","1.576757","0.366979","0.000000","875708","935892","861948","1.303947","0.293731","0.000000","749397","861710","952514","0.947511","0.220170","0.000000","8185","6973","8185","7571","6121","7571","7300","5639","7300","7139","4874","7139","7409","5968","7409",""
"MA200-0416","18613","54","1","1.10","1.4","2023-05-03T07:23:00","120","2023/05/03","07:23:00","-15.800469934940338","35.02815382741392","0.0","16","30","64","85","-9996","-24592","192","13","150","149.90","116.75","33.15","21.58","66.8","15.13","89996","21.31","DUALSPOT-UV-BLUE-GREEN-RED-IR","838218","735696","907593","2.567993","0.637952","0.000000","795245","918568","763065","1.989692","0.476020","0.000000","894025","922954","816656","1.705081","0.396913","0.000000","875150","936050","862330","1.410085","0.318747","0.000000","749006","861743","952755","1.024431","0.237432","0.000000","10274","9483","10274","9607","8453","9607","9125","7496","9125","9121","7571","9121","9203","7274","9203",""
"MA200-0416","18614","54","1","1.10","1.4","2023-05-03T07:23:30","120","2023/05/03","07:23:30","-15.800463378429413","35.028156662359834","0.1","16","30","64","84","-9748","-24336","444","13","150","149.33","116.95","32.38","21.61","66.7","15.15","89996","21.31","DUALSPOT-UV-BLUE-GREEN-RED-IR","835684","734456","906460","2.743061","0.681959","0.000000","793039","916929","761921","2.116543","0.505233","0.000000","892884","922539","816464","1.811498","0.421595","0.000000","874208","935685","862141","1.497000","0.337206","0.000000","748371","861461","952574","1.087522","0.252063","0.000000","8792","7982","8792","8041","6688","8041","7554","6328","7554","7456","5719","7456","7536","6312","7536",""
"MA200-0416","18615","54","1","1.10","1.4","2023-05-03T07:24:00","120","2023/05/03","07:24:00","-15.800465524196625","35.02816666290164","0.0","16","30","64","85","-10026","-24492","569","13","150","149.76","116.87","32.90","21.64","66.6","15.16","89988","21.38","DUALSPOT-UV-BLUE-GREEN-RED-IR","837338","736693","909555","2.891763","0.719184","0.000000","794584","919449","764230","2.223110","0.531250","0.000000","888577","918714","813278","1.900643","0.442070","0.000000","876600","938771","865158","1.571345","0.353818","0.000000","749312","862869","954246","1.141019","0.264335","0.000000","7473","6646","7473","6760","5862","6760","6332","5167","6332","6382","5066","6382","6394","5211","6394",""
"MA200-0416","18616","54","1","1.10","1.4","2023-05-03T07:24:30","120","2023/05/03","07:24:30","-15.800464689731598","35.028138825669885","0.0","16","30","64","85","-9946","-24373","84","13","150","150.05","117.12","32.93","21.66","66.5","15.15","0","0.00","DUALSPOT-UV-BLUE-GREEN-RED-IR","831562","732539","904786","3.057026","0.760957","-0.050765","795146","920969","765689","2.344435","0.560665","0.000000","888370","919238","813899","2.002143","0.466025","0.000000","876340","939116","865622","1.654124","0.372898","0.000000","749378","863410","954960","1.203609","0.278534","0.000000","8287","7451","7174","7679","6622","7679","7194","6040","7194","7090","5813","7090","7465","6024","7465",""
"MA200-0416","18617","54","1","1.10","1.4","2023-05-03T07:25:00","120","2023/05/03","07:25:00","-15.800463557243347","35.02813899330795","0.0","16","30","64","85","-9996","-24448","268","13","150","150.39","117.09","33.30","21.70","66.4","15.18","0","0.00","DUALSPOT-UV-BLUE-GREEN-RED-IR","828636","731500","904192","3.323430","0.831449","-0.030776","788381","914628","760843","2.549201","0.612979","0.000000","886752","918874","813945","2.175743","0.508880","0.000000","875867","939695","866459","1.796245","0.407629","0.000000","748779","863410","955252","1.305830","0.304380","0.000000","13363","12433","12123","12963","11646","12963","12308","10684","12308","12177","10464","12177","12195","10842","12195",""
"MA200-0416","18618","54","1","1.10","1.4","2023-05-03T07:25:30","120","2023/05/03","07:25:30","-15.80045735836029","35.028150828555226","0.0","16","30","64","85","-10108","-24580","448","13","150","149.83","116.95","32.88","21.73","66.4","15.18","89996","21.44","DUALSPOT-UV-BLUE-GREEN-RED-IR","828615","732449","905822","3.535822","0.886537","-0.032689","787919","915031","761440","2.708113","0.651628","0.000000","886746","919663","814888","2.311218","0.539898","0.000000","870026","934134","861523","1.909583","0.433379","0.000000","749222","864403","956469","1.387327","0.323399","0.000000","10667","9839","9562","10073","8712","10073","9617","7831","9617","9723","7855","9723","9735","8079","9735",""
"MA200-0416","18619","54","1","1.10","1.4","2023-05-03T07:26:00","120","2023/05/03","07:26:00","-15.800460755825043","35.02816599421203","0.1","16","30","64","85","-9644","-24316","2200","13","150","149.96","117.42","32.54","21.77","66.3","15.20","89996","21.50","DUALSPOT-UV-BLUE-GREEN-RED-IR","828853","733379","907243","3.660761","0.918533","-0.030784","788681","916536","762836","2.797270","0.672334","0.000000","887040","920503","815764","2.386874","0.557554","0.000000","869787","934335","861823","1.970601","0.445699","0.000000","748833","864260","956426","1.432579","0.334836","0.000000","6249","5775","5616","5628","4717","5628","5349","4504","5349","5213","3798","5213","5383","4910","5383",""
"MA200-0416","18620","54","1","1.10","1.4","2023-05-03T07:26:30","120","2023/05/03","07:26:30","-15.800472855567932","35.02822599373758","2.2","16","30","64","84","-11712","-23824","296","13","150","149.43","116.25","33.18","21.79","66.2","15.20","89992","21.50","DUALSPOT-UV-BLUE-GREEN-RED-IR","828330","733558","907745","3.779432","0.950096","-0.026552","787946","916268","762786","2.882791","0.691862","0.000000","885701","919639","815134","2.458251","0.573742","0.000000","868511","933419","861119","2.030116","0.458735","0.000000","743961","858888","950575","1.474348","0.344915","0.000000","5996","5586","5449","5453","4362","5453","5097","4050","5097","5136","3941","5136","5019","4242","5019",""
"MA200-0416","18621","54","1","1.10","1.4","2023-05-03T07:27:00","120","2023/05/03","07:27:00","-15.80058753490448","35.0282851587981","0.0","16","30","64","85","-10112","-24204","2680","13","150","150.43","117.10","33.32","21.82","66.0","15.19","89992","21.56","DUALSPOT-UV-BLUE-GREEN-RED-IR","828577","734784","909701","3.942295","0.989812","-0.059835","787438","916665","763344","2.998710","0.718009","0.000000","886293","921055","816586","2.555478","0.593495","0.000000","871149","936936","864499","2.110391","0.474304","0.000000","745325","860944","952982","1.532146","0.355314","0.000000","8168","7001","6609","7338","5817","7338","6893","4921","6893","6877","4687","6877","6894","4359","6894",""
"MA200-0416","18622","54","1","1.10","1.4","2023-05-03T07:27:30","120","2023/05/03","07:27:30","-15.800597488880157","35.028303327038884","1.2","16","30","64","85","-11628","-22768","4488","13","150","149.31","117.06","32.24","21.85","65.6","15.11","89988","21.56","DUALSPOT-UV-BLUE-GREEN-RED-IR","825826","734741","910657","4.357103","1.097551","-0.018913","786487","917927","765108","3.334212","0.806022","-0.020050","884198","920995","817171","2.845908","0.668585","0.000000","869237","936677","864818","2.352804","0.534701","0.000000","743957","860564","953054","1.711662","0.401703","0.000000","20812","19627","19228","21246","20236","19914","20597","19336","20597","20775","18794","20775","21421","20099","21421",""
"MA200-0416","18623","54","1","1.10","1.4","2023-05-03T07:28:00","120","2023/05/03","07:28:00","-15.800038695335388","35.028616493567824","3.0","16","30","64","84","-4816","-26428","2912","13","150","150.49","117.00","33.49","21.88","65.1","15.02","90016","21.56","DUALSPOT-UV-BLUE-GREEN-RED-IR","822132","733415","909939","4.742403","1.200761","-0.019809","783788","916721","764683","3.636491","0.886100","-0.030029","881660","920047","816850","3.108097","0.736249","-0.047612","868256","937065","865636","2.570998","0.591379","0.000000","743207","860648","953522","1.871021","0.444061","0.000000","19342","18101","17681","19152","17726","17267","18604","16774","16206","18709","16979","18709","19026","17668","19026",""
"MA200-0416","18624","54","1","1.10","1.4","2023-05-03T07:28:30","120","2023/05/03","07:28:30","-15.798592805862427","35.028683830052614","7.0","16","30","64","85","-8796","-24504","2240","13","150","150.07","116.96","33.11","21.90","64.7","14.94","90096","21.56","DUALSPOT-UV-BLUE-GREEN-RED-IR","822399","734436","911503","4.910581","1.244913","-0.021979","783904","917592","765601","3.759551","0.917358","-0.041873","881129","920068","817090","3.211057","0.762904","-0.039376","867501","936756","865499","2.655726","0.611287","0.000000","742707","860409","953372","1.933462","0.460308","0.000000","8446","7831","7623","7800","6998","6739","7308","6683","6488","7268","6032","7268","7458","6854","7458",""
"MA200-0416","18625","54","1","1.10","1.4","2023-05-03T07:29:00","120","2023/05/03","07:29:00","-15.79796290397644","35.028713995590806","0.1","16","30","64","85","-9115","-24215","3323","13","150","149.80","117.20","32.60","21.92","64.3","14.88","90128","21.50","DUALSPOT-UV-BLUE-GREEN-RED-IR","821215","734081","911412","5.037820","1.281168","0.006295","782806","916940","765254","3.851205","0.941783","-0.015237","880329","919817","817002","3.289462","0.782775","-0.040082","866904","936568","865486","2.720272","0.627392","0.000000","742316","860243","953332","1.979175","0.472445","0.000000","6376","6532","6585","5797","5554","5476","5554","5061","4907","5525","4956","5525","5448","5201","5448",""
"MA200-0416","18626","54","1","1.10","1.4","2023-05-03T07:29:30","120","2023/05/03","07:29:30","-15.79787790775299","35.02973199263215","13.3","16","30","64","84","-9173","-24219","3650","13","150","150.01","117.06","32.94","21.93","64.2","14.86","90044","21.56","DUALSPOT-UV-BLUE-GREEN-RED-IR","819592","733411","910973","5.190389","1.320158","-0.027063","781654","916338","764982","3.965342","0.968599","-0.070491","879629","919769","817125","3.387052","0.804829","-0.102825","867286","937575","866559","2.802455","0.645375","0.000000","742627","860975","954233","2.037651","0.485420","0.000000","7655","6952","6712","7227","6034","5648","6921","5558","5133","7043","5476","7043","6977","5502","6977",""
"MA200-0416","18627","54","1","1.10","1.4","2023-05-03T07:30:00","120","2023/05/03","07:30:00","-15.797854244709015","35.03317516297102","13.5","15","30","64","84","-10528","-24316","2616","13","150","149.76","116.94","32.82","21.95","63.8","14.78","89980","21.56","DUALSPOT-UV-BLUE-GREEN-RED-IR","813308","728929","905882","5.385535","1.371486","-0.017126","776606","911500","761252","4.112846","1.008802","-0.009713","879037","920048","817672","3.511584","0.837004","-0.033208","865891","936847","866107","2.904451","0.670326","0.000000","741608","860326","953749","2.112123","0.504182","0.000000","9801","9184","8974","9350","9079","8991","8841","8138","7918","8750","7626","8750","8896","7985","8896",""
"MA200-0416","18628","54","1","1.10","1.4","2023-05-03T07:30:30","120","2023/05/03","07:30:30","-15.796935021877289","35.03582415729761","5.1","15","30","64","84","-8047","-24780","2852","13","150","149.67","117.24","32.43","21.96","63.4","14.70","90020","21.56","DUALSPOT-UV-BLUE-GREEN-RED-IR","810309","727872","905297","5.671441","1.446310","-0.013784","774485","910574","760918","4.330569","1.064765","-0.023958","872603","914644","813291","3.698922","0.885838","-0.022216","864534","936509","866170","3.059826","0.710910","-0.025634","740591","859918","953516","2.224517","0.531580","0.000000","14324","13550","13285","13767","12791","12473","13266","12500","12259","13296","12554","12329","13392","11800","13392",""
"MA200-0416","18629","54","1","1.10","1.4","2023-05-03T07:31:00","120","2023/05/03","07:31:00","-15.79692167043686","35.036712657660246","4.6","15","30","64","84","-11668","-21880","7768","13","150","149.87","116.79","33.07","21.98","63.2","14.65","90040","21.63","DUALSPOT-UV-BLUE-GREEN-RED-IR","809014","728106","906200","5.948075","1.518842","-0.018581","774139","911533","762103","4.541951","1.119524","-0.028079","871690","914889","813853","3.879643","0.930446","-0.052366","864227","937223","867106","3.208387","0.745916","-0.087284","740823","860850","954801","2.329048","0.555931","0.000000","13912","12881","12527","13417","12273","11899","12846","11197","10677","12761","10618","9969","12502","10285","12502",""
"MA200-0416","18630","54","1","1.10","1.4","2023-05-03T07:31:30","120","2023/05/03","07:31:30","-15.798002064228058","35.03671965748072","0.0","15","30","64","84","-10972","-23832","1643","13","150","150.49","117.55","32.94","22.01","63.0","14.64","89976","21.63","DUALSPOT-UV-BLUE-GREEN-RED-IR","805998","726490","904653","6.152865","1.572006","-0.017802","771770","909762","760928","4.698277","1.157432","-0.046251","869671","913670","812999","4.012001","0.961316","-0.070483","862125","935659","865907","3.318316","0.771546","-0.084385","738912","859131","953078","2.408800","0.576319","0.000000","10232","9480","9222","9858","8532","8098","9347","7780","7287","9382","7806","7329","9477","8647","9477",""
"MA200-0416","18631","54","1","1.10","1.4","2023-05-03T07:32:00","120","2023/05/03","07:32:00","-15.7980095744133","35.03672165796161","0.1","15","30","64","84","-11028","-23888","2556","13","150","149.44","116.92","32.52","22.02","63.0","14.63","89972","21.69","DUALSPOT-UV-BLUE-GREEN-RED-IR","807384","728839","908103","6.364614","1.627994","-0.011158","772483","911688","762824","4.856897","1.194692","-0.053465","870381","915392","814807","4.149962","0.994003","-0.058296","857540","931535","862276","3.431650","0.796145","-0.116716","740572","861580","955971","2.491102","0.593711","0.000000","10637","10112","9932","10057","8494","7984","9796","8345","7888","9725","7589","6943","9833","7471","9833",""
"MA200-0416","18632","54","1","1.10","1.4","2023-05-03T07:32:30","120","2023/05/03","07:32:30","-15.797990024089813","35.036725487560034","0.0","15","30","64","84","-10811","-23946","1084","13","150","149.94","116.96","32.98","22.05","62.9","14.66","89972","21.69","DUALSPOT-UV-BLUE-GREEN-RED-IR","805106","727894","907386","6.569307","1.681785","-0.015300","770318","910217","761886","5.013001","1.233493","-0.037170","868465","914288","814065","4.284227","1.025784","-0.062415","855913","930544","861579","3.542041","0.822716","-0.066451","734356","854855","948663","2.568271","0.613169","0.000000","10279","9580","9340","9894","8722","8340","9530","8001","7519","9469","8084","7665","9216","8242","9216",""
"MA200-0416","18633","54","1","1.10","1.4","2023-05-03T07:33:00","120","2023/05/03","07:33:00","-15.797983586788177","35.036724489182234","0.0","15","30","64","84","-11056","-23904","2272","13","150","150.56","117.22","33.33","22.07","63.0","14.68","89976","21.75","DUALSPOT-UV-BLUE-GREEN-RED-IR","806181","730337","911143","6.800059","1.745094","-0.007304","771805","913506","765068","5.189782","1.277822","-0.035827","868683","915795","815818","4.434431","1.062191","-0.054322","858085","934002","865117","3.666764","0.852072","-0.078929","735000","856319","950556","2.656856","0.634231","0.000000","11562","11155","11014","11179","9858","9426","10638","9067","8572","10674","8835","8278","10556","8826","10556",""
"MA200-0416","18634","54","1","1.10","1.4","2023-05-03T07:33:30","120","2023/05/03","07:33:30","-15.79798674583435","35.036729991436005","0.1","15","30","64","84","-10976","-23748","1940","13","150","150.03","116.98","33.04","22.09","63.0","14.73","89976","21.75","DUALSPOT-UV-BLUE-GREEN-RED-IR","797014","723336","903028","7.092947","1.825103","-0.006528","769166","911642","763876","5.419076","1.336927","-0.024222","867029","915211","815597","4.632753","1.111388","-0.041171","855758","932459","863989","3.831547","0.891214","-0.068226","733726","855480","949852","2.774623","0.662685","0.000000","14705","14222","14054","14530","13260","12844","14074","12361","11820","14131","11884","11203","14062","12029","14062",""
"MA200-0416","18635","54","1","1.10","1.4","2023-05-03T07:34:00","120","2023/05/03","07:34:00","-15.797995567321777","35.036720152944326","0.1","15","30","64","84","-10948","-24044","1128","13","150","150.03","116.87","33.16","22.12","63.1","14.77","89972","21.81","DUALSPOT-UV-BLUE-GREEN-RED-IR","798630","725673","906292","7.267091","1.871376","-0.012897","766408","909144","762013","5.549181","1.367288","-0.055580","867905","916871","817255","4.743803","1.135397","-0.096059","851422","928359","860312","3.923072","0.910371","-0.132307","735391","857791","952555","2.837753","0.675696","0.000000","8752","8195","8002","8253","6787","6307","7889","6010","5419","7857","5795","5172","7546","5480","7546",""
"MA200-0416","18636","54","1","1.10","1.4","2023-05-03T07:34:30","120","2023/05/03","07:34:30","-15.798021912574768","35.036709155887365","0.0","15","30","64","84","-11019","-23892","1642","13","150","149.70","117.10","32.59","22.14","63.1","14.78","89968","21.81","DUALSPOT-UV-BLUE-GREEN-RED-IR","798335","726146","907319","7.412332","1.913833","0.008565","766307","909799","762756","5.655092","1.395851","-0.007606","867285","916779","817377","4.833752","1.160800","0.003933","852067","929556","861588","3.997373","0.929659","-0.024048","735383","858134","953063","2.891821","0.689821","0.000000","7284","7651","7778","6704","6496","6428","6377","6470","6500","6365","5937","5807","6449","6053","6449",""
"MA200-0416","18637","54","1","1.10","1.4","2023-05-03T07:35:00","120","2023/05/03","07:35:00","-15.79800009727478","35.03670232370496","0.1","15","30","64","84","-10948","-23824","1412","13","150","150.03","116.51","33.52","22.19","63.1","14.83","89972","21.88","DUALSPOT-UV-BLUE-GREEN-RED-IR","798310","727254","909228","7.624667","1.971023","-0.012359","766079","910590","763696","5.811399","1.435041","-0.035420","862233","912377","813687","4.964179","1.190174","-0.080593","852624","930951","863098","4.104445","0.953388","-0.104037","735225","858491","953612","2.967792","0.707815","0.000000","10704","10021","9782","9945","8667","8247","9294","7275","6638","9220","7102","6461","9109","7498","9109",""
"MA200-0416","18638","54","1","1.10","1.4","2023-05-03T07:35:30","120","2023/05/03","07:35:30","-15.798020362854004","35.03669848665595","0.2","15","30","64","84","-10984","-23796","1611","13","150","149.73","117.25","32.48","22.23","63.2","14.89","89968","21.94","DUALSPOT-UV-BLUE-GREEN-RED-IR","799001","728725","911495","7.786891","2.017755","0.006581","766019","911342","764563","5.929869","1.465107","-0.021113","862523","913360","814768","5.063826","1.213955","-0.043938","853446","932464","864647","4.185739","0.970750","-0.101438","735600","859297","954626","3.027919","0.721772","-0.089200","8126","8451","8565","7490","6862","6656","7055","6079","5771","6955","5363","4882","7163","6003","5640",""
"MA200-0416","18639","54","1","1.10","1.4","2023-05-03T07:36:00","120","2023/05/03","07:36:00","-15.798051178455353","35.036715652793646","0.0","15","30","64","83","-10924","-23952","1344","13","150","150.36","117.54","32.82","22.28","63.3","14.97","89968","22.00","DUALSPOT-UV-BLUE-GREEN-RED-IR","790632","722143","903777","7.954416","2.064983","0.001592","759975","905217","759715","6.053025","1.492614","-0.059781","861389","913117","814809","5.169553","1.235795","-0.100594","852516","932216","864602","4.270036","0.987172","-0.151871","734742","858841","954333","3.091980","0.735493","-0.142412","8371","8450","8478","7767","6212","5703","7467","5523","4913","7195","5019","4364","7613","5839","5285",""
"MA200-0416","18640","54","1","1.10","1.4","2023-05-03T07:36:30","120","2023/05/03","07:36:30","-15.799571990966797","35.036392491310835","8.0","15","30","64","84","-10846","-23207","2907","13","150","149.87","117.38","32.49","22.35","63.2","15.02","89860","22.00","DUALSPOT-UV-BLUE-GREEN-RED-IR","789515","723686","906697","8.404898","2.175186","-0.022127","759436","907166","761930","6.405370","1.568925","-0.063197","859589","913515","815653","5.472648","1.298278","-0.091899","846008","927070","860271","4.523790","1.035761","-0.147229","729621","854138","949443","3.276304","0.774149","-0.141891","22542","19922","19007","22253","17411","15841","21438","15966","14264","21689","15003","13018","21937","16620","14975",""
"MA200-0416","18641","54","1","1.10","1.4","2023-05-03T07:37:00","120","2023/05/03","07:37:00","-15.800883293151855","35.03613482788205","6.4","15","30","64","84","-11648","-23164","4132","13","150","150.24","117.43","32.81","22.40","62.8","14.97","89808","22.13","DUALSPOT-UV-BLUE-GREEN-RED-IR","788731","724600","908643","8.717941","2.258918","-0.007027","758691","907860","762987","6.642975","1.626993","-0.029982","859393","914708","817125","5.679339","1.346731","-0.047129","846137","928423","861817","4.694859","1.073074","-0.084671","729897","855288","951017","3.404260","0.803079","-0.097822","15658","14988","14754","15000","13119","12508","14613","12259","11527","14615","11408","10458","15222","12316","11419",""
"MA200-0416","18642","54","1","1.10","1.4","2023-05-03T07:37:30","120","2023/05/03","07:37:30","-15.801841378211975","35.036131493747234","6.4","15","30","64","84","-10676","-23084","6244","13","150","149.85","117.78","32.08","22.46","62.5","14.93","89760","22.13","DUALSPOT-UV-BLUE-GREEN-RED-IR","782383","720899","904993","9.099841","2.365358","0.003348","754319","904809","761068","6.945912","1.706827","-0.006476","853804","910705","814107","5.942339","1.411724","-0.023299","841260","924779","858927","4.916847","1.126665","-0.035184","730157","856815","953156","3.573635","0.846495","-0.023408","19045","19488","19644","19068","18449","18247","18539","16820","16284","18910","16760","16121","20089","18906","18538",""
"MA200-0416","18643","54","1","1.10","1.4","2023-05-03T07:38:00","120","2023/05/03","07:38:00","-15.801376700401306","35.0336458273232","11.8","15","30","64","84","-10856","-23596","2968","13","150","150.35","117.34","33.02","22.48","62.2","14.89","89856","22.19","DUALSPOT-UV-BLUE-GREEN-RED-IR","781402","722237","907708","9.576406","2.492143","-0.008315","752902","905433","762243","7.329045","1.803083","-0.022608","852247","911094","815037","6.274033","1.493578","-0.030686","840657","925856","860436","5.194935","1.192421","-0.050329","729739","857464","954301","3.780029","0.894772","-0.075090","23856","22554","22096","24206","21612","20765","23469","20582","19680","23777","19980","18849","24572","20425","19139",""
"MA200-0416","18644","54","1","1.10","1.4","2023-05-03T07:38:30","120","2023/05/03","07:38:30","-15.801002740859985","35.0302698276937","12.5","15","30","64","84","-7920","-24808","2392","13","150","149.57","116.98","32.58","22.53","62.0","14.89","89888","22.25","DUALSPOT-UV-BLUE-GREEN-RED-IR","780762","723130","909529","9.888063","2.574567","-0.007392","752261","906138","763248","7.572159","1.862060","-0.027239","851858","911958","816196","6.482995","1.542699","-0.039687","841597","927971","862706","5.368025","1.231974","-0.056572","730085","858662","955871","3.909719","0.924295","-0.080398","15647","14859","14581","15406","13419","12771","14829","12517","11795","14844","12180","11386","15486","12658","11782",""
"MA200-0416","18645","54","1","1.10","1.4","2023-05-03T07:39:00","120","2023/05/03","07:39:00","-15.8010014295578","35.02781482599676","2.0","15","30","64","84","-6023","-25607","2611","13","150","149.86","117.27","32.58","22.58","62.0","14.92","90000","22.31","DUALSPOT-UV-BLUE-GREEN-RED-IR","780413","723510","910305","10.009217","2.606147","-0.009122","752393","906975","764105","7.662172","1.882768","-0.038558","851972","912641","816940","6.557418","1.556754","-0.110462","842178","929097","863884","5.428184","1.240957","-0.276013","729986","858894","956237","3.959083","0.933797","-0.169814","6067","5692","5560","5690","4711","4392","5268","3580","3055","5146","2765","2060","5880","4073","3516",""
"MA200-0416","18646","54","1","1.10","1.4","2023-05-03T07:39:30","120","2023/05/03","07:39:30","-15.800998866558075","35.02728099375963","7.5","15","30","64","84","-11232","-23508","1516","13","150","149.33","117.86","31.47","22.62","61.8","14.92","90020","22.38","DUALSPOT-UV-BLUE-GREEN-RED-IR","762572","715582","904733","11.004866","2.893892","0.009147","741912","904286","765131","8.559008","2.135664","0.008142","836430","904994","813156","7.344986","1.774120","0.005805","834075","928264","865853","6.100758","1.422309","0.002104","719567","852327","951213","4.477030","1.072260","0.000387","49618","53711","55172","56410","59581","60635","55477","57351","57948","57252","57823","57996","61390","61471","61496",""
"MA200-0416","18647","54","1","1.10","1.4","2023-05-03T07:40:00","120","2023/05/03","07:40:00","-15.800958037376404","35.023767329752445","11.4","15","30","64","84","-7400","-25184","2716","13","150","150.23","117.62","32.61","22.66","61.8","14.96","90048","22.38","DUALSPOT-UV-BLUE-GREEN-RED-IR","761178","716265","906599","12.096939","3.205900","0.003309","736185","899344","761583","9.508853","2.395792","-0.001723","834978","905357","814090","8.222616","2.009332","-0.005586","827065","922169","860690","6.871677","1.623619","-0.011960","719132","853012","952373","5.050516","1.219142","-0.022067","54534","56205","56808","59865","59143","58900","61947","59892","59227","65757","61943","60763","68111","62930","61281",""
"MA200-0416","18648","54","1","1.10","1.4","2023-05-03T07:40:30","120","2023/05/03","07:40:30","-15.800962448120117","35.02238816022873","9.2","15","30","64","83","-10860","-23548","3828","13","150","149.76","117.22","32.54","22.70","61.7","14.97","90036","22.44","DUALSPOT-UV-BLUE-GREEN-RED-IR","758276","714958","905665","12.269007","3.253723","0.000136","734210","898389","761208","9.642262","2.429510","-0.014098","832431","903860","813139","8.332837","2.037912","-0.011471","824139","919998","858987","6.962715","1.644068","-0.047811","717312","851548","951004","5.118149","1.234488","-0.061906","8621","8632","8635","8436","7681","7427","7806","7291","7125","7791","6305","5845","8059","6588","6120",""
"MA200-0416","18649","54","1","1.10","1.4","2023-05-03T07:41:00","120","2023/05/03","07:41:00","-15.800435841083527","35.020683662965894","3.5","15","30","64","84","-5996","-25688","3626","13","150","150.03","117.70","32.33","22.75","61.7","15.02","90056","22.50","DUALSPOT-UV-BLUE-GREEN-RED-IR","754219","716424","910134","13.398087","3.568781","0.001588","730343","899156","763543","10.558747","2.674240","-0.003658","828833","904763","815444","9.122015","2.241521","-0.009584","823719","923600","863633","7.613791","1.808839","-0.015092","716750","853572","954272","5.577627","1.349298","-0.024228","56344","57243","57569","57724","56121","55577","55666","52290","51191","55497","51136","49777","54533","49612","48041",""
"MA200-0416","18650","54","1","1.10","1.4","2023-05-03T07:41:30","120","2023/05/03","07:41:30","-15.800234198570251","35.020415995270014","0.2","15","30","64","83","-8772","-24460","3255","13","150","149.54","117.20","32.35","22.78","61.8","15.07","90064","22.50","DUALSPOT-UV-BLUE-GREEN-RED-IR","747450","711178","904040","13.574543","3.616970","-0.001074","729948","899945","764597","10.700214","2.710092","-0.011493","828122","905117","816098","9.242881","2.270394","-0.023476","822801","923576","863886","7.713561","1.830161","-0.054497","716126","853487","954373","5.650743","1.365373","-0.064870","8843","8750","8716","8948","8216","7968","8562","7410","7035","8540","6612","6013","8715","6942","6377",""
"MA200-0416","18651","54","1","1.10","1.4","2023-05-03T07:42:00","120","2023/05/03","07:42:00","-15.800101697444916","35.020010497421026","0.7","15","30","64","83","-9100","-24364","3024","13","150","149.61","116.93","32.67","22.82","61.8","15.12","90072","22.56","DUALSPOT-UV-BLUE-GREEN-RED-IR","744605","710194","903712","13.996403","3.743534","0.006528","726854","898054","763633","11.062438","2.812152","0.000999","825479","903922","815627","9.566147","2.358746","-0.003130","820324","922325","863241","7.991256","1.904016","-0.008455","714367","852466","953666","5.857208","1.419595","-0.014726","21190","22751","23321","22964","23155","23221","22952","22449","22285","23826","22677","22318","24665","23182","22707",""
"MA200-0416","18652","54","1","1.10","1.4","2023-05-03T07:42:30","120","2023/05/03","07:42:30","-15.800494730472565","35.019397826865315","4.6","15","30","64","83","-10564","-24148","3032","13","150","149.86","117.12","32.74","22.86","61.9","15.18","90072","22.63","DUALSPOT-UV-BLUE-GREEN-RED-IR","746661","712671","907128","14.098007","3.771526","-0.001418","724264","895348","761447","11.140359","2.829736","-0.031254","826867","905973","817575","9.635288","2.373862","-0.042201","816814","918802","860028","8.046865","1.913523","-0.129089","711291","849073","949972","5.900011","1.429105","-0.062903","5095","5022","4995","4932","3981","3658","4901","3833","3484","4763","2913","2336","5105","4058","3723",""
"MA200-0416","18653","54","1","1.10","1.4","2023-05-03T07:43:00","120","2023/05/03","07:43:00","-15.801026105880737","35.017577497288585","9.4","15","30","64","83","-9134","-24003","4842","13","150","149.90","117.14","32.75","22.92","61.9","15.22","90088","22.63","DUALSPOT-UV-BLUE-GREEN-RED-IR","746692","713459","908522","14.237093","3.810649","0.000579","723876","895624","761917","11.244257","2.855915","-0.013577","822018","901255","813526","9.722001","2.394169","-0.028240","818185","920890","862120","8.119220","1.929724","-0.043558","711757","850005","951123","5.952364","1.440388","-0.072798","6973","7016","7031","6575","5925","5704","6145","5147","4821","6196","4962","4577","6243","4812","4355",""
"MA200-0416","18654","54","1","1.10","1.4","2023-05-03T07:43:30","120","2023/05/03","07:43:30","-15.801508903503418","35.01470433175564","12.1","15","30","64","83","-7988","-24292","4824","13","150","150.59","117.85","32.74","22.95","61.7","15.21","90144","22.69","DUALSPOT-UV-BLUE-GREEN-RED-IR","747160","714545","910229","14.365728","3.848014","0.004091","724616","897152","763382","11.334674","2.880275","-0.003704","822229","901960","814297","9.797187","2.412891","-0.016259","819001","922174","863477","8.178533","1.944035","-0.025462","712166","850731","952062","5.996227","1.451445","-0.023186","6411","6704","6811","5687","5516","5458","5296","4748","4568","5049","4385","4179","5199","4718","4564",""
"MA200-0416","18655","54","1","1.10","1.4","2023-05-03T07:44:00","120","2023/05/03","07:44:00","-15.80236530303955","35.012084665708244","10.2","15","30","64","83","-8488","-24808","3284","13","150","149.62","117.50","32.12","22.99","61.6","15.21","90216","22.75","DUALSPOT-UV-BLUE-GREEN-RED-IR","741166","709589","904284","14.518665","3.891054","0.002678","725359","898799","764993","11.448113","2.910041","-0.004949","822211","902587","815069","9.891975","2.436041","-0.016625","818771","922489","863900","8.255474","1.960873","-0.042869","712012","850916","952389","6.054151","1.465896","-0.021487","7644","7871","7954","7156","6870","6773","6697","5984","5751","6569","5260","4852","6886","6285","6093",""
"MA200-0416","18656","54","1","1.10","1.4","2023-05-03T07:44:30","120","2023/05/03","07:44:30","-15.803930163383484","35.01101483032107","8.3","15","30","64","83","-10572","-24276","2564","13","150","149.76","117.06","32.70","23.03","61.4","15.21","90252","22.75","DUALSPOT-UV-BLUE-GREEN-RED-IR","738224","708327","903423","14.807295","3.969156","-0.003013","722846","897239","764156","11.673665","2.968235","-0.009769","819749","901252","814294","10.085178","2.484655","-0.015029","816760","921410","863228","8.416802","1.999563","-0.027063","710861","850383","952044","6.173361","1.492329","-0.060494","14481","14029","13863","14283","13193","12821","13702","12342","11898","13826","11870","11261","14225","11292","10357",""
"MA200-0416","18657","54","1","1.10","1.4","2023-05-03T07:45:00","120","2023/05/03","07:45:00","-15.805804669857025","35.00904949847609","14.1","15","30","64","83","-9784","-23712","2572","13","150","149.66","116.88","32.78","23.08","61.2","15.20","90300","22.81","DUALSPOT-UV-BLUE-GREEN-RED-IR","739587","710285","906289","14.959669","4.014316","0.004803","719045","893169","760887","11.788853","3.000360","-0.000651","821306","903536","816491","10.184014","2.509695","-0.014469","813644","918386","860539","8.497242","2.017951","-0.037701","712332","852475","954516","6.233892","1.507891","-0.019836","7657","8091","8250","7306","7264","7250","7020","6341","6119","6904","5627","5229","7234","6631","6438",""
"MA200-0416","18658","54","1","1.10","1.4","2023-05-03T07:45:30","120","2023/05/03","07:45:30","-15.806409180164337","35.00570949865505","14.8","15","30","64","83","-9652","-24564","3584","13","150","150.09","116.95","33.15","23.13","60.9","15.17","90400","22.88","DUALSPOT-UV-BLUE-GREEN-RED-IR","740163","711554","908327","15.064686","4.046993","0.007823","720415","895566","763184","11.861560","3.021728","0.003967","820861","903623","816802","10.244376","2.527922","0.007789","813931","919190","861451","8.546978","2.031355","-0.008068","712369","852861","955105","6.271591","1.517490","-0.024722","5274","5789","5979","4608","4778","4836","4285","4565","4656","4266","4057","3991","4503","4045","3898",""
"MA200-0416","18659","54","1","1.10","1.4","2023-05-03T07:46:00","120","2023/05/03","07:46:00","-15.805090725421906","35.00370566616766","3.8","15","30","64","83","-13404","-22308","5276","13","150","150.29","117.54","32.75","23.16","60.6","15.11","90452","22.88","DUALSPOT-UV-BLUE-GREEN-RED-IR","738939","712083","909878","15.424807","4.151865","0.003772","718167","894487","762833","12.151618","3.104169","0.002160","819892","904111","817744","10.493488","2.596473","-0.001595","814105","920715","863335","8.755230","2.086127","-0.009080","707406","847835","949839","6.428749","1.558452","-0.014491","17995","18807","19107","18293","18660","18786","17595","17377","17305","17775","16778","16466","18677","17471","17086",""
"MA200-0416","18660","54","1","1.10","1.4","2023-05-03T07:46:30","120","2023/05/03","07:46:30","-15.802614450454712","35.003974499646574","11.5","15","30","64","83","-10176","-23808","3960","13","150","149.38","116.77","32.61","23.21","60.3","15.09","90300","22.94","DUALSPOT-UV-BLUE-GREEN-RED-IR","730903","706496","903883","15.822941","4.268739","0.004149","716912","895156","764131","12.470506","3.193081","-0.000158","813411","898931","813720","10.771144","2.669358","-0.008035","812922","921107","864258","8.987681","2.146577","-0.011030","711361","853753","956933","6.600183","1.603642","-0.012097","20025","21053","21433","20244","20214","20204","19740","18558","18168","19971","18600","18170","20508","19360","18992",""
"MA200-0416","18661","54","1","1.10","1.4","2023-05-03T07:47:00","120","2023/05/03","07:47:00","-15.799829065799713","35.004679332952946","12.7","15","30","64","83","-8280","-24612","2104","13","150","150.49","117.14","33.35","23.24","60.2","15.08","90400","23.00","DUALSPOT-UV-BLUE-GREEN-RED-IR","730435","706660","904411","15.996603","4.318704","0.000903","716793","895628","764746","12.605218","3.228290","-0.009810","813491","899589","814477","10.886638","2.699464","-0.011594","813523","922235","865464","9.082582","2.169662","-0.026019","706838","848599","951255","6.670315","1.621026","-0.030871","8707","8800","8835","8525","7827","7586","8185","7495","7268","8127","6945","6574","8363","7282","6935",""
"MA200-0416","18662","54","1","1.10","1.4","2023-05-03T07:47:30","120","2023/05/03","07:47:30","-15.798367738723755","35.00428633298725","1.2","15","30","64","83","-8752","-24736","1304","13","150","149.99","117.35","32.64","23.28","60.1","15.10","90528","23.00","DUALSPOT-UV-BLUE-GREEN-RED-IR","731196","707657","905851","16.055624","4.335796","0.003335","716548","895611","764794","12.648340","3.239025","-0.012976","813495","899829","814716","10.923104","2.707928","-0.025813","814315","923381","866548","9.113389","2.174353","-0.160707","707219","849271","952036","6.692919","1.624727","-0.177562","2954","3076","3121","2724","2438","2340","2579","2153","2012","2633","1442","1068","2690","1584","1229",""
"MA200-0416","18663","54","1","1.10","1.4","2023-05-03T07:48:00","120","2023/05/03","07:48:00","-15.798127055168152","35.004321665968746","0.1","15","30","64","83","-7852","-24716","2360","13","150","150.24","116.78","33.46","23.31","60.1","15.13","90540","23.06","DUALSPOT-UV-BLUE-GREEN-RED-IR","732134","709037","907814","16.138224","4.359663","0.000712","712572","891036","761024","12.710343","3.254325","-0.018031","813712","900440","815398","10.974395","2.718443","-0.055424","814256","923621","866875","9.154268","2.182835","-0.062045","707477","849742","952650","6.723034","1.631436","-0.061856","4154","4189","4202","3936","3390","3202","3646","2608","2267","3512","2543","2239","3602","2801","2544",""
"MA200-0416","18664","54","1","1.10","1.4","2023-05-03T07:48:30","120","2023/05/03","07:48:30","-15.797553598880768","35.004489665851","2.4","15","30","64","83","-8508","-24504","3787","13","150","149.39","116.63","32.76","23.36","60.1","15.17","90572","23.06","DUALSPOT-UV-BLUE-GREEN-RED-IR","729441","707765","906882","16.397840","4.433286","0.000793","711245","890765","761212","12.915328","3.309042","-0.005541","811906","899650","815080","11.149206","2.763403","-0.011330","805745","914981","859081","9.296986","2.217710","-0.022149","705892","848504","951524","6.824123","1.656672","-0.025232","13074","13200","13247","13029","12382","12159","12444","11394","11048","12277","10680","10180","12108","10761","10329",""
"MA200-0416","18665","54","1","1.10","1.4","2023-05-03T07:49:00","120","2023/05/03","07:49:00","-15.797206580638885","35.00454566627741","0.1","15","30","72","83","-8084","-24736","3032","13","150","149.80","117.01","32.79","23.39","60.0","15.19","90592","23.13","DUALSPOT-UV-BLUE-GREEN-RED-IR","731390","709929","909755","16.457808","4.450472","0.001832","712133","892120","762412","12.959054","3.320003","-0.012751","813152","901224","816529","11.185960","2.771616","-0.032944","809586","919533","863368","9.326779","2.222955","-0.102217","613154","737152","826672","6.846588","1.661698","-0.052997","3010","3078","3103","2770","2478","2377","2607","2079","1905","2554","1604","1307","2682","2141","1967",""
"MA200-0416","18666","54","1","1.10","1.4","2023-05-03T07:49:30","120","2023/05/03","07:49:30","-15.796824097633362","35.00453199958429","0.9","15","30","64","83","-7032","-24908","3423","13","150","149.83","117.22","32.61","23.43","60.2","15.27","90612","23.13","DUALSPOT-UV-BLUE-GREEN-RED-IR","731551","710501","910707","16.527710","4.470466","0.002262","713677","894474","764569","13.011369","3.331096","-0.036078","813020","901466","816817","11.228991","2.778423","-0.119529","809424","919644","863540","9.361285","2.228838","-0.110323","707322","850566","953914","6.872118","1.666645","-0.097231","3502","3601","3638","3308","2522","2251","3047","1733","1301","2953","1810","1452","3042","2119","1823",""
"MA200-0416","18667","54","1","1.10","1.4","2023-05-03T07:50:00","120","2023/05/03","07:50:00","-15.796670079231262","35.00450649950653","2.0","15","30","64","83","-8240","-24568","3004","13","150","149.54","117.50","32.04","23.46","60.4","15.36","90628","23.19","DUALSPOT-UV-BLUE-GREEN-RED-IR","723308","703792","902810","16.795840","4.549417","0.005871","710641","892058","762905","13.228986","3.389103","-0.002360","811061","900530","816386","11.420288","2.828526","-0.004859","807601","918646","862937","9.521492","2.267659","-0.017990","706038","849739","953244","6.988662","1.696060","-0.015602","13403","14472","14869","13729","13420","13313","13516","12981","12805","13679","12155","11678","13855","12824","12493",""
"MA200-0416","18668","54","1","1.10","1.4","2023-05-03T07:50:30","120","2023/05/03","07:50:30","-15.796306848526001","35.00441833306104","1.1","14","30","64","83","-9268","-24696","2192","13","150","150.14","117.00","33.14","23.50","60.6","15.43","90652","23.25","DUALSPOT-UV-BLUE-GREEN-RED-IR","725705","706517","906544","16.881168","4.572681","-0.003214","707620","888672","760140","13.292799","3.404064","-0.022688","807955","897439","813679","11.472758","2.839165","-0.052890","810168","921894","866064","9.564235","2.275008","-0.111326","707682","851921","955775","7.018930","1.701249","-0.155024","4283","4122","4063","4043","3346","3106","3723","2665","2317","3665","2224","1775","3613","2187","1730",""
"MA200-0416","18669","54","1","1.10","1.4","2023-05-03T07:51:00","120","2023/05/03","07:51:00","-15.795936644077301","35.00429399963468","1.0","14","30","64","83","-7780","-24896","1426","13","150","149.45","117.26","32.18","23.54","60.7","15.51","90672","23.25","DUALSPOT-UV-BLUE-GREEN-RED-IR","722900","705923","906962","17.090032","4.635669","0.006989","710456","894528","765915","13.461352","3.449924","-0.000870","805952","897186","814116","11.612421","2.875507","-0.006376","802877","915293","860441","9.678511","2.303856","-0.012147","706825","852034","956380","7.104784","1.723425","-0.011845","10461","11496","11880","10655","10564","10532","9888","9375","9206","9777","8993","8748","10227","9626","9433",""
"MA200-0416","18670","54","1","1.10","1.4","2023-05-03T07:51:30","120","2023/05/03","07:51:30","-15.795794188976288","35.00424083229154","1.3","14","30","64","83","-7988","-24960","1248","13","150","149.80","116.93","32.86","23.58","60.8","15.56","90676","23.31","DUALSPOT-UV-BLUE-GREEN-RED-IR","721723","706579","908842","17.684652","4.817455","0.006086","704419","888795","761651","13.944273","3.589725","0.002787","804661","897402","814894","12.035434","2.995872","0.001351","802499","916340","861878","10.033930","2.400756","-0.004086","701842","847040","951171","7.365511","1.794680","-0.005145","29868","32489","33470","30616","31535","31854","30034","30407","30530","30495","29581","29294","31148","30288","30011",""
"MA200-0416","18671","54","1","1.10","1.4","2023-05-03T07:52:00","120","2023/05/03","07:52:00","-15.795500755310059","35.004160332959145","1.1","14","30","64","83","-8992","-24580","1869","13","150","149.49","117.16","32.33","23.61","60.7","15.57","90700","23.38","DUALSPOT-UV-BLUE-GREEN-RED-IR","721844","707134","909747","17.771278","4.842018","0.002058","705388","890478","763220","14.010003","3.607065","-0.004490","804160","897264","814878","12.091211","3.007560","-0.038958","802387","916519","862161","10.079249","2.409852","-0.055398","701385","846694","950858","7.397497","1.802445","-0.025549","4342","4462","4507","4159","3976","3912","3952","3001","2686","3880","2822","2490","3813","3355","3207",""
"MA200-0416","18672","54","1","1.10","1.4","2023-05-03T07:52:30","120","2023/05/03","07:52:30","-15.794992804527283","35.00414649909362","1.4","14","30","64","83","-8519","-24773","1680","13","150","149.94","117.34","32.60","23.65","60.6","15.58","90728","23.38","DUALSPOT-UV-BLUE-GREEN-RED-IR","717159","702951","904600","17.850092","4.864401","0.001653","705795","891392","764111","14.065953","3.620714","-0.013978","804435","897909","815537","12.136953","3.017348","-0.036322","803667","918266","863851","10.116669","2.416515","-0.088273","702096","847755","952119","7.426557","1.807626","-0.121133","3945","4032","4065","3534","3103","2954","3236","2492","2246","3199","2050","1690","3459","2220","1821",""
"MA200-0416","18673","54","1","1.10","1.4","2023-05-03T07:53:00","120","2023/05/03","07:53:00","-15.794644951820374","35.00391933275387","0.1","14","30","64","83","-10780","-23084","5272","13","150","149.63","117.06","32.57","23.69","60.4","15.58","90728","23.44","DUALSPOT-UV-BLUE-GREEN-RED-IR","717647","703941","906157","17.954184","4.895820","0.005829","705727","891794","764633","14.141033","3.641290","-0.001451","805267","899245","816904","12.201143","3.034263","-0.006190","804232","919333","864961","10.168960","2.429092","-0.021291","702119","848051","952555","7.465753","1.817280","-0.023923","5222","5666","5833","4754","4683","4659","4552","4312","4232","4481","3874","3683","4677","4141","3968",""
"MA200-0416","18674","54","1","1.10","1.4","2023-05-03T07:53:30","120","2023/05/03","07:53:30","-15.794642448425293","35.003889999585226","0.0","14","30","64","83","-10800","-23040","5680","13","150","150.23","117.54","32.68","23.72","60.4","15.59","90732","23.44","DUALSPOT-UV-BLUE-GREEN-RED-IR","717808","704595","907257","18.049428","4.924244","0.005068","701135","886462","760194","14.212707","3.658981","-0.012546","805005","899394","817151","12.261696","3.048628","-0.019812","804549","919996","865687","10.218431","2.439952","-0.037420","702703","849014","953688","7.504877","1.827736","-0.007220","4759","5107","5238","4520","4012","3836","4277","3648","3441","4222","3333","3054","4649","4468","4410",""
"MA200-0416","18675","54","1","1.10","1.4","2023-05-03T07:54:00","120","2023/05/03","07:54:00","-15.79464703798294","35.00387333286926","0.1","14","30","64","83","-10807","-23126","5165","13","150","150.36","117.22","33.14","23.76","60.4","15.63","90724","23.50","DUALSPOT-UV-BLUE-GREEN-RED-IR","718425","705610","908805","18.135872","4.950084","0.004043","701809","887693","761356","14.274074","3.674245","-0.013506","805521","900345","818102","12.314076","3.059130","-0.051229","799391","914471","860542","10.261292","2.447766","-0.085138","702810","849334","954091","7.536686","1.833669","-0.108356","4331","4580","4674","3880","3415","3253","3709","2631","2274","3668","2365","1957","3790","2501","2086",""
"MA200-0416","18676","54","1","1.10","1.4","2023-05-03T07:54:30","120","2023/05/03","07:54:30","-15.79464852809906","35.00389299937524","0.1","14","30","64","83","-10700","-22980","5292","13","150","150.16","117.70","32.46","23.80","60.4","15.67","90728","23.56","DUALSPOT-UV-BLUE-GREEN-RED-IR","719233","706865","910633","18.224416","4.975967","0.004180","701908","888246","761929","14.334182","3.687847","-0.022223","801167","895803","814043","12.362488","3.069198","-0.039324","800843","916378","862388","10.300744","2.454012","-0.123084","703642","850549","955545","7.568323","1.841277","-0.026920","4418","4683","4782","3785","3106","2871","3414","2575","2297","3362","1930","1482","3754","3273","3119",""
"MA200-0416","18677","54","1","1.10","1.4","2023-05-03T07:55:00","120","2023/05/03","07:55:00","-15.794650077819824","35.00386483268812","0.3","14","30","64","83","-10800","-22946","5330","13","150","149.83","116.98","32.84","23.84","60.5","15.74","90728","23.56","DUALSPOT-UV-BLUE-GREEN-RED-IR","719382","707446","911674","18.311244","5.003490","0.008233","702862","889910","763498","14.397915","3.703809","-0.011815","805412","901002","818885","12.417322","3.081173","-0.033785","800879","916780","862865","10.344193","2.462834","-0.055179","698841","844999","949363","7.600353","1.846779","-0.138417","4359","4921","5133","4038","3602","3451","3891","3026","2741","3726","2694","2372","3824","2340","1863",""
"MA200-0416","18678","54","1","1.10","1.4","2023-05-03T07:55:30","120","2023/05/03","07:55:30","-15.794636905193329","35.00385766592808","0.1","14","30","64","82","-10816","-23100","5384","13","150","150.30","117.58","32.72","23.88","60.9","15.86","90728","23.63","DUALSPOT-UV-BLUE-GREEN-RED-IR","713042","702193","905449","18.494928","5.059328","0.006093","703660","891880","765472","14.533397","3.738975","-0.006861","800617","896425","814949","12.530718","3.107846","-0.020691","801519","918258","864458","10.440993","2.483451","-0.042621","703611","851294","956632","7.675514","1.864219","-0.036667","9175","10022","10341","8542","7966","7767","8007","6767","6358","8259","6321","5716","8929","7445","6968",""
"MA200-0416","18679","54","1","1.10","1.4","2023-05-03T07:56:00","120","2023/05/03","07:56:00","-15.794570326805115","35.003775499761105","3.5","14","30","64","83","-11980","-23416","176","13","150","149.55","116.99","32.56","23.92","61.0","15.95","90720","23.63","DUALSPOT-UV-BLUE-GREEN-RED-IR","713052","703390","907649","18.725214","5.130052","0.006653","699016","886966","761581","14.680177","3.775228","-0.012184","800443","897184","815890","12.655115","3.135776","-0.027345","801874","919447","865729","10.542676","2.502781","-0.067503","699026","846243","951089","7.749834","1.878501","-0.089200","11561","12756","13207","9301","8252","7889","8828","7120","6558","8720","5955","5094","8874","6126","5247",""
"MA200-0416","18680","54","1","1.10","1.4","2023-05-03T07:56:30","120","2023/05/03","07:56:30","-15.794358551502228","35.00268616597168","4.0","14","30","64","83","-11028","-23868","2312","13","150","149.32","116.78","32.54","23.97","61.0","15.99","90660","23.69","DUALSPOT-UV-BLUE-GREEN-RED-IR","713444","704388","909316","18.880236","5.177530","0.006371","698793","887266","761982","14.779073","3.802013","-0.002638","800423","897623","816437","12.738068","3.153824","-0.032250","802658","920757","867095","10.610796","2.516585","-0.052422","699181","846754","951743","7.804281","1.888709","-0.097257","7797","8570","8863","6278","6103","6042","5897","4605","4180","5852","4256","3760","6513","4382","3702",""
"MA200-0416","18681","54","1","1.10","1.4","2023-05-03T07:57:00","120","2023/05/03","07:57:00","-15.795100033283234","35.00163283327129","6.8","14","30","64","82","-7200","-24796","3412","13","150","150.32","117.09","33.23","24.01","60.9","15.99","90648","23.75","DUALSPOT-UV-BLUE-GREEN-RED-IR","713396","704779","910093","18.983872","5.209759","0.006143","699274","888297","762977","14.851908","3.820705","-0.009959","800776","898362","817225","12.797961","3.170186","-0.004092","797197","914810","861563","10.661245","2.526677","-0.059179","699569","847465","952625","7.844171","1.897365","-0.057389","5198","5696","5884","4611","4170","4017","4246","4087","4035","4322","3046","2650","4759","3639","3281",""
"MA200-0416","18682","54","1","1.10","1.4","2023-05-03T07:57:30","120","2023/05/03","07:57:30","-15.795506060123444","35.00019249996694","5.5","14","30","64","83","-6728","-25260","3584","13","150","150.08","117.42","32.66","24.05","60.7","15.98","90772","23.75","DUALSPOT-UV-BLUE-GREEN-RED-IR","708899","700761","905144","19.078030","5.240255","0.009692","700312","890027","764589","14.920813","3.839773","-0.000456","796569","894012","813345","12.857598","3.184300","-0.019214","798410","916557","863274","10.710162","2.537828","-0.028891","700064","848289","953668","7.882065","1.907939","0.000544","4710","5485","5778","4350","4328","4320","4216","3588","3381","4179","3426","3191","4508","4522","4527",""
"MA200-0416","18683","54","1","1.10","1.4","2023-05-03T07:58:00","120","2023/05/03","07:58:00","-15.795526087284088","34.99890053272247","4.5","14","30","64","82","-10896","-23444","3220","13","150","150.36","117.34","33.02","24.10","60.6","15.99","90736","23.81","DUALSPOT-UV-BLUE-GREEN-RED-IR","709510","701607","906390","19.124068","5.252409","-0.004865","700528","890527","765094","14.952328","3.847969","-0.007592","797604","895372","814650","12.882627","3.188943","-0.064203","800441","919060","865657","10.729047","2.539319","-1.532421","701042","849595","955153","7.899976","1.910659","-0.195438","2304","2162","2108","1991","1840","1788","1770","1167","969","1614","452","92","2132","1151","838",""
"MA200-0416","18684","54","1","1.10","1.4","2023-05-03T07:58:30","120","2023/05/03","07:58:30","-15.79547667503357","34.99741196632385","5.1","14","30","64","82","-7519","-24992","2965","13","150","149.32","117.20","32.12","24.14","60.4","15.98","90708","23.88","DUALSPOT-UV-BLUE-GREEN-RED-IR","709265","702372","907924","19.254330","5.293068","0.008353","700433","891464","766253","15.052118","3.875375","0.000190","797399","896032","815558","12.964745","3.210592","-0.004107","800957","920449","867195","10.796611","2.556717","-0.007950","696689","844847","949990","7.949814","1.922548","-0.025923","6528","7435","7779","6312","6325","6330","5817","5595","5523","5783","5434","5326","5940","5170","4925",""
"MA200-0416","18685","54","1","1.10","1.4","2023-05-03T07:59:00","120","2023/05/03","07:59:00","-15.795473277568817","34.9960241317749","4.9","14","30","64","82","-7875","-24628","3312","13","150","150.11","117.62","32.50","24.18","60.2","15.97","90848","23.94","DUALSPOT-UV-BLUE-GREEN-RED-IR","709956","703398","909455","19.397818","5.338724","0.008921","696216","886410","762036","15.161754","3.906805","0.003182","797664","896612","816152","13.060577","3.236585","-0.001906","795266","914129","861334","10.875967","2.576327","-0.014764","696969","845383","950677","8.010986","1.939491","0.000407","7165","8252","8665","6910","7170","7260","6764","6641","6600","6769","6054","5832","7265","7283","7289",""
"MA200-0416","18686","54","1","1.10","1.4","2023-05-03T07:59:30","120","2023/05/03","07:59:30","-15.795416831970215","34.99454337358475","5.4","14","30","64","82","-8632","-24576","2484","13","150","149.59","117.71","31.88","24.23","60.1","15.99","90908","24.00","DUALSPOT-UV-BLUE-GREEN-RED-IR","710625","704814","911830","19.510612","5.376096","0.012079","696616","887758","763503","15.250029","3.932602","0.006309","797109","896699","816489","13.136457","3.255904","-0.006596","795279","914753","862137","10.939276","2.591288","-0.018333","696639","845457","950930","8.064148","1.951944","-0.026895","5628","6885","7363","5559","5998","6151","5351","5030","4925","5396","4708","4494","6309","5456","5184",""
"MA200-0416","18687","54","1","1.10","1.4","2023-05-03T08:00:00","120","2023/05/03","08:00:00","-15.7955482006073","34.99337923526764","4.6","14","30","64","82","-9436","-24080","3016","13","150","150.11","117.24","32.88","24.27","59.9","15.98","90916","24.00","DUALSPOT-UV-BLUE-GREEN-RED-IR","705041","700004","906049","19.717104","5.447336","0.012242","696173","887909","763934","15.415806","3.986633","0.011648","792810","892566","813014","13.282829","3.302067","0.010713","796614","916957","864460","11.066998","2.628458","0.004265","697349","846797","952685","8.163789","1.981512","0.008739","10345","12727","13636","10482","12183","12776","10365","11657","12085","10930","11342","11471","11873","12563","12785",""
"MA200-0416","18688","54","1","1.10","1.4","2023-05-03T08:00:30","120","2023/05/03","08:00:30","-15.796397984027863","34.99274134635925","2.8","14","30","64","82","-7169","-25026","3776","13","150","150.49","116.95","33.55","24.31","59.7","15.97","90944","24.06","DUALSPOT-UV-BLUE-GREEN-RED-IR","706238","701513","908246","19.792960","5.472696","0.009405","697464","889903","765750","15.474985","4.003728","0.000605","793221","893362","813833","13.335675","3.315091","-0.017302","798020","918915","866372","11.113587","2.637738","-0.060164","697869","847682","953733","8.203373","1.989238","-0.088923","3809","4440","4681","3751","3777","3786","3751","3223","3048","3996","2775","2395","4728","3217","2733",""
"MA200-0416","18689","54","1","1.10","1.4","2023-05-03T08:01:00","120","2023/05/03","08:01:00","-15.797144055366516","34.99227690696716","4.2","14","30","64","82","-9765","-24338","2553","13","150","149.95","117.03","32.92","24.35","59.5","15.95","90952","24.13","DUALSPOT-UV-BLUE-GREEN-RED-IR","706988","702829","910252","19.897866","5.505186","0.006160","693760","885755","762397","15.557668","4.026109","-0.003438","793601","894291","814864","13.405890","3.333908","-0.005005","792237","912665","860614","11.171959","2.651948","-0.019174","697846","847939","954142","8.248165","2.000265","-0.023922","5265","5797","6000","5237","5040","4971","4981","4745","4668","5004","4330","4121","5346","4679","4465",""
"MA200-0416","18690","54","1","1.10","1.4","2023-05-03T08:01:30","120","2023/05/03","08:01:30","-15.798223495483398","34.991960883140564","3.5","14","30","64","82","-8988","-24624","2344","13","150","150.98","117.68","33.30","24.40","59.4","15.96","90956","24.13","DUALSPOT-UV-BLUE-GREEN-RED-IR","705571","701926","909358","20.008278","5.536728","0.000651","692896","885137","761972","15.637574","4.046154","-0.011565","792346","893346","814079","13.475100","3.347939","-0.044962","791079","911747","859827","11.227861","2.662772","-0.062895","697109","847317","953502","8.291462","2.009491","-0.058302","5511","5563","5583","5033","4462","4262","4882","3498","3040","4766","3261","2793","5139","3870","3464",""
"MA200-0416","18691","54","1","1.10","1.4","2023-05-03T08:02:00","120","2023/05/03","08:02:00","-15.799425482749939","34.99182039499283","4.7","14","30","64","82","-7652","-24932","2764","13","150","149.80","117.24","32.56","24.44","59.0","15.91","91008","24.19","DUALSPOT-UV-BLUE-GREEN-RED-IR","701482","698777","905807","20.192388","5.594610","0.007646","693186","886441","763421","15.780036","4.087114","0.002877","793462","895410","816241","13.595392","3.382599","0.003494","794196","916015","864098","11.327728","2.689546","-0.004204","694099","844140","950127","8.367012","2.029523","-0.007603","9224","10441","10908","9008","9325","9436","8518","8837","8943","8546","8250","8157","9002","8594","8463",""
"MA200-0416","18692","54","1","1.10","1.4","2023-05-03T08:02:30","120","2023/05/03","08:02:30","-15.8004110455513","34.99192434549332","3.3","14","30","64","82","-9836","-24192","2904","13","150","150.55","117.58","32.98","24.49","58.8","15.89","91000","24.25","DUALSPOT-UV-BLUE-GREEN-RED-IR","702435","700132","907814","20.272172","5.618616","0.004516","689847","882514","760205","15.836068","4.103845","0.005070","793780","896061","816959","13.641668","3.394973","-0.004849","794663","916828","864938","11.365332","2.697146","-0.050864","693922","844111","950178","8.397272","2.037748","-0.005068","3985","4275","4387","3532","3761","3841","3267","3115","3064","3208","2312","2033","3595","3484","3448",""
"MA200-0416","18693","54","1","1.10","1.4","2023-05-03T08:03:00","120","2023/05/03","08:03:00","-15.8009974360466","34.99241155385971","3.4","14","30","64","82","-12300","-22648","3192","13","150","149.94","117.09","32.85","24.54","58.5","15.85","90920","24.31","DUALSPOT-UV-BLUE-GREEN-RED-IR","702508","700469","908427","20.338530","5.641069","0.010905","690028","882971","760645","15.880104","4.116190","-0.000077","793859","896366","817273","13.676920","3.402871","-0.026810","796253","918806","866842","11.392647","2.702570","-0.054527","694805","845329","951600","8.420160","2.043263","-0.027219","3328","4014","4277","2788","2785","2784","2499","1995","1828","2340","1656","1443","2730","2345","2221",""
"MA200-0416","18694","54","1","1.10","1.4","2023-05-03T08:03:30","120","2023/05/03","08:03:30","-15.800723016262054","34.99348372220993","4.2","14","30","64","82","-9056","-24552","2812","13","150","149.92","116.86","33.07","24.58","58.3","15.84","90888","24.31","DUALSPOT-UV-BLUE-GREEN-RED-IR","704261","702488","911192","20.396232","5.660196","0.009401","691305","884858","762358","15.916340","4.127258","0.006087","790214","892445","813777","13.706157","3.410750","-0.004936","796782","919613","867648","11.416178","2.708822","-0.007617","695092","845815","952176","8.439816","2.047973","-0.030027","2900","3397","3588","2298","2481","2545","2077","1978","1945","2020","1897","1858","2349","1989","1874",""
"MA200-0416","18695","54","1","1.10","1.4","2023-05-03T08:04:00","120","2023/05/03","08:04:00","-15.800307393074036","34.99436032772064","3.5","14","30","64","82","-9080","-24264","3436","13","150","149.53","117.13","32.40","24.62","58.0","15.81","90864","24.38","DUALSPOT-UV-BLUE-GREEN-RED-IR","697687","696135","903133","20.447032","5.676853","0.009990","690821","884461","762073","15.950446","4.135812","-0.009040","789734","892074","813497","13.733867","3.417295","-0.017582","789823","911726","860235","11.437455","2.711767","-0.166002","694569","845253","951616","8.456490","2.052858","0.008559","2547","3019","3201","2158","1957","1886","1964","1677","1582","1822","911","628","1988","2106","2143",""
"MA200-0416","18696","54","1","1.10","1.4","2023-05-03T08:04:30","120","2023/05/03","08:04:30","-15.801127552986145","34.99493497610092","3.7","14","30","64","82","-11304","-23676","2888","13","150","150.35","116.88","33.48","24.66","57.8","15.79","90812","24.44","DUALSPOT-UV-BLUE-GREEN-RED-IR","699329","698119","905879","20.510960","5.696277","0.003788","693103","887670","764941","15.993361","4.147810","-0.002083","791261","894072","815381","13.768807","3.425187","-0.028445","793679","916401","864697","11.464101","2.716237","-0.103589","696468","847741","954476","8.480301","2.057891","-0.062354","3212","3408","3483","2722","2657","2634","2481","1957","1783","2287","1339","1045","2846","2100","1861",""
"MA200-0416","18697","54","1","1.10","1.4","2023-05-03T08:05:00","120","2023/05/03","08:05:00","-15.801826119422913","34.99568945169449","4.7","14","30","64","82","-8620","-24644","2980","13","150","150.09","116.91","33.19","24.71","57.5","15.76","90784","24.50","DUALSPOT-UV-BLUE-GREEN-RED-IR","700983","700003","908486","20.562994","5.713585","0.009337","689804","883627","761549","16.026297","4.157121","-0.000357","792022","895061","816325","13.795219","3.431189","-0.026212","794083","917013","865308","11.485752","2.720749","-0.046559","697141","848681","955576","8.497438","2.061100","-0.096158","2614","3062","3235","2088","2079","2076","1875","1501","1377","1858","1364","1210","2047","1350","1126",""
"MA200-0416","18698","54","1","1.10","1.4","2023-05-03T08:05:30","120","2023/05/03","08:05:30","-15.801758587360382","34.99664485454559","3.5","14","30","64","82","-10112","-23696","3348","13","150","150.17","117.43","32.75","24.76","57.4","15.76","90708","24.56","DUALSPOT-UV-BLUE-GREEN-RED-IR","700031","700311","909630","20.804152","5.788591","0.006617","688675","883518","761878","16.220240","4.213268","0.003015","791183","895298","816958","13.961732","3.477234","-0.000819","788567","911674","860622","11.624930","2.756357","-0.010450","696815","848997","956207","8.603439","2.089236","-0.007911","12062","13452","13988","12243","12709","12873","11772","11672","11639","11891","10908","10603","12610","12001","11806",""
"MA200-0416","18699","54","1","1.10","1.4","2023-05-03T08:06:00","120","2023/05/03","08:06:00","-15.801166355609894","34.997458696365356","3.1","14","30","64","82","-10920","-23472","3576","13","150","149.73","117.12","32.61","24.79","57.1","15.73","90628","24.56","DUALSPOT-UV-BLUE-GREEN-RED-IR","695619","696349","904716","20.911126","5.822855","0.008247","689106","884491","762876","16.298975","4.235615","0.001558","791410","895972","817688","14.030602","3.496140","-0.001357","789498","913057","862014","11.680411","2.770691","-0.008931","692746","844269","950935","8.646351","2.100312","-0.012339","5364","6171","6482","4983","5079","5113","4881","4813","4790","4752","4410","4303","5118","4744","4624",""
"MA200-0416","18700","54","1","1.10","1.4","2023-05-03T08:06:30","120","2023/05/03","08:06:30","-15.800497353076935","34.99715465307236","3.6","14","30","64","82","-9084","-24328","3460","13","150","149.73","117.35","32.38","24.85","57.0","15.75","90628","24.63","DUALSPOT-UV-BLUE-GREEN-RED-IR","696106","697210","906064","20.990542","5.848007","0.008098","690410","886538","764751","16.356709","4.252577","0.004919","787416","891721","813925","14.078867","3.507894","-0.013174","789710","913587","862580","11.721365","2.780157","-0.023084","693067","844852","951692","8.677494","2.108596","-0.005752","3974","4562","4788","3647","3883","3966","3414","3013","2880","3501","2932","2755","3707","3573","3531",""
"MA200-0416","18701","54","1","1.10","1.4","2023-05-03T08:07:00","120","2023/05/03","08:07:00","-15.80005258321762","34.99630105495453","4.2","14","30","64","82","-8828","-24396","2744","13","150","150.30","117.05","33.26","24.88","56.9","15.75","90656","24.69","DUALSPOT-UV-BLUE-GREEN-RED-IR","696491","697863","907075","21.051116","5.866672","0.004982","690702","887170","765385","16.401400","4.263920","-0.010273","787010","891527","813792","14.115295","3.516674","-0.017949","790691","914932","863907","11.750913","2.785581","-0.073636","693019","844888","951813","8.699051","2.113606","-0.036407","3039","3296","3395","2830","2528","2422","2583","2191","2061","2532","1636","1357","2572","2104","1954",""
"MA200-0416","18702","54","1","1.10","1.4","2023-05-03T08:07:30","120","2023/05/03","08:07:30","-15.799304068088531","34.9956938624382","3.2","14","30","64","82","-9040","-24524","3444","13","150","150.13","117.54","32.59","24.93","56.8","15.76","90672","24.69","DUALSPOT-UV-BLUE-GREEN-RED-IR","696699","698307","907834","21.102698","5.883476","0.009250","685942","881304","760393","16.437084","4.272342","-0.015309","788223","893105","815276","14.145364","3.522777","-0.039201","792303","916975","865838","11.772666","2.789402","-0.078502","693851","846045","953135","8.719830","2.118294","-0.037413","2577","3028","3202","2250","1915","1798","2123","1554","1366","1856","1176","964","2469","2009","1862",""
"MA200-0416","18703","54","1","1.10","1.4","2023-05-03T08:08:00","120","2023/05/03","08:08:00","-15.798427700996399","34.99512106180191","3.7","14","30","64","82","-7484","-25000","2616","13","150","149.63","117.26","32.37","24.98","56.6","15.76","90712","24.75","DUALSPOT-UV-BLUE-GREEN-RED-IR","697786","699672","909754","21.156164","5.900076","0.006971","687645","883707","762547","16.473562","4.282922","0.003896","787930","892981","815224","14.175416","3.529805","-0.018021","792800","917712","866600","11.797590","2.793586","-0.089422","694086","846501","953698","8.739435","2.121838","-0.095846","2678","3012","3141","2306","2423","2464","2127","1802","1694","2132","1296","1037","2335","1529","1270",""
"MA200-0416","18704","54","1","1.10","1.4","2023-05-03T08:08:30","120","2023/05/03","08:08:30","-15.797670543193817","34.9945952296257","2.2","14","30","64","82","-7772","-25092","2988","13","150","150.36","117.39","32.98","25.01","56.5","15.75","90784","24.81","DUALSPOT-UV-BLUE-GREEN-RED-IR","693637","695702","904682","21.200190","5.914720","0.009594","688200","884631","763422","16.505676","4.291046","-0.009406","788616","893929","816134","14.200246","3.535408","-0.024999","787576","911838","861083","11.819197","2.797359","-0.083189","694538","847149","954462","8.755842","2.125761","-0.027972","2202","2608","2765","2028","1826","1755","1756","1410","1296","1846","1147","931","1952","1661","1568",""
"MA200-0416","18705","54","1","1.10","1.4","2023-05-03T08:09:00","120","2023/05/03","08:09:00","-15.797353029251099","34.99524796009064","3.3","14","30","64","82","-9912","-24104","4020","13","150","149.38","117.11","32.27","25.06","56.4","15.77","90760","24.81","DUALSPOT-UV-BLUE-GREEN-RED-IR","693568","695834","905000","21.243870","5.928364","0.007363","688248","884850","763676","16.534533","4.299301","0.002979","789394","894993","817176","14.225428","3.541946","-0.005839","789251","913971","863116","11.839412","2.799934","-0.201094","695266","848148","955616","8.775076","2.130689","-0.011594","2190","2483","2596","1826","1896","1921","1785","1682","1648","1731","800","512","2294","2133","2082",""
"MA200-0416","18706","54","1","1.10","1.4","2023-05-03T08:09:30","120","2023/05/03","08:09:30","-15.79737401008606","34.99628835916519","3.5","15","30","64","82","-11108","-23404","3236","13","150","150.24","117.24","33.00","25.09","56.2","15.76","90772","24.88","DUALSPOT-UV-BLUE-GREEN-RED-IR","694158","696805","906454","21.318106","5.950193","0.002732","689324","886613","765263","16.585443","4.310955","-0.020371","784875","890141","812811","14.266625","3.550130","-0.045169","789515","914462","863652","11.869479","2.806335","-0.039491","695193","848247","955756","8.801382","2.136774","-0.035011","3719","3885","3949","3219","2617","2406","2917","2058","1774","2573","1946","1751","3134","2575","2396",""
"MA200-0416","18707","54","1","1.10","1.4","2023-05-03T08:10:00","120","2023/05/03","08:10:00","-15.797405481338501","34.997216165065765","3.0","15","30","64","81","-11704","-23272","2876","13","150","150.11","116.82","33.29","25.14","56.2","15.79","90668","24.88","DUALSPOT-UV-BLUE-GREEN-RED-IR","693128","696051","905604","21.375210","5.966198","-0.001105","687993","885162","764115","16.626991","4.320753","-0.018279","784465","889913","812644","14.301333","3.556532","-0.061907","789021","914092","863331","11.898822","2.811193","-0.102203","690352","842458","949300","8.822882","2.140467","-0.125005","2871","2823","2804","2636","2181","2022","2466","1596","1308","2520","1463","1137","2571","1549","1222",""
"MA200-0416","18708","54","1","1.10","1.4","2023-05-03T08:10:30","120","2023/05/03","08:10:30","-15.797716557979584","34.99770200252533","3.8","15","30","64","81","-10573","-24253","3519","13","150","149.73","117.17","32.56","25.19","56.1","15.81","90600","24.94","DUALSPOT-UV-BLUE-GREEN-RED-IR","694266","697379","907463","21.416074","5.978456","0.004636","684559","880897","760473","16.653461","4.328418","0.003223","784418","889989","812744","14.321588","3.561282","-0.018304","789065","914302","863528","11.914475","2.812892","-0.331426","690026","842170","948991","8.836294","2.143276","-0.054590","2048","2211","2274","1674","1745","1769","1435","1211","1137","1340","523","270","1599","1204","1078",""
"MA200-0416","18709","54","1","1.10","1.4","2023-05-03T08:11:00","120","2023/05/03","08:11:00","-15.798564851284027","34.99795997142792","3.0","15","30","64","82","-9240","-24532","2388","13","150","149.95","116.88","33.06","25.21","55.9","15.79","0","0.00","DUALSPOT-UV-BLUE-GREEN-RED-IR","696230","699538","910402","21.455592","5.990772","0.005766","686191","883180","762484","16.678242","4.333122","-0.047975","786073","892046","814649","14.342600","3.564810","-0.082097","786368","911286","860701","11.929152","2.813840","8.577032","691972","844623","951784","8.849340","2.145692","-0.094595","1985","2187","2266","1571","1054","873","1492","886","685","1259","287","-12","1559","1021","848",""
"MA200-0416","18710","54","1","1.10","1.4","2023-05-03T08:11:30","120","2023/05/03","08:11:30","-15.799079656600952","34.99816519021988","1.6","15","30","64","81","-10884","-23716","2804","13","150","149.73","117.43","32.31","25.22","55.8","15.75","0","0.00","DUALSPOT-UV-BLUE-GREEN-RED-IR","691663","695050","904736","21.492168","6.014835","0.030659","686818","883988","763370","16.700829","4.354746","0.046127","786390","892417","815122","14.359167","3.580177","0.052896","787060","912083","861589","11.942905","2.828133","0.065682","692211","844912","952210","8.861706","2.155581","0.080784","1829","4374","5364","1425","4962","6209","1171","3949","4871","1175","4438","5451","1471","4275","5177",""
"MA200-0416","18711","54","1","1.10","1.4","2023-05-03T08:12:00","120","2023/05/03","08:12:00","-15.799106776714325","34.9984695315361","1.9","15","30","64","81","-9668","-23756","3239","13","150","150.17","117.39","32.79","25.28","55.6","15.76","90528","25.00","DUALSPOT-UV-BLUE-GREEN-RED-IR","692219","695803","905837","21.530438","6.027427","0.009210","687950","885596","764767","16.724943","4.359932","-0.027028","786782","893007","815722","14.380893","3.585780","-0.007907","787857","913124","862552","11.958788","2.830082","-0.231343","692500","845381","952745","8.875332","2.159073","-0.013809","1914","2255","2388","1522","1172","1048","1536","1418","1379","1357","596","360","1621","1487","1444",""
"MA200-0416","18712","54","1","1.10","1.4","2023-05-03T08:12:30","120","2023/05/03","08:12:30","-15.799149334430695","34.99873912334442","0.0","15","30","64","81","-8772","-24716","2536","13","150","149.80","117.08","32.71","25.32","55.5","15.77","90528","25.06","DUALSPOT-UV-BLUE-GREEN-RED-IR","692831","696581","906999","21.571112","6.040102","0.006400","687971","885823","764990","16.752182","4.367031","-0.005961","787283","893691","816369","14.400718","3.590417","-0.019244","789648","915349","864703","11.975795","2.833742","-0.035958","693070","846164","953667","8.890995","2.162150","-0.072547","2040","2275","2367","1724","1608","1568","1405","1176","1100","1457","1122","1018","1868","1314","1136",""
"MA200-0416","18713","54","1","1.10","1.4","2023-05-03T08:13:00","120","2023/05/03","08:13:00","-15.79912668466568","34.99901354312897","0.4","15","30","64","81","-8652","-24824","2092","13","150","149.54","116.97","32.58","25.35","55.4","15.77","90540","25.13","DUALSPOT-UV-BLUE-GREEN-RED-IR","693621","697584","908416","21.613784","6.053293","0.006132","684578","881668","761483","16.780326","4.374326","-0.006158","787518","894159","816845","14.422501","3.594124","-0.074462","790003","915898","865213","11.991852","2.834308","0.664032","693458","846778","954389","8.905172","2.164004","-0.262922","2142","2378","2470","1783","1660","1616","1546","945","745","1377","174","-197","1693","795","506",""
"MA200-0416","18714","54","1","1.10","1.4","2023-05-03T08:13:30","120","2023/05/03","08:13:30","-15.799129068851471","34.9986315369606","1.8","15","30","64","81","-9600","-23956","2060","13","150","149.09","115.75","33.33","25.40","55.4","15.81","90532","25.13","DUALSPOT-UV-BLUE-GREEN-RED-IR","692740","696933","907715","21.667252","6.069708","0.003879","683574","880543","760564","16.811532","4.380607","-0.040831","786786","893470","816245","14.447516","3.599053","-0.050259","789096","914995","864395","12.009558","2.836526","-0.236878","692712","845915","953455","8.919376","2.166731","-0.088136","2713","2892","2962","1998","1397","1185","1794","1227","1039","1534","667","399","1714","1143","959",""
"MA200-0416","18715","54","1","1.10","1.4","2023-05-03T08:14:00","120","2023/05/03","08:14:00","-15.799278497695923","34.99802416563034","4.1","15","30","64","81","-10416","-24024","2072","13","150","150.43","117.27","33.15","25.44","55.3","15.82","90544","25.19","DUALSPOT-UV-BLUE-GREEN-RED-IR","690160","694596","904787","21.713888","6.083149","0.001212","685852","883740","763391","16.841432","4.388082","-0.011013","784539","891092","814121","14.471560","3.603792","-0.046701","785848","911369","860997","12.027135","2.839332","-0.110014","694700","848508","956358","8.934740","2.169740","-0.076441","2335","2381","2398","1890","1671","1594","1702","1186","1015","1503","849","647","1830","1267","1087",""
"MA200-0416","18716","54","1","1.10","1.4","2023-05-03T08:14:30","120","2023/05/03","08:14:30","-15.800367414951324","34.997934103012085","5.0","15","30","64","81","-8111","-24744","3492","13","150","150.23","117.26","32.96","25.48","55.3","15.86","90572","25.25","DUALSPOT-UV-BLUE-GREEN-RED-IR","690766","695481","906115","21.762156","6.097734","0.004335","686375","884642","764209","16.871928","4.394020","-0.042172","784642","891395","814439","14.493731","3.606772","-0.156957","786931","912743","862334","12.044062","2.840960","-0.514654","690123","842988","950208","8.948851","2.172213","-0.110534","2417","2598","2669","1927","1335","1126","1569","750","479","1448","495","201","1680","1047","845",""
"MA200-0416","18717","54","1","1.10","1.4","2023-05-03T08:15:00","120","2023/05/03","08:15:00","-15.801248848438263","34.99783509969711","3.8","15","30","64","81","-9604","-24412","2136","13","150","149.67","117.39","32.28","25.52","55.2","15.88","90608","25.25","DUALSPOT-UV-BLUE-GREEN-RED-IR","689706","694642","905190","21.822790","6.117710","0.009887","685550","883778","763537","16.909412","4.404241","-0.000673","783781","890610","813751","14.523170","3.613835","-0.014086","785720","911534","861191","12.067891","2.844744","-0.102412","689401","842222","949374","8.968351","2.176540","-0.038175","3033","3634","3868","2367","2347","2340","2082","1816","1728","2036","1176","910","2320","1872","1728",""
"MA200-0416","18718","54","1","1.10","1.4","2023-05-03T08:15:30","120","2023/05/03","08:15:30","-15.80181872844696","34.99873322248459","4.2","15","30","64","81","-9548","-24144","2352","13","150","149.73","117.31","32.42","25.57","55.0","15.84","90628","25.31","DUALSPOT-UV-BLUE-GREEN-RED-IR","692294","697519","909075","21.875350","6.135198","0.010098","682774","880376","760700","16.942396","4.413915","0.004510","785902","893216","816190","14.551058","3.620475","-0.015521","789582","916175","865632","12.089072","2.848631","-0.064918","691546","844994","952512","8.987431","2.180907","-0.032627","2631","3168","3377","2084","2211","2256","1973","1700","1610","1811","1202","1014","2271","1881","1756",""
"MA200-0416","18719","54","1","1.10","1.4","2023-05-03T08:16:00","120","2023/05/03","08:16:00","-15.801817238330841","34.99982279539108","4.3","15","30","64","81","-9208","-24388","1424","13","150","149.96","117.30","32.66","25.61","54.8","15.83","90612","25.38","DUALSPOT-UV-BLUE-GREEN-RED-IR","692143","697657","909436","21.936384","6.154438","0.007076","683246","881310","761569","16.985132","4.425550","-0.001818","786057","893619","816643","14.583548","3.627819","-0.022920","790212","917094","866517","12.116795","2.854657","-0.033187","691846","845500","953150","9.009727","2.186310","-0.022907","3056","3460","3617","2700","2640","2619","2299","1866","1723","2371","1851","1691","2655","2311","2201",""
"MA200-0416","18720","54","1","1.10","1.4","2023-05-03T08:16:30","120","2023/05/03","08:16:30","-15.802569091320038","35.000633333285805","4.2","15","30","64","81","-11148","-23696","1240","13","150","150.23","117.26","32.96","25.64","54.6","15.81","90556","25.38","DUALSPOT-UV-BLUE-GREEN-RED-IR","686724","693167","904146","22.057756","6.191377","0.004674","683054","882051","762579","17.079484","4.451740","-0.001010","785751","894218","817467","14.662278","3.648191","-0.008071","784458","911188","861204","12.178290","2.868378","-0.030344","692047","846204","954158","9.055298","2.198124","-0.012649","6079","6582","6778","5964","5890","5863","5574","5131","4984","5261","4176","3841","5428","5006","4870",""
"MA200-0416","18721","54","1","1.10","1.4","2023-05-03T08:17:00","120","2023/05/03","08:17:00","-15.803325533866882","35.001274333219044","4.0","15","30","64","81","-11072","-23552","2948","13","150","149.31","116.19","33.12","25.68","54.5","15.81","90472","25.44","DUALSPOT-UV-BLUE-GREEN-RED-IR","634654","674265","903992","25.503974","7.380533","0.008965","634387","860500","762498","20.325180","5.520952","0.008669","734736","874538","816968","17.507266","4.560322","0.008251","738511","892791","859412","14.628122","3.627908","0.007144","659486","832676","952447","11.004601","2.794414","0.008124","174212","210910","225855","207086","239348","251380","203287","228671","237611","211538","230102","236224","234365","251533","257376",""
"MA200-0416","18722","54","1","1.10","1.4","2023-05-03T08:17:30","120","2023/05/03","08:17:30","-15.803474068641663","35.00211999984458","1.6","15","30","64","81","-9544","-24112","2832","13","150","149.69","117.02","32.67","25.73","54.3","15.82","90396","25.50","DUALSPOT-UV-BLUE-GREEN-RED-IR","590363","657115","907522","37.286800","11.786488","0.008895","593195","840864","764986","31.247982","9.442820","0.009305","684640","850527","814140","27.783748","8.148444","0.009423","697328","877417","862966","23.914866","6.754619","0.009326","629217","821060","954737","18.430134","5.203933","0.010007","591413","792120","884889","691963","889921","975647","729088","911828","987663","796198","960185","1024734","886434","1030289","1086890",""
"MA200-0416","18723","54","1","1.10","1.4","2023-05-03T08:18:00","120","2023/05/03","08:18:00","-15.802876591682434","35.00238749966957","4.0","15","30","64","81","-9115","-24200","3796","13","150","149.90","117.38","32.51","25.77","54.3","15.84","90376","25.50","DUALSPOT-UV-BLUE-GREEN-RED-IR","590377","657650","908735","37.768880","11.986473","0.011164","589220","835917","760853","31.697664","9.618027","0.011629","683842","850231","814229","28.224260","8.313078","0.011733","697428","878270","864127","24.326102","6.901664","0.011874","629000","821351","955385","18.768708","5.317778","0.012249","24122","36127","41709","28399","39948","44979","31156","42039","46582","35148","45374","49424","40293","48913","52322",""
"MA200-0416","18724","54","1","1.10","1.4","2023-05-03T08:18:30","120","2023/05/03","08:18:30","-15.801541686058044","35.00262716668658","5.6","15","30","64","80","-8436","-24368","3771","13","150","150.14","116.96","33.18","25.80","54.1","15.83","90420","25.56","DUALSPOT-UV-BLUE-GREEN-RED-IR","589759","657029","908013","37.792316","11.999062","0.014998","592220","840292","764877","31.720944","9.627527","0.012178","683399","849800","813902","28.245654","8.320427","0.008145","696439","877185","863080","24.349070","6.906474","-0.023665","628153","820428","954374","18.793206","5.323660","-0.014544","1177","2228","2717","1475","2122","2404","1518","1838","1972","1970","1454","1249","2925","2475","2297",""
"MA200-0416","18725","54","1","1.10","1.4","2023-05-03T08:19:00","120","2023/05/03","08:19:00","-15.800171077251434","35.002769666258246","4.7","15","30","64","81","-8596","-24600","2904","13","150","150.43","116.88","33.55","25.84","54.0","15.82","90444","25.56","DUALSPOT-UV-BLUE-GREEN-RED-IR","590115","657546","908878","37.819940","12.012486","0.013324","589095","836015","761080","31.745704","9.636253","0.007764","683537","850160","814340","28.268998","8.327377","0.001774","697168","878286","864235","24.370080","6.911444","-0.013337","628602","821135","955281","18.817150","5.330343","-0.002126","1388","2350","2798","1570","1928","2084","1658","1719","1745","1803","1486","1361","2861","2782","2751",""
"MA200-0416","18726","54","1","1.10","1.4","2023-05-03T08:19:30","120","2023/05/03","08:19:30","-15.79916399717331","35.00270833307877","3.4","15","30","64","81","-9752","-24444","3080","13","150","149.33","116.24","33.09","25.89","54.0","15.86","90444","25.63","DUALSPOT-UV-BLUE-GREEN-RED-IR","587723","655105","905668","37.879412","12.034763","0.008355","590876","838798","763739","31.793042","9.651627","0.005291","684730","851881","816021","28.312856","8.339518","-0.001431","694109","874612","860676","24.407366","6.920726","-0.008708","625899","817815","951493","18.851036","5.338111","-0.019782","3005","3954","4396","3018","3444","3629","3132","3046","3010","3217","2813","2653","4072","3279","2966",""
"MA200-0416","18727","54","1","1.10","1.4","2023-05-03T08:20:00","120","2023/05/03","08:20:00","-15.798134446144104","35.002959833014756","4.3","15","30","64","81","-9472","-24144","3416","13","150","149.94","116.63","33.31","25.93","53.9","15.87","90448","25.63","DUALSPOT-UV-BLUE-GREEN-RED-IR","588666","656193","907296","37.905656","12.046978","0.012663","591194","839346","764285","31.814600","9.658718","0.005627","685759","853294","817459","28.334424","8.346421","0.005151","695887","876974","863068","24.428360","6.925285","-0.020561","626798","819101","952995","18.870552","5.343076","-0.009514","1321","2153","2541","1370","1578","1669","1535","1720","1797","1806","1373","1202","2337","2082","1981",""
"MA200-0416","18728","54","1","1.10","1.4","2023-05-03T08:20:30","120","2023/05/03","08:20:30","-15.797115981578827","35.00322433304973","4.3","15","30","64","80","-6800","-25144","3504","13","150","149.94","117.04","32.89","25.97","53.9","15.91","90528","25.69","DUALSPOT-UV-BLUE-GREEN-RED-IR","587640","655179","905991","37.934060","12.058960","0.011163","590631","838672","763716","31.839838","9.666515","0.003916","684771","852176","816421","28.356890","8.351779","-0.009633","694112","874874","861021","24.447758","6.928069","-0.088098","625419","817412","951088","18.890164","5.347723","-0.014841","1425","2139","2472","1598","1757","1826","1593","1352","1251","1662","849","527","2340","1973","1828",""
"MA200-0416","18729","54","1","1.10","1.4","2023-05-03T08:21:00","120","2023/05/03","08:21:00","-15.796299040317535","35.00346383336","1.0","15","30","64","81","-8992","-23856","56","13","150","149.68","117.31","32.38","26.01","53.9","15.94","90628","25.75","DUALSPOT-UV-BLUE-GREEN-RED-IR","590418","658400","910607","37.963808","12.072540","0.012896","588948","836413","761718","31.860870","9.673483","0.007017","682790","849846","814219","28.376462","8.356798","-0.003940","696645","878195","864322","24.465030","6.931901","-0.015391","626973","819567","953640","18.907440","5.351605","-0.018496","1489","2463","2918","1329","1595","1711","1385","1286","1245","1477","1187","1073","2057","1675","1524",""
"MA200-0416","18730","54","1","1.10","1.4","2023-05-03T08:21:30","120","2023/05/03","08:21:30","-15.796170890331268","35.00318583310582","1.2","15","30","64","80","-9436","-23748","4964","13","150","150.24","116.74","33.50","26.05","53.7","15.94","90604","25.75","DUALSPOT-UV-BLUE-GREEN-RED-IR","590458","658561","910933","37.991556","12.084030","0.010367","588949","836556","761919","31.882966","9.680910","0.006195","682620","849771","814197","28.395996","8.362377","-0.000231","698269","880418","866536","24.482190","6.934786","-0.055872","627623","820505","954785","18.924634","5.355699","-0.016434","1396","2014","2303","1403","1643","1748","1389","1382","1380","1474","864","622","2057","1707","1569",""
"MA200-0416","18731","54","1","1.10","1.4","2023-05-03T08:22:00","120","2023/05/03","08:22:00","-15.796139478683472","35.00285583292134","1.6","15","30","64","80","-10240","-24040","1776","13","150","149.40","116.63","32.77","26.09","53.7","15.96","90588","25.81","DUALSPOT-UV-BLUE-GREEN-RED-IR","584553","652132","902133","38.027300","12.098297","0.010028","588589","836184","761634","31.911004","9.690416","0.007172","681846","848942","813433","28.419786","8.369529","0.003172","696690","878523","864712","24.502384","6.939763","-0.008453","626675","819365","953498","18.943402","5.361594","0.007443","1800","2556","2909","1782","2150","2311","1693","1811","1861","1737","1523","1439","2248","2512","2617",""
"MA200-0416","18732","54","1","1.10","1.4","2023-05-03T08:22:30","120","2023/05/03","08:22:30","-15.796025216579437","35.002409166423604","1.9","15","30","64","81","-8752","-25176","3464","13","150","150.41","116.78","33.62","26.13","53.6","15.97","90580","25.88","DUALSPOT-UV-BLUE-GREEN-RED-IR","586626","654597","905692","38.066492","12.115421","0.011338","590341","838806","764102","31.936476","9.699596","0.008310","683421","850970","815455","28.441136","8.375543","-0.001108","693934","875153","861432","24.519268","6.942642","-0.053812","628176","821481","955989","18.961578","5.366006","-0.014791","1971","2991","3467","1617","2023","2201","1517","1485","1471","1450","859","625","2174","1832","1698",""
"MA200-0416","18733","54","1","1.10","1.4","2023-05-03T08:23:00","120","2023/05/03","08:23:00","-15.795688331127167","35.00218649930321","2.0","15","30","64","81","-8907","-24457","1915","13","150","150.31","116.99","33.32","26.17","53.5","15.99","90600","25.88","DUALSPOT-UV-BLUE-GREEN-RED-IR","587069","655195","906654","38.100164","12.129688","0.010948","590403","839050","764359","31.958718","9.706171","0.001618","683931","851807","816274","28.460000","8.380169","-0.008622","695229","876907","863162","24.535234","6.945879","-0.027401","624621","816913","950699","18.974732","5.368378","-0.055115","1690","2515","2900","1409","1462","1486","1338","1152","1074","1369","974","818","1570","994","767",""
"MA200-0416","18734","54","1","1.10","1.4","2023-05-03T08:23:30","120","2023/05/03","08:23:30","-15.79520320892334","35.002397999633104","1.7","15","30","64","80","-7572","-24572","4000","13","150","149.99","116.97","33.02","26.21","53.5","16.01","90608","25.94","DUALSPOT-UV-BLUE-GREEN-RED-IR","586888","655080","906581","38.124664","12.139103","0.009087","589684","838098","763551","31.975750","9.712053","0.007600","683340","851162","815700","28.474014","8.382434","-0.053968","694649","876282","862574","24.548884","6.947517","-0.164286","624026","816199","949916","18.989590","5.371762","-0.019419","1230","1674","1882","1079","1320","1426","994","569","392","1170","498","232","1774","1431","1296",""
"MA200-0416","18735","54","1","1.10","1.4","2023-05-03T08:24:00","120","2023/05/03","08:24:00","-15.794651746749878","35.00241666659713","1.8","15","30","64","80","-7392","-25276","1472","13","150","150.13","116.74","33.39","26.24","53.6","16.07","90644","26.00","DUALSPOT-UV-BLUE-GREEN-RED-IR","588723","657390","909986","38.187552","12.160934","0.006249","587844","835757","761509","32.020500","9.723915","-0.003673","680925","848352","813097","28.512372","8.392900","-0.002447","697350","879914","866197","24.576078","6.953114","-0.026143","625614","818462","952605","19.013638","5.376686","-0.034515","3164","3840","4156","2841","2633","2542","2727","2602","2550","2337","1681","1422","2877","2059","1737",""
"MA200-0416","18736","54","1","1.10","1.4","2023-05-03T08:24:30","120","2023/05/03","08:24:30","-15.794983863830566","35.001894333167","3.6","15","30","64","80","-7928","-24936","1680","13","150","149.76","116.37","33.39","26.28","53.7","16.14","90644","26.00","DUALSPOT-UV-BLUE-GREEN-RED-IR","584852","653186","904288","38.219244","12.175087","0.011759","588524","836868","762562","32.042290","9.731985","0.009190","681291","848925","813645","28.530420","8.398021","-0.000578","697162","879781","866075","24.593564","6.957287","-0.012486","625700","818656","952846","19.030266","5.382445","0.011772","1599","2489","2905","1388","1791","1967","1287","1272","1266","1507","1253","1153","1996","2409","2572",""
"MA200-0416","18737","54","1","1.10","1.4","2023-05-03T08:25:00","120","2023/05/03","08:25:00","-15.795250535011292","35.001008499995805","3.1","15","30","64","80","-7704","-24920","3404","13","150","150.68","116.78","33.90","26.33","53.6","16.17","90732","26.06","DUALSPOT-UV-BLUE-GREEN-RED-IR","584100","652465","903363","38.247288","12.186745","0.010145","587906","836044","761871","32.061936","9.738852","0.007066","684106","852564","817222","28.550380","8.403820","0.000044","696105","878543","864891","24.609236","6.961340","-0.007289","624482","817155","951141","19.044758","5.387009","0.005558","1410","2019","2304","1247","1501","1612","1419","1420","1420","1346","1199","1141","1733","1880","1938",""
"MA200-0416","18738","54","1","1.10","1.4","2023-05-03T08:25:30","120","2023/05/03","08:25:30","-15.795507371425629","35.00008116665413","2.9","15","30","64","80","-6540","-25468","1719","13","150","149.32","116.74","32.57","26.37","53.9","16.29","90828","26.06","DUALSPOT-UV-BLUE-GREEN-RED-IR","586036","654686","906553","38.266608","12.194832","0.011061","589735","838791","764437","32.081002","9.742964","-0.015054","681654","849631","814408","28.565038","8.405769","-0.100579","693432","875246","861687","24.622358","6.961262","0.136477","625963","819189","953542","19.057808","5.389258","-0.059943","972","1458","1685","1210","936","816","1042","496","269","1127","-23","-477","1561","964","728",""
"MA200-0416","18739","54","1","1.10","1.4","2023-05-03T08:26:00","120","2023/05/03","08:26:00","-15.79553997516632","34.999168395996094","2.9","15","30","64","80","-11216","-23608","3428","13","150","150.56","116.59","33.98","26.40","54.1","16.36","90800","26.13","DUALSPOT-UV-BLUE-GREEN-RED-IR","586937","655900","908392","38.312928","12.212994","0.008783","590049","839503","765170","32.120456","9.754217","-0.000984","682175","850514","815344","28.598542","8.414936","-0.003311","694357","876677","863147","24.653900","6.969005","-0.011427","626280","819784","954308","19.087604","5.395683","-0.029800","2333","3139","3517","2508","2455","2432","2385","2240","2179","2714","2286","2117","3570","2641","2275",""
"MA200-0416","18740","54","1","1.10","1.4","2023-05-03T08:26:30","120","2023/05/03","08:26:30","-15.795496821403503","34.99824798107147","3.3","15","30","64","80","-9950","-24058","4329","13","150","150.17","116.70","33.47","26.45","54.0","16.37","90728","26.19","DUALSPOT-UV-BLUE-GREEN-RED-IR","586486","655468","907917","38.337996","12.225029","0.012971","586074","833872","760072","32.136120","9.763021","0.018036","681803","850084","814966","28.613828","8.420355","0.008751","693858","876090","862601","24.667698","6.973171","0.002780","625983","819464","954003","19.104938","5.400888","0.003218","1261","2111","2509","994","1949","2366","1087","1343","1450","1186","1248","1273","2074","2172","2210",""
"MA200-0416","18741","54","1","1.10","1.4","2023-05-03T08:27:00","120","2023/05/03","08:27:00","-15.795845568180084","34.99773520231247","3.2","15","30","64","80","-10300","-23960","3032","13","150","150.36","116.75","33.61","26.48","53.9","16.38","90700","26.19","DUALSPOT-UV-BLUE-GREEN-RED-IR","584137","652917","904459","38.357116","12.233463","0.011436","587544","836071","762133","32.152474","9.767801","0.000667","683260","852018","816871","28.628334","8.424652","0.001377","696987","880171","866621","24.678486","6.974304","-0.313944","623763","816617","950695","19.113716","5.404136","0.014889","961","1473","1713","1038","1054","1061","1031","1061","1073","927","338","105","1050","1349","1468",""
"MA200-0416","18742","54","1","1.10","1.4","2023-05-03T08:27:30","120","2023/05/03","08:27:30","-15.796597301959991","34.99770551919937","2.5","15","30","64","80","-10680","-23723","2584","13","150","149.33","116.47","32.86","26.52","53.8","16.38","90660","26.19","DUALSPOT-UV-BLUE-GREEN-RED-IR","584017","652954","904686","38.395608","12.248577","0.009512","588168","837161","763240","32.181072","9.777439","0.006789","683021","851922","816843","28.653206","8.432067","0.002596","696974","880304","866832","24.699954","6.979949","-0.004239","623406","816274","950361","19.134578","5.409092","-0.014774","1941","2701","3058","1820","2174","2329","1772","1873","1915","1849","1723","1673","2502","2106","1950",""
"MA200-0416","18743","54","1","1.10","1.4","2023-05-03T08:28:00","120","2023/05/03","08:28:00","-15.79723185300827","34.99768990278244","2.0","15","30","64","80","-10292","-24108","2180","13","150","147.77","117.50","30.27","26.55","53.5","16.34","90624","26.25","DUALSPOT-UV-BLUE-GREEN-RED-IR","583591","652698","904499","38.449916","12.272243","0.013107","587313","836134","762397","32.219730","9.792978","0.013843","682712","851691","816702","28.686244","8.443707","0.011946","690552","872357","859049","24.725410","6.987411","0.006523","622850","815714","949784","19.159020","5.416320","0.008929","2714","4592","5472","2438","3805","4402","2334","3193","3551","2173","2473","2591","2905","3335","3505",""
"MA200-0416","18744","54","1","1.10","1.4","2023-05-03T08:28:30","120","2023/05/03","08:28:30","-15.797352015972137","34.997083246707916","3.1","15","30","64","80","-6988","-25200","2316","13","150","150.49","116.50","33.99","26.58","53.3","16.30","90696","26.25","DUALSPOT-UV-BLUE-GREEN-RED-IR","585519","655100","908066","38.520408","12.297672","0.006693","588859","838609","764761","32.274304","9.811193","0.005312","680071","848611","813870","28.732694","8.458007","0.002521","692987","875649","862352","24.765500","6.999278","0.000809","624120","817550","952004","19.189838","5.425813","0.003767","3553","4394","4788","3472","3972","4191","3310","3492","3568","3452","3502","3522","3695","3901","3983",""
"MA200-0416","18745","54","1","1.10","1.4","2023-05-03T08:29:00","120","2023/05/03","08:29:00","-15.797345340251923","34.99610048532486","4.6","15","30","64","80","-8680","-24920","2228","13","150","150.36","117.12","33.24","26.63","53.2","16.31","90804","26.31","DUALSPOT-UV-BLUE-GREEN-RED-IR","585161","654790","907739","38.546320","12.306896","0.007055","588640","838381","764611","32.290214","9.816545","0.006506","680103","848739","814000","28.746934","8.460993","-0.020433","693773","876732","863470","24.777412","7.000065","0.621376","624367","817966","952491","19.202072","5.428132","-0.044955","1299","1629","1784","1007","1193","1274","1009","745","635","1020","237","-70","1459","974","783",""
"MA200-0416","18746","54","1","1.10","1.4","2023-05-03T08:29:30","120","2023/05/03","08:29:30","-15.797402381896973","34.99508613348007","3.8","15","30","64","80","-8000","-24819","3719","13","150","149.49","115.94","33.54","26.66","53.0","16.29","90792","26.31","DUALSPOT-UV-BLUE-GREEN-RED-IR","585827","655633","908965","38.566396","12.315834","0.011455","589179","839232","765404","32.304420","9.821213","0.005046","680179","848971","814231","28.760518","8.465112","0.002216","694451","877670","864425","24.787384","7.002687","-0.005857","624563","818268","952851","19.212490","5.431020","-0.003233","1017","1564","1822","908","1031","1085","972","1019","1038","862","784","753","1255","1202","1181",""
"MA200-0416","18747","54","1","1.10","1.4","2023-05-03T08:30:00","120","2023/05/03","08:30:00","-15.797683298587799","34.994185388088226","3.7","15","30","64","80","-9584","-24150","4038","13","150","149.76","117.15","32.61","26.69","52.9","16.28","90796","26.38","DUALSPOT-UV-BLUE-GREEN-RED-IR","586703","656763","910671","38.602668","12.329979","0.009601","586218","835172","761774","32.329620","9.829134","0.004846","680429","849391","814747","28.783354","8.471334","-0.001073","694644","878026","864800","24.806136","7.005852","-0.048990","624716","818558","953239","19.228192","5.433213","-0.118150","1818","2547","2889","1594","1800","1890","1618","1584","1569","1605","973","724","1872","939","572",""
"MA200-0416","18748","54","1","1.10","1.4","2023-05-03T08:30:30","120","2023/05/03","08:30:30","-15.7984219789505","34.993613839149475","3.6","15","30","64","80","-9484","-24384","3030","13","150","150.30","117.01","33.29","26.72","52.7","16.25","90804","26.38","DUALSPOT-UV-BLUE-GREEN-RED-IR","582657","652337","904666","38.635708","12.343269","0.009786","586573","835783","762410","32.355382","9.839529","0.011599","680898","850077","815419","28.801010","8.476264","-0.000951","694975","878572","865330","24.821454","7.009638","-0.009051","625406","819580","954495","19.242740","5.437989","0.009167","1658","2344","2666","1632","2314","2612","1252","1229","1219","1313","1140","1072","1737","2003","2109",""
"MA200-0416","18749","54","1","1.10","1.4","2023-05-03T08:31:00","120","2023/05/03","08:31:00","-15.799356639385223","34.99367606639862","3.9","15","30","64","80","-8992","-24512","2208","13","150","150.11","116.67","33.45","26.73","52.5","16.20","90804","26.38","DUALSPOT-UV-BLUE-GREEN-RED-IR","582936","652825","905492","38.679244","12.360302","0.009020","586579","836007","762697","32.388084","9.851295","0.008282","681158","850574","816023","28.833792","8.489019","0.011657","696192","880301","867141","24.851430","7.018483","0.001574","625587","819949","954962","19.268944","5.443417","-0.032710","2191","2991","3366","2077","2607","2839","2332","3166","3513","2577","2653","2682","3137","2267","1924",""
"MA200-0416","18750","54","1","1.10","1.4","2023-05-03T08:31:30","120","2023/05/03","08:31:30","-15.800261378288269","34.994314193725586","5.5","15","30","64","80","-8440","-25240","2072","13","150","149.95","116.63","33.32","26.77","52.2","16.16","90884","26.44","DUALSPOT-UV-BLUE-GREEN-RED-IR","583296","653436","906443","38.718452","12.375774","0.009277","587200","837033","763707","32.417270","9.861906","0.008678","681337","850978","816433","28.857072","8.494163","-0.016397","690551","873267","860250","24.871044","7.023198","-0.011404","621703","814968","949190","19.286922","5.448500","-0.000759","1974","2727","3081","1855","2360","2581","1657","1281","1125","1687","1419","1314","2153","2131","2122",""
"MA200-0416","18751","54","1","1.10","1.4","2023-05-03T08:32:00","120","2023/05/03","08:32:00","-15.801093518733978","34.99490296840668","2.3","15","30","64","79","-11288","-23523","3442","13","150","150.03","116.67","33.36","26.79","52.0","16.12","90836","26.44","DUALSPOT-UV-BLUE-GREEN-RED-IR","583563","653839","907169","38.754540","12.391651","0.011402","587440","837522","764245","32.441642","9.870195","0.006599","681627","851483","816974","28.879088","8.501226","0.005105","690926","873906","860882","24.889460","7.027411","-0.015497","625544","820111","955234","19.301296","5.452235","-0.007563","1816","2795","3255","1548","1842","1970","1566","1757","1837","1583","1267","1142","1721","1563","1501",""
"MA200-0416","18752","54","1","1.10","1.4","2023-05-03T08:32:30","120","2023/05/03","08:32:30","-15.801660239696503","34.99540066719055","3.6","15","30","64","80","-8968","-24496","2504","13","150","149.58","116.68","32.90","26.81","51.8","16.07","90792","26.44","DUALSPOT-UV-BLUE-GREEN-RED-IR","581863","652274","905216","38.809424","12.410774","0.006630","586150","835971","762958","32.482406","9.884794","0.008609","679972","849671","815351","28.914166","8.512295","0.004993","689625","872505","859625","24.918220","7.035864","0.002230","624310","818662","953603","19.324002","5.456816","-0.033968","2762","3413","3720","2589","3289","3595","2495","2793","2917","2472","2577","2618","2718","1945","1641",""
"MA200-0416","18753","54","1","1.10","1.4","2023-05-03T08:33:00","120","2023/05/03","08:33:00","-15.801941275596619","34.99631887674332","2.6","15","30","64","80","-12624","-22480","3371","13","150","150.43","116.96","33.48","26.83","51.6","16.03","90768","26.50","DUALSPOT-UV-BLUE-GREEN-RED-IR","583675","654474","908448","38.875376","12.436962","0.009333","587471","838052","764959","32.531440","9.901857","0.007279","681240","851434","817122","28.956526","8.525908","0.005120","691487","874980","862123","24.953064","7.046497","0.003386","625673","820541","955876","19.350494","5.465549","0.009016","3312","4594","5198","3108","3778","4072","3007","3376","3530","2988","3186","3264","3164","3644","3833",""
"MA200-0416","18754","54","1","1.10","1.4","2023-05-03T08:33:30","120","2023/05/03","08:33:30","-15.801553845405579","34.99696725606918","2.5","15","30","64","80","-10852","-23384","4220","13","150","150.03","117.10","32.92","26.86","51.5","16.02","90700","26.50","DUALSPOT-UV-BLUE-GREEN-RED-IR","583574","654534","908657","38.915404","12.451588","0.007859","587417","838171","765145","32.564174","9.912933","0.006950","677948","847437","813351","28.981280","8.534134","0.007073","692921","876936","864081","24.975002","7.050776","-0.029788","622235","816166","950787","19.367076","5.468857","-0.035139","2007","2609","2892","2072","2493","2678","1754","2074","2207","1879","1304","1077","1978","1403","1177",""
"MA200-0416","18755","54","1","1.10","1.4","2023-05-03T08:34:00","120","2023/05/03","08:34:00","-15.801141381263733","34.99752742052078","1.8","15","30","64","79","-11680","-23184","3024","13","150","149.76","116.71","33.06","26.87","51.4","16.00","90644","26.50","DUALSPOT-UV-BLUE-GREEN-RED-IR","582650","653653","907583","38.956756","12.467018","0.008169","582716","831589","759228","32.594048","9.921879","0.002335","680405","850707","816570","29.010026","8.541591","-0.004674","690972","874646","861882","24.998540","7.056898","-0.005151","624957","819850","955102","19.385346","5.472593","-0.032599","2081","2741","3052","1897","2006","2053","2045","1872","1800","2023","1857","1792","2186","1578","1339",""
"MA200-0416","18756","54","1","1.10","1.4","2023-05-03T08:34:30","120","2023/05/03","08:34:30","-15.801547825336456","34.99800956249237","3.3","15","30","64","80","-9088","-24544","3400","13","150","149.39","116.47","32.92","26.90","51.3","16.01","90632","26.56","DUALSPOT-UV-BLUE-GREEN-RED-IR","584390","655812","910770","39.009196","12.486717","0.008361","583829","833402","760967","32.636966","9.936537","0.007059","678188","848120","814136","29.046358","8.553941","0.007684","693585","878104","865386","25.028594","7.064826","-0.004096","622487","816770","951578","19.408996","5.479023","-0.002892","2644","3514","3924","2731","3300","3549","2589","3114","3333","2588","2416","2348","2836","2728","2686",""
"MA200-0416","18757","54","1","1.10","1.4","2023-05-03T08:35:00","120","2023/05/03","08:35:00","-15.801765501499176","34.998911678791046","3.4","15","30","64","79","-10292","-24060","2624","13","150","150.16","116.71","33.45","26.92","51.2","15.97","90636","26.56","DUALSPOT-UV-BLUE-GREEN-RED-IR","584397","655996","911203","39.053944","12.504860","0.009698","584243","834138","761759","32.668904","9.949310","0.011094","677917","847955","814077","29.076158","8.564610","0.008972","693043","877573","864888","25.051846","7.072204","0.005186","622417","816776","951646","19.428798","5.484729","0.000371","2251","3185","3624","2028","2830","3181","2119","2647","2868","1998","2212","2297","2370","2382","2387",""
"MA200-0416","18758","54","1","1.10","1.4","2023-05-03T08:35:30","120","2023/05/03","08:35:30","-15.801800787448883","34.9998060464859","2.9","15","30","64","79","-9284","-25040","-384","13","150","150.17","116.32","33.85","26.93","50.9","15.91","90632","26.63","DUALSPOT-UV-BLUE-GREEN-RED-IR","579777","650962","904286","39.091528","12.519531","0.008551","583943","833901","761576","32.698982","9.960026","0.007459","677977","848162","814345","29.100068","8.571774","0.001388","694003","878952","866308","25.072464","7.077462","-0.008319","622581","817093","952043","19.444134","5.487884","-0.035453","1897","2545","2850","1916","2346","2535","1706","1757","1778","1778","1558","1471","1841","1302","1090",""
"MA200-0416","18759","54","1","1.10","1.4","2023-05-03T08:36:00","120","2023/05/03","08:36:00","-15.801226913928986","34.99992161989212","2.7","15","30","64","79","-10904","-23428","3855","13","150","149.70","117.02","32.67","26.95","50.7","15.87","90552","26.63","DUALSPOT-UV-BLUE-GREEN-RED-IR","578722","649929","902967","39.127308","12.533707","0.009748","583452","833329","761163","32.724964","9.969677","0.009839","677190","847290","813611","29.122092","8.579988","0.011073","691805","876258","863711","25.093030","7.084632","0.010257","621624","815939","950771","19.461358","5.493870","0.013064","1795","2548","2902","1646","2189","2427","1562","2087","2306","1763","2201","2374","2055","2559","2756",""
"MA200-0416","18760","54","1","1.10","1.4","2023-05-03T08:36:30","120","2023/05/03","08:36:30","-15.800700902938843","35.000007499999356","1.2","15","30","64","79","-9284","-24361","3473","13","150","149.76","116.43","33.34","26.97","50.6","15.85","90524","26.63","DUALSPOT-UV-BLUE-GREEN-RED-IR","580279","651765","905631","39.151560","12.543633","0.009889","584472","834909","762665","32.744160","9.976400","0.007424","678497","849054","815320","29.139910","8.585567","0.004018","689294","873191","860721","25.107604","7.087690","-0.023627","623119","817920","953121","19.470822","5.496594","0.000389","1223","1748","1996","1222","1495","1614","1270","1389","1439","1255","920","788","1135","1141","1144",""
"MA200-0416","18761","54","1","1.10","1.4","2023-05-03T08:37:00","120","2023/05/03","08:37:00","-15.800105333328247","35.00011249999807","1.6","15","30","64","79","-8564","-24084","5796","13","150","150.36","116.86","33.51","26.98","50.5","15.83","90540","26.63","DUALSPOT-UV-BLUE-GREEN-RED-IR","580768","652388","906618","39.176144","12.552853","0.007961","585250","836104","763803","32.765954","9.984821","0.010175","678177","848735","815073","29.159074","8.591008","-0.000485","689225","873181","860756","25.123786","7.093031","0.006915","622811","817617","952770","19.484046","5.499840","-0.012885","1235","1616","1795","1382","1863","2073","1361","1348","1342","1389","1598","1681","1581","1353","1263",""
"MA200-0416","18762","54","1","1.10","1.4","2023-05-03T08:37:30","120","2023/05/03","08:37:30","-15.800363659858704","35.00004199999603","0.0","15","30","64","79","-9896","-24304","1208","13","150","150.64","116.98","33.66","27.00","50.5","15.85","90528","26.69","DUALSPOT-UV-BLUE-GREEN-RED-IR","580019","651676","905686","39.198796","12.561867","0.009195","584348","834913","762759","32.783424","9.989435","-0.004092","677762","848304","814683","29.173820","8.594668","-0.008297","687747","871437","859064","25.136920","7.095426","-0.041371","622258","816938","952001","19.493976","5.501525","-0.068548","1137","1572","1778","1107","1016","976","1046","902","842","1126","714","552","1185","698","507",""
"MA200-0416","18763","54","1","1.10","1.4","2023-05-03T08:38:00","120","2023/05/03","08:38:00","-15.800382673740387","35.0000489999984","0.0","15","30","64","79","-9952","-24300","1892","13","150","150.69","117.06","33.63","27.02","50.6","15.89","90528","26.69","DUALSPOT-UV-BLUE-GREEN-RED-IR","581406","653283","907991","39.217200","12.567982","0.004777","585368","836454","764206","32.795476","9.993214","0.003544","678890","849816","816142","29.185128","8.599222","0.012442","690646","875146","862734","25.145928","7.096934","-0.055201","623533","818673","954061","19.502132","5.503468","-0.015955","923","1068","1136","763","833","863","801","1124","1259","772","449","323","973","807","742",""
"MA200-0416","18764","54","1","1.10","1.4","2023-05-03T08:38:30","120","2023/05/03","08:38:30","-15.800888359546661","34.99998098611832","2.5","15","30","64","79","-8042","-25061","1911","13","150","149.90","116.47","33.43","27.04","50.7","15.93","90536","26.75","DUALSPOT-UV-BLUE-GREEN-RED-IR","581916","653909","908923","39.235312","12.575951","0.011203","586042","837564","765214","32.808574","9.996189","-0.013077","679021","850043","816410","29.197796","8.602387","-0.007701","690347","874813","862433","25.156394","7.099193","-0.020977","623289","818419","953759","19.510438","5.505175","-0.033515","913","1400","1629","833","659","583","903","786","737","901","677","590","996","713","602",""
"MA200-0416","18765","54","1","1.10","1.4","2023-05-03T08:39:00","120","2023/05/03","08:39:00","-15.80154436826706","34.999978482723236","2.4","15","30","64","79","-6720","-25364","2236","13","150","149.90","116.87","33.03","27.06","50.6","15.92","90612","26.75","DUALSPOT-UV-BLUE-GREEN-RED-IR","581845","653945","909121","39.265000","12.588383","0.010566","582269","832232","760480","32.833672","10.008200","0.015205","678961","850092","816514","29.217906","8.610309","0.012258","690734","875446","863070","25.172362","7.104600","0.008584","623458","818725","954170","19.525520","5.509944","0.007258","1491","2210","2549","1592","2695","3179","1428","1991","2225","1370","1642","1748","1802","2016","2100",""
"MA200-0416","18766","54","1","1.10","1.4","2023-05-03T08:39:30","120","2023/05/03","08:39:30","-15.802241027355194","35.00038649994531","3.4","15","30","64","79","-10564","-24020","1392","13","150","149.91","116.51","33.40","27.07","50.4","15.86","90616","26.75","DUALSPOT-UV-BLUE-GREEN-RED-IR","582037","654596","910413","39.364356","12.627163","0.008825","582299","832779","761196","32.915248","10.037197","0.007798","678959","850530","817185","29.288890","8.634723","0.007538","691087","876276","864100","25.230546","7.124293","0.007974","623422","818968","954636","19.570866","5.524741","0.008258","5008","6819","7675","5190","6436","6982","5058","6068","6491","5010","5915","6272","5436","6189","6485",""
