"Serial number","Datum ID","Session ID","Data format version","Firmware version","App version","Date / time local","Timezone offset (mins)","Date local (yyyy/MM/dd)","Time local (hh:mm:ss)","GPS lat (ddmm.mmmmm)","GPS long (dddmm.mmmmm)","GPS speed (km/h)","GPS sat count","Timebase (s)","Status","Battery remaining (%)","Accel X","Accel Y","Accel Z","Tape position","Flow setpoint (mL/min)","Flow total (mL/min)","Flow1 (mL/min)","Flow2 (mL/min)","Sample temp (C)","Sample RH (%)","Sample dewpoint (C)","Internal pressure (Pa)","Internal temp (C)","Optical config","UV Sen1","UV Sen2","UV Ref","UV ATN1","UV ATN2","UV K","Blue Sen1","Blue Sen2","Blue Ref","Blue ATN1","Blue ATN2","Blue K","Green Sen1","Green Sen2","Green Ref","Green ATN1","Green ATN2","Green K","Red Sen1","Red Sen2","Red Ref","Red ATN1","Red ATN2","Red K","IR Sen1","IR Sen2","IR Ref","IR ATN1","IR ATN2","IR K","UV BC1","UV BC2","UV BCc","Blue BC1","Blue BC2","Blue BCc","Green BC1","Green BC2","Green BCc","Red BC1","Red BC2","Red BCc","IR BC1","IR BC2","IR BCc","Readable status"
"MA200-0420","42231","67","1","1.10","1.6","2023-07-09T11:04:59","120","2023/07/09","11:04:59","0","0","0.0","2","300","66","90","3804","-804","22850","2","150","149.34","113.02","36.32","24.79","45.3","12.15","0","0.00","DUALSPOT-UV-BLUE-GREEN-RED-IR","660550","716183","905869","0.000000","0.000000","0.000000","732557","907235","836500","0.000000","0.000000","0.000000","720450","883815","832308","0.000000","0.000000","0.000000","735285","882961","887446","0.000000","0.000000","0.000000","672267","900603","963179","0.000000","0.000000","0.000000","","","","","","","","","","","","","","","","Start up-DualSpot on"
"MA200-0420","42232","67","1","1.10","1.6","2023-07-09T11:09:59","120","2023/07/09","11:09:59","0","0","0.0","3","300","64","89","3848","-720","22524","2","150","149.72","112.87","36.84","24.84","42.5","11.21","0","0.00","DUALSPOT-UV-BLUE-GREEN-RED-IR","659362","717400","908896","0.000000","0.000000","0.000000","732194","908699","838777","0.000000","0.000000","0.000000","719156","883687","832977","0.000000","0.000000","0.000000","735678","884534","889605","0.000000","0.000000","0.000000","672668","901653","964631","0.000000","0.000000","0.000000","","","","","","","","","","","","","","","","DualSpot on"
"MA200-0420","42233","67","1","1.10","1.6","2023-07-09T11:14:59","120","2023/07/09","11:14:59","0","0","0.0","12","300","64","87","3954","-683","22154","2","150","150.15","113.31","36.84","24.76","41.6","10.85","89640","24.25","DUALSPOT-UV-BLUE-GREEN-RED-IR","654847","714911","907170","0.492763","0.157617","0.000000","727497","904642","835856","0.295620","0.096291","0.000000","716451","881776","831843","0.239184","0.078749","0.000000","731995","881156","886753","0.177877","0.058715","0.000000","671060","900045","963184","0.093841","0.031059","0.000000","2554","2513","2554","1934","1937","1934","1752","1774","1752","1574","1599","1574","1156","1177","1156","DualSpot on"
"MA200-0420","42234","67","1","1.10","1.6","2023-07-09T11:19:59","120","2023/07/09","11:19:59","-15.787044644355774","35.03524499759078","0.1","13","300","64","86","3868","-776","22688","2","150","149.81","113.31","36.50","24.73","41.3","10.70","0","0.00","DUALSPOT-UV-BLUE-GREEN-RED-IR","652615","714840","908570","0.989769","0.318433","0.000000","727769","906634","838451","0.564687","0.187218","0.000000","715940","882334","832934","0.448666","0.151133","0.000000","732002","882032","888102","0.328262","0.111079","0.000000","671542","901269","964771","0.182731","0.058720","0.000000","2576","2588","2576","1760","1846","1760","1534","1646","1534","1331","1439","1331","1095","1058","1095","DualSpot on"
"MA200-0420","42235","67","1","1.10","1.6","2023-07-09T11:24:59","120","2023/07/09","11:24:59","-15.787088751792908","35.03524065762758","0.1","12","300","64","86","3941","-650","22620","2","150","149.89","113.70","36.18","24.73","41.1","10.62","0","0.00","DUALSPOT-UV-BLUE-GREEN-RED-IR","650203","714561","909748","1.491043","0.488483","0.000000","726323","906478","839105","0.842591","0.281084","0.000000","710942","877423","828924","0.663463","0.222795","0.000000","731970","882884","889435","0.481895","0.163062","0.000000","671859","902224","966057","0.267559","0.087717","0.000000","2589","2760","2589","1811","1923","1811","1568","1644","1568","1355","1441","1355","1042","1119","1042","DualSpot on"
"MA200-0420","42236","67","1","1.10","1.6","2023-07-09T11:29:59","120","2023/07/09","11:29:59","-15.78711324930191","35.035252157598734","0.0","12","300","64","85","3955","-724","22524","2","150","149.81","113.93","35.88","24.76","40.7","10.52","89620","24.25","DUALSPOT-UV-BLUE-GREEN-RED-IR","643297","709068","904100","1.932827","0.638254","0.000000","725904","907501","840717","1.093835","0.365823","0.000000","714292","882766","834501","0.863669","0.291186","0.000000","731728","883456","890420","0.626150","0.212441","0.000000","671546","902224","966379","0.347961","0.115394","0.000000","2277","2452","2277","1634","1751","1634","1458","1582","1458","1270","1380","1270","985","1077","985","DualSpot on"
"MA200-0420","42237","67","1","1.10","1.6","2023-07-09T11:34:59","120","2023/07/09","11:34:59","-15.787093818187714","35.03526232764125","0.0","12","300","64","85","4000","-688","22664","2","150","149.32","114.02","35.30","24.82","40.5","10.48","89608","24.38","DUALSPOT-UV-BLUE-GREEN-RED-IR","642273","710136","906985","2.415592","0.804370","0.000000","719983","901716","836163","1.367498","0.456393","0.000000","710502","879344","831861","1.079864","0.361519","0.000000","727799","879629","887050","0.785577","0.266088","0.000000","668768","899026","963221","0.437282","0.145313","0.000000","2486","2764","2486","1779","1902","1779","1574","1654","1574","1402","1524","1402","1094","1184","1094","DualSpot on"
"MA200-0420","42238","67","1","1.10","1.6","2023-07-09T11:39:59","120","2023/07/09","11:39:59","-15.787132799625397","35.035272657871246","0.5","12","300","64","84","3884","-696","22692","2","150","150.08","114.06","36.02","24.84","39.5","10.10","89600","24.25","DUALSPOT-UV-BLUE-GREEN-RED-IR","642308","711878","910477","2.796630","0.946992","0.000000","721440","904843","839798","1.598445","0.545574","0.000000","711573","881681","834658","1.264556","0.432491","0.000000","729594","882556","890455","0.922807","0.318838","0.000000","670318","901507","966153","0.509040","0.174897","0.000000","1962","2325","1962","1500","1835","1500","1344","1635","1344","1207","1469","1207","878","1147","878","DualSpot on"
"MA200-0420","42239","67","1","1.10","1.6","2023-07-09T11:44:59","120","2023/07/09","11:44:59","-15.787077963352203","35.035308826714754","0.1","11","300","64","83","3880","-724","22804","2","150","147.44","112.87","34.56","24.80","39.8","10.20","89588","24.31","DUALSPOT-UV-BLUE-GREEN-RED-IR","633119","704466","902629","3.363388","1.125202","0.011568","718954","903645","839405","1.899520","0.633371","0.000000","709157","880208","833830","1.501535","0.500464","0.000000","727150","880691","889019","1.098505","0.367536","0.000000","668772","900235","965037","0.623748","0.203301","0.000000","2949","3028","3068","1977","1883","1977","1743","1632","1743","1561","1413","1561","1419","1148","1419","DualSpot on"
"MA200-0420","42240","67","1","1.10","1.6","2023-07-09T11:49:59","120","2023/07/09","11:49:59","-15.787131130695343","35.03524499759078","0.1","11","300","64","83","3948","-716","22688","2","150","149.81","113.52","36.29","24.89","39.7","10.25","89584","24.38","DUALSPOT-UV-BLUE-GREEN-RED-IR","634501","708069","908665","3.818328","1.280811","0.024934","716225","901807","838420","2.164864","0.717700","0.000000","706335","877933","832249","1.715942","0.567668","0.000000","724389","878353","887086","1.260221","0.417606","0.000000","666842","898174","963101","0.719966","0.231266","0.000000","2353","2518","2601","1732","1722","1732","1568","1537","1568","1429","1384","1429","1184","1076","1184","DualSpot on"
"MA200-0420","42241","67","1","1.10","1.6","2023-07-09T11:54:59","120","2023/07/09","11:54:59","-15.787115097045898","35.03528065606952","0.1","11","300","64","83","3854","-741","22687","2","150","150.08","113.81","36.27","24.94","39.1","10.06","89576","24.44","DUALSPOT-UV-BLUE-GREEN-RED-IR","633001","707911","909556","4.152454","1.404411","0.047034","715326","901867","839128","2.373116","0.792497","0.000000","705915","878403","833195","1.886015","0.628507","0.000000","724359","879037","888168","1.387170","0.462017","0.000000","666767","898505","963733","0.787773","0.258152","0.000000","1724","2001","2142","1356","1528","1356","1240","1392","1240","1119","1228","1119","832","1035","832","DualSpot on"
"MA200-0420","42242","67","1","1.10","1.6","2023-07-09T11:59:59","120","2023/07/09","11:59:59","-15.787144839763641","35.035273157060146","0.1","11","300","64","82","3855","-776","22624","2","150","149.69","113.98","35.71","24.98","38.8","10.00","89568","24.50","DUALSPOT-UV-BLUE-GREEN-RED-IR","630276","706471","908808","4.500335","1.524505","0.029660","712602","899769","837767","2.591699","0.865901","0.000000","704285","877390","832737","2.062608","0.685632","0.000000","723239","878461","887987","1.523048","0.506266","0.000000","666087","898078","963504","0.870731","0.282116","0.000000","1792","1975","2068","1421","1523","1421","1286","1328","1286","1196","1243","1196","1016","937","1016","DualSpot on"
"MA200-0420","42243","67","1","1.10","1.6","2023-07-09T12:04:59","120","2023/07/09","12:04:59","-15.787131488323212","35.03525399044156","0.5","11","300","64","82","3792","-704","22696","2","150","149.47","113.76","35.70","24.98","38.5","9.88","89560","24.38","DUALSPOT-UV-BLUE-GREEN-RED-IR","625404","702633","904941","4.855747","1.646951","0.026534","708583","896092","834987","2.821224","0.940960","0.000000","701298","874792","830757","2.252205","0.747168","0.000000","719758","875063","884988","1.668167","0.553114","0.000000","663702","895436","960930","0.959003","0.308593","0.000000","1835","2014","2106","1495","1558","1495","1383","1430","1383","1279","1316","1279","1083","1035","1083","DualSpot on"
"MA200-0420","42244","67","1","1.10","1.6","2023-07-09T12:09:59","120","2023/07/09","12:09:59","-15.787162482738495","35.03524849191308","0.2","11","300","64","82","3820","-788","23040","2","150","149.32","113.78","35.53","24.98","38.6","9.91","0","0.00","DUALSPOT-UV-BLUE-GREEN-RED-IR","624606","703343","906956","5.204841","1.766780","0.025080","708554","897417","836790","3.044744","1.011277","0.003578","700622","875022","831444","2.435682","0.804227","0.000000","719852","876076","886346","1.807367","0.594401","0.000000","663791","896096","961845","1.042316","0.332775","0.000000","1802","1980","2072","1456","1467","1472","1338","1333","1338","1227","1165","1227","1022","950","1022","DualSpot on"
"MA200-0420","42245","67","1","1.10","1.6","2023-07-09T12:14:59","120","2023/07/09","12:14:59","-15.787146508693695","35.03529915958643","0.1","11","300","64","81","3760","-880","22940","2","150","150.08","113.70","36.38","24.98","38.6","9.90","0","0.00","DUALSPOT-UV-BLUE-GREEN-RED-IR","622187","702640","907370","5.636390","1.912921","0.014430","706557","896641","836871","3.336187","1.106113","0.007478","699116","874647","831746","2.679670","0.881486","0.000000","718875","876037","886844","1.999067","0.654552","0.000000","663220","896066","962175","1.161037","0.369442","0.000000","2229","2359","2426","1900","1932","1948","1781","1763","1781","1691","1658","1691","1458","1408","1458","DualSpot on"
"MA200-0420","42246","67","1","1.10","1.6","2023-07-09T12:19:59","120","2023/07/09","12:19:59","-15.787197470664978","35.03521982580423","0.1","11","300","64","81","3964","-692","22628","2","150","149.65","113.31","36.34","25.03","38.2","9.79","0","0.00","DUALSPOT-UV-BLUE-GREEN-RED-IR","622022","703995","910273","5.983776","2.038160","0.026475","707541","899193","839901","3.560991","1.184338","0.031725","699362","875986","833549","2.865112","0.944715","0.000000","720002","878270","889540","2.141346","0.702690","0.000000","663899","897465","963961","1.245189","0.397133","0.000000","1800","2024","2139","1470","1595","1658","1358","1444","1358","1259","1329","1259","1037","1064","1037","DualSpot on"
"MA200-0420","42247","67","1","1.10","1.6","2023-07-09T12:24:59","120","2023/07/09","12:24:59","-15.787096440792084","35.035313326865435","0.2","11","300","64","81","3928","-696","22828","2","150","150.42","113.52","36.90","25.10","38.5","9.99","0","0.00","DUALSPOT-UV-BLUE-GREEN-RED-IR","616094","698883","904790","6.334625","2.160295","0.015315","701738","893212","834926","3.789137","1.255786","-0.015322","694962","871601","829876","3.053863","1.002967","-0.026734","720488","879726","891417","2.288072","0.745995","0.000000","664162","898402","965213","1.340953","0.423051","0.000000","1815","1943","2010","1489","1435","1408","1380","1310","1276","1296","1177","1296","1178","981","1178","DualSpot on"
"MA200-0420","42248","67","1","1.10","1.6","2023-07-09T12:29:59","120","2023/07/09","12:29:59","-15.787075817584991","35.03526282683015","0.3","11","300","64","80","3907","-692","22800","2","150","149.73","113.24","36.49","25.21","38.4","10.03","0","0.00","DUALSPOT-UV-BLUE-GREEN-RED-IR","617558","702230","910324","6.705250","2.293073","0.021640","703980","897536","839605","4.023916","1.333720","0.010682","696698","874979","833587","3.246563","1.064324","-0.005582","717864","877438","889484","2.437412","0.793089","0.000000","661957","896070","962964","1.436851","0.450616","0.000000","1922","2137","2248","1537","1583","1606","1412","1395","1387","1323","1294","1323","1183","1055","1183","DualSpot on"
"MA200-0420","42249","67","1","1.10","1.6","2023-07-09T12:34:59","120","2023/07/09","12:34:59","-15.787087738513947","35.03526432439685","0.4","12","300","64","80","3865","-688","22611","2","150","149.87","113.18","36.69","25.31","38.6","10.18","0","0.00","DUALSPOT-UV-BLUE-GREEN-RED-IR","613150","699232","907881","7.151539","2.449461","0.015343","700293","894431","837496","4.304575","1.429218","0.016094","693591","872400","831772","3.478843","1.142006","0.012965","714458","874333","886882","2.617483","0.852852","0.000000","663520","898913","966376","1.552921","0.485444","0.000000","2315","2503","2601","1838","1929","1975","1703","1757","1784","1596","1634","1596","1432","1326","1432","DualSpot on"
"MA200-0420","42250","67","1","1.10","1.6","2023-07-09T12:39:59","120","2023/07/09","12:39:59","-15.787108480930328","35.035295996814966","0.1","12","300","72","79","3844","-704","22652","2","150","150.46","113.54","36.92","25.45","38.5","10.29","89496","25.00","DUALSPOT-UV-BLUE-GREEN-RED-IR","609187","696718","906122","7.610706","2.615827","0.019465","696815","891597","835601","4.569870","1.517743","0.008222","598784","754238","719636","3.694168","1.211565","-0.002707","717027","878426","891521","2.782919","0.906021","0.000000","661042","896216","963782","1.660308","0.515717","0.000000","2375","2646","2788","1732","1777","1799","1574","1564","1558","1461","1444","1461","1321","1145","1321","DualSpot on"
"MA200-0420","42251","67","1","1.10","1.6","2023-07-09T12:44:59","120","2023/07/09","12:44:59","-15.787099957466125","35.03527699038386","0.3","12","300","64","79","3868","-732","22632","2","150","149.94","113.27","36.67","25.50","38.0","10.14","89480","24.94","DUALSPOT-UV-BLUE-GREEN-RED-IR","609704","699352","911192","8.085670","2.800434","0.029021","698812","895842","840506","4.868322","1.629275","0.038643","691572","872492","833171","3.937772","1.302003","0.045626","713808","875475","889143","2.964294","0.973757","0.000000","658689","893673","961414","1.767952","0.554862","0.000000","2462","2956","3218","1953","2254","2405","1785","2047","2176","1606","1853","1606","1327","1491","1327","DualSpot on"
"MA200-0420","42252","67","1","1.10","1.6","2023-07-09T12:49:59","120","2023/07/09","12:49:59","-15.787204504013062","35.035330157727","0.4","12","300","64","79","3896","-760","22756","2","150","149.35","113.16","36.19","25.53","37.9","10.12","0","0.00","DUALSPOT-UV-BLUE-GREEN-RED-IR","603282","693548","904878","8.442253","2.934890","0.025497","697699","895706","841071","5.099111","1.710010","0.024241","691117","873005","834203","4.127681","1.366275","0.019371","713747","876266","890349","3.108472","1.021612","0.017133","662765","899730","968198","1.853344","0.583912","0.000000","1850","2182","2358","1511","1653","1725","1393","1474","1514","1278","1326","1350","1054","1121","1054","DualSpot on"
"MA200-0420","42253","67","1","1.10","1.6","2023-07-09T12:54:59","120","2023/07/09","12:54:59","-15.787094295024872","35.03535966202617","0.4","12","300","64","79","3850","-804","22733","2","150","149.50","113.03","36.47","25.62","37.9","10.19","0","0.00","DUALSPOT-UV-BLUE-GREEN-RED-IR","603800","696093","909681","8.889793","3.097129","0.017947","693812","892499","838855","5.392092","1.807034","0.007114","687725","870121","832105","4.367702","1.445591","0.008032","710373","873230","887783","3.294046","1.081306","-0.001315","660525","897382","966011","1.968032","0.618977","0.000000","2325","2613","2767","1921","1972","1998","1762","1805","1827","1647","1642","1640","1417","1343","1417","DualSpot on"
"MA200-0420","42254","67","1","1.10","1.6","2023-07-09T12:59:59","120","2023/07/09","12:59:59","-15.787052989006042","35.035222824662924","0.2","12","300","64","78","3912","-828","22688","2","150","149.95","113.43","36.52","25.66","37.9","10.23","0","0.00","DUALSPOT-UV-BLUE-GREEN-RED-IR","601970","695590","910230","9.253101","3.230535","0.019172","692564","892268","839310","5.627737","1.887357","0.014394","686702","869937","832479","4.562002","1.509189","0.005281","709506","873033","888029","3.443224","1.130923","0.013572","659819","897000","965895","2.061420","0.647240","0.000000","1881","2145","2287","1540","1630","1675","1422","1445","1457","1319","1362","1384","1150","1080","1150","DualSpot on"
"MA200-0420","42255","67","1","1.10","1.6","2023-07-09T13:04:59","120","2023/07/09","13:04:59","-15.787092626094818","35.03532449156046","0.1","11","300","64","78","3907","-644","22600","2","150","149.96","113.38","36.58","25.76","37.4","10.13","0","0.00","DUALSPOT-UV-BLUE-GREEN-RED-IR","597256","691588","906238","9.599892","3.369728","0.028487","688082","887718","835725","5.850822","1.970875","0.033320","687315","871770","834767","4.746713","1.576894","0.035711","710946","875672","891158","3.584005","1.180491","0.033503","660783","898843","968128","2.144230","0.675841","0.000000","1796","2235","2472","1458","1692","1811","1352","1536","1628","1245","1359","1415","1020","1092","1020","DualSpot on"
"MA200-0420","42256","67","1","1.10","1.6","2023-07-09T13:09:59","120","2023/07/09","13:09:59","-15.787109017372131","35.035261157900095","0.2","11","300","64","77","3876","-700","22600","2","150","149.94","113.52","36.43","25.79","37.0","10.00","0","0.00","DUALSPOT-UV-BLUE-GREEN-RED-IR","594293","689448","904466","9.902275","3.483692","0.021421","690707","892256","840597","6.048708","2.040327","0.020487","684939","869692","833242","4.910030","1.630967","0.009258","708453","873282","889109","3.710111","1.223081","0.019570","659191","897149","966549","2.221233","0.699894","0.000000","1564","1837","1985","1292","1413","1475","1194","1232","1251","1114","1173","1201","947","922","947","DualSpot on"
"MA200-0420","42257","67","1","1.10","1.6","2023-07-09T13:14:59","120","2023/07/09","13:14:59","-15.78707230091095","35.035291992127895","0.0","11","300","64","77","3939","-748","22804","2","150","149.94","113.31","36.63","25.81","36.7","9.89","0","0.00","DUALSPOT-UV-BLUE-GREEN-RED-IR","593482","689808","905898","10.195225","3.594896","0.020791","685062","886095","835390","6.248424","2.112723","0.024774","684775","870409","834450","5.076593","1.690411","0.026544","708747","874354","890605","3.838758","1.267644","0.025106","659165","897583","967258","2.303939","0.726585","0.000000","1518","1783","1927","1306","1465","1545","1220","1347","1410","1139","1220","1260","1019","1017","1019","DualSpot on"
"MA200-0420","42258","67","1","1.10","1.6","2023-07-09T13:19:59","120","2023/07/09","13:19:59","-15.787034451961517","35.03530799224973","0.1","11","300","64","76","3920","-708","22576","2","150","149.76","113.15","36.60","25.92","36.9","10.06","89448","25.38","DUALSPOT-UV-BLUE-GREEN-RED-IR","594699","692494","910509","10.501713","3.708562","0.017575","687266","890152","839779","6.451019","2.180678","0.008173","682520","868522","833098","5.245645","1.746022","0.004699","706645","872553","889150","3.973119","1.311243","0.001144","657503","895902","965684","2.393333","0.752820","0.000000","1590","1823","1951","1327","1376","1401","1240","1261","1271","1191","1194","1196","1103","1001","1103","DualSpot on"
"MA200-0420","42259","67","1","1.10","1.6","2023-07-09T13:24:59","120","2023/07/09","13:24:59","-15.787111937999725","35.035282988101244","0.1","11","300","64","76","4004","-662","22512","2","150","150.01","113.02","36.99","25.95","36.0","9.72","0","0.00","DUALSPOT-UV-BLUE-GREEN-RED-IR","591341","689759","908012","10.792175","3.829584","0.027552","684080","887051","837513","6.644394","2.259279","0.040369","679611","865660","830908","5.406381","1.809876","0.044983","708530","875532","892634","4.096822","1.359333","0.053546","655008","892911","962751","2.469104","0.780925","0.000000","1509","1921","2148","1268","1575","1733","1180","1433","1560","1098","1304","1406","936","1061","936","DualSpot on"
"MA200-0420","42260","67","1","1.10","1.6","2023-07-09T13:29:59","120","2023/07/09","13:29:59","-15.787096798419952","35.035346161574125","0.1","10","300","64","76","-212","-5148","-26384","2","150","149.59","112.89","36.69","25.95","39.4","11.10","0","0.00","DUALSPOT-UV-BLUE-GREEN-RED-IR","615870","687989","906929","6.606491","3.967676","0.237482","745073","884689","835878","-2.091889","2.329302","0.000000","739539","863674","829463","-3.215803","1.866364","0.000000","772073","873550","891015","-4.670313","1.407495","0.000000","670388","896202","966569","0.544292","0.812602","0.000000","-21777","2210","38278","-57367","1414","-57367","-63408","1278","-63408","-77912","1316","-77912","-23817","1205","-23817","DualSpot on"
"MA200-0420","42261","67","1","1.10","1.6","2023-07-09T13:34:59","120","2023/07/09","13:34:59","-15.787080109119415","35.03529915958643","0.0","10","300","64","75","-287","-5233","-26350","2","150","149.53","113.27","36.26","26.39","42.0","12.46","89436","25.75","DUALSPOT-UV-BLUE-GREEN-RED-IR","615378","688997","909564","6.978534","4.110324","0.046517","745501","886525","838250","-1.864072","2.406288","0.000000","743457","869392","835410","-3.025687","1.927143","0.000000","771342","873653","891586","-4.515589","1.459269","0.000000","669054","895459","966095","0.692710","0.842435","0.000000","1929","2310","2856","1491","1573","1491","1393","1391","1393","1370","1432","1370","1830","1149","1830","DualSpot on"
"MA200-0420","42262","67","1","1.10","1.6","2023-07-09T13:39:59","120","2023/07/09","13:39:59","-15.787091493606567","35.03527782484889","0.1","10","300","64","74","-283","-5100","-26375","2","150","150.08","113.52","36.56","26.72","42.3","12.86","89424","26.13","DUALSPOT-UV-BLUE-GREEN-RED-IR","611373","686414","907542","7.407593","4.265341","0.030098","741185","882991","835602","-1.595613","2.492357","0.000000","739789","866475","833187","-2.801303","1.994139","0.000000","767681","870597","888937","-4.336586","1.512068","0.000000","665323","891436","962054","0.830062","0.873616","0.000000","2220","2490","2857","1753","1745","1753","1641","1521","1641","1582","1448","1582","1690","1191","1690","DualSpot on"
"MA200-0420","42263","67","1","1.10","1.6","2023-07-09T13:44:59","120","2023/07/09","13:44:59","-15.787052154541016","35.03533165901899","0.1","11","300","64","74","-308","-5200","-26379","2","150","149.81","113.10","36.70","27.01","41.8","12.91","89436","26.50","DUALSPOT-UV-BLUE-GREEN-RED-IR","609891","686697","909388","7.849773","4.425266","0.026486","740753","884092","837399","-1.328265","2.578324","0.000000","739554","867569","834776","-2.580300","2.059537","0.000000","768972","873141","892003","-4.161878","1.561971","0.000000","664937","891793","962713","0.962734","0.903248","0.000000","2296","2559","2899","1752","1736","1752","1622","1479","1622","1549","1364","1549","1638","1127","1638","DualSpot on"
"MA200-0420","42264","67","1","1.10","1.6","2023-07-09T13:49:59","120","2023/07/09","13:49:59","-15.787095785140991","35.035262160003185","0.4","12","300","64","73","-239","-5148","-26308","2","150","149.89","113.11","36.77","27.22","40.6","12.66","0","0.00","DUALSPOT-UV-BLUE-GREEN-RED-IR","607656","685878","909776","8.262481","4.584774","0.036043","739319","883821","837853","-1.079855","2.666003","0.000000","737600","866398","834264","-2.376773","2.128476","0.000000","767230","872095","891379","-4.002153","1.615727","0.000000","667355","895774","967332","1.072166","0.932504","0.000000","2143","2547","3051","1628","1767","1628","1493","1556","1493","1416","1466","1416","1351","1111","1351","DualSpot on"
"MA200-0420","42265","67","1","1.10","1.6","2023-07-09T13:54:59","120","2023/07/09","13:54:59","-15.787091970443726","35.03529865667224","0.2","12","300","64","72","-275","-5154","-26145","2","150","149.60","113.02","36.58","27.37","39.9","12.55","0","0.00","DUALSPOT-UV-BLUE-GREEN-RED-IR","602377","681815","905882","8.707211","4.754507","0.032497","734141","879206","834274","-0.801936","2.759731","0.000000","733325","862733","831333","-2.148302","2.202665","0.000000","762323","867572","887234","-3.823141","1.671314","0.000000","663376","891210","962653","1.188018","0.964434","0.000000","2311","2725","3223","1822","1899","1822","1678","1683","1678","1589","1524","1589","1431","1219","1431","DualSpot on"
"MA200-0420","42266","67","1","1.10","1.6","2023-07-09T13:59:59","120","2023/07/09","13:59:59","-15.787115216255188","35.03531365841627","0.2","12","300","64","72","-312","-5187","-26345","2","150","149.50","113.31","36.19","27.54","39.8","12.66","0","0.00","DUALSPOT-UV-BLUE-GREEN-RED-IR","599456","680557","905903","9.194649","4.938083","0.030327","737725","885238","840832","-0.512146","2.856916","0.000000","731200","861631","830900","-1.909710","2.278036","0.000000","760503","866601","886784","-3.636400","1.728958","0.000000","661864","889995","961693","1.315570","0.996965","0.000000","2526","2979","3503","1895","1990","1895","1748","1728","1748","1653","1597","1653","1572","1255","1572","DualSpot on"
"MA200-0420","42267","67","1","1.10","1.6","2023-07-09T14:04:59","120","2023/07/09","14:04:59","-15.787049412727356","35.03530066087842","0.1","12","300","64","71","-316","-5132","-26344","2","150","150.08","113.16","36.93","27.72","39.5","12.69","0","0.00","DUALSPOT-UV-BLUE-GREEN-RED-IR","595439","678446","905093","9.776218","5.160240","0.027148","734659","883537","840167","-0.172707","2.969242","0.000000","732623","864967","834818","-1.633767","2.363533","0.000000","763500","871374","892219","-3.420856","1.793433","0.000000","663666","893445","965746","1.461360","1.033284","0.000000","3018","3533","4109","2223","2255","2223","2024","1922","2024","1911","1751","1911","1799","1373","1799","DualSpot on"
"MA200-0420","42268","67","1","1.10","1.6","2023-07-09T14:09:59","120","2023/07/09","14:09:59","-15.787089109420776","35.03529182821512","0.0","13","300","64","70","-292","-5116","-26112","2","150","149.21","113.76","35.45","27.86","39.1","12.65","89396","27.38","DUALSPOT-UV-BLUE-GREEN-RED-IR","594704","679704","908566","10.286968","5.357366","0.032309","728868","878353","836105","0.136281","3.075641","0.000000","728478","861534","832211","-1.379274","2.447331","0.000000","758921","867311","888662","-3.221202","1.857425","0.000000","660214","889614","961961","1.591003","1.070079","0.000000","2636","3266","3949","2013","2224","2013","1857","1962","1857","1760","1811","1760","1591","1449","1591","DualSpot on"
"MA200-0420","42269","67","1","1.10","1.6","2023-07-09T14:14:59","120","2023/07/09","14:14:59","-15.787032306194305","35.03526932373643","0.3","13","300","64","70","-279","-5066","-26266","2","150","150.34","113.78","36.56","28.01","38.6","12.60","89392","27.50","DUALSPOT-UV-BLUE-GREEN-RED-IR","591732","678093","907938","10.718456","5.527002","0.029465","726845","877434","836006","0.400793","3.168309","0.000000","725605","859351","830705","-1.161943","2.520930","0.000000","756258","865274","887062","-3.050195","1.913074","0.000000","662143","892904","965834","1.704673","1.100762","0.000000","2227","2725","3255","1723","1879","1723","1585","1671","1585","1507","1527","1507","1395","1172","1395","DualSpot on"
"MA200-0420","42270","67","1","1.10","1.6","2023-07-09T14:19:59","120","2023/07/09","14:19:59","-15.787122368812561","35.035294998437166","0.2","13","300","64","69","-304","-5092","-26252","2","150","149.77","113.84","35.94","28.13","37.7","12.37","89396","27.69","DUALSPOT-UV-BLUE-GREEN-RED-IR","585933","673123","902732","11.125725","5.687010","0.029975","726196","878152","837477","0.669045","3.264272","0.000000","725844","860928","832864","-0.937244","2.597397","0.000000","757329","867511","889864","-2.873630","1.971101","0.000000","658631","888918","961853","1.821991","1.134850","0.000000","2101","2615","3152","1746","1979","1746","1638","1766","1638","1556","1620","1556","1439","1325","1439","DualSpot on"
"MA200-0420","42271","67","1","1.10","1.6","2023-07-09T14:24:59","120","2023/07/09","14:24:59","-15.787080943584442","35.03529965877533","0.2","13","300","64","69","-245","-5075","-26391","2","150","150.15","113.80","36.35","28.18","37.5","12.31","89392","27.75","DUALSPOT-UV-BLUE-GREEN-RED-IR","586798","675717","907608","11.516781","5.842605","0.028899","727597","881379","841353","0.935400","3.361726","0.000000","722254","857911","830616","-0.712274","2.676886","0.000000","753184","863772","886586","-2.693971","2.032270","0.000000","659807","891224","964715","1.941173","1.172133","0.000000","2018","2514","3025","1735","1987","1735","1641","1815","1641","1583","1688","1583","1463","1432","1463","DualSpot on"
"MA200-0420","42272","67","1","1.10","1.6","2023-07-09T14:29:59","120","2023/07/09","14:29:59","-15.787059009075165","35.03532215580344","0.0","13","300","64","68","-175","-5037","-26350","2","150","149.53","113.85","35.69","28.21","37.3","12.25","0","0.00","DUALSPOT-UV-BLUE-GREEN-RED-IR","583578","673556","906197","11.910149","6.003956","0.032206","719589","873107","834298","1.200739","3.460217","0.000000","719840","856262","829705","-0.489048","2.756637","0.000000","750742","862012","885318","-2.516424","2.091848","0.000000","658218","889790","963480","2.055255","1.206916","0.000000","2029","2655","3292","1727","2046","1727","1627","1855","1627","1564","1674","1564","1399","1361","1399","DualSpot on"
"MA200-0420","42273","67","1","1.10","1.6","2023-07-09T14:34:59","120","2023/07/09","14:34:59","-15.787118196487427","35.03530449047685","0.2","13","300","64","68","-300","-5095","-26225","2","150","149.90","113.76","36.14","28.24","36.8","12.06","0","0.00","DUALSPOT-UV-BLUE-GREEN-RED-IR","582476","674193","908712","12.378769","6.191015","0.027409","719286","874523","836684","1.528147","3.580934","0.000000","719512","857403","831634","-0.211248","2.857023","0.000000","751384","863980","888006","-2.296251","2.168650","0.000000","658690","891271","965512","2.191860","1.251845","0.000000","2419","3040","3661","2133","2476","2133","2027","2306","2027","1941","2132","1941","1677","1736","1677","DualSpot on"
"MA200-0420","42274","67","1","1.10","1.6","2023-07-09T14:39:59","120","2023/07/09","14:39:59","-15.787124633789062","35.03528366237879","0.3","13","300","64","68","-208","-5045","-26433","2","150","149.64","113.62","36.03","28.27","37.0","12.17","89392","27.81","DUALSPOT-UV-BLUE-GREEN-RED-IR","580681","674187","910575","12.890869","6.392586","0.025118","718296","875355","838506","1.878673","3.704912","0.000000","718086","857358","832411","0.083438","2.956849","0.000000","750579","864432","889129","-2.061542","2.245032","0.000000","658195","891531","966253","2.345668","1.298204","0.000000","2647","3286","3915","2287","2551","2287","2153","2300","2153","2072","2127","2072","1891","1797","1891","DualSpot on"
"MA200-0420","42275","67","1","1.10","1.6","2023-07-09T14:44:59","120","2023/07/09","14:44:59","-15.787120699882507","35.03524432703853","0.1","12","300","64","67","-276","-5124","-26368","2","150","149.97","113.53","36.44","28.38","36.6","12.14","0","0.00","DUALSPOT-UV-BLUE-GREEN-RED-IR","569532","666977","905969","14.312996","6.960123","0.022451","713159","874530","840642","2.847690","4.053206","0.000000","713737","856918","834420","0.920548","3.246784","0.000000","747755","865191","891993","-1.371437","2.475071","0.000000","652636","886957","962681","2.817463","1.442379","0.000000","7357","9147","10841","6327","7085","6327","6121","6605","6121","6098","6333","6098","5805","5526","5805","DualSpot on"
"MA200-0420","42276","67","1","1.10","1.6","2023-07-09T14:49:59","120","2023/07/09","14:49:59","-15.787112295627594","35.03521949052811","0.5","12","300","64","66","-252","-5156","-26463","2","150","149.89","113.62","36.26","28.43","36.2","12.01","0","0.00","DUALSPOT-UV-BLUE-GREEN-RED-IR","565605","665081","905992","15.020016","7.250807","0.023828","704058","866157","834208","3.371904","4.246212","-0.431706","710537","855557","834421","1.382207","3.409850","0.000000","738964","857216","884892","-0.980815","2.605546","0.000000","650628","885829","962230","3.085743","1.523757","-0.035128","3654","4708","5691","3420","3945","1392","3373","3733","3373","3449","3609","3449","3298","3135","2975","DualSpot on"
"MA200-0420","42277","67","1","1.10","1.6","2023-07-09T14:54:59","120","2023/07/09","14:54:59","-15.787102937698364","35.03532115742564","0.2","13","300","64","66","-283","-5058","-26183","2","150","149.90","113.23","36.66","28.41","35.7","11.77","0","0.00","DUALSPOT-UV-BLUE-GREEN-RED-IR","564623","665524","908258","15.443321","7.433742","0.025397","703792","867507","836565","3.690172","4.371853","1.723443","705364","850793","830689","1.661642","3.516871","0.000000","738768","858249","886744","-0.747501","2.690207","0.000000","650479","886575","963573","3.245422","1.575566","0.001230","2195","2930","3612","2083","2540","-388","2048","2423","2048","2067","2316","2067","1969","1974","1977","DualSpot on"
"MA200-0420","42278","67","1","1.10","1.6","2023-07-09T14:59:59","120","2023/07/09","14:59:59","-15.787081480026245","35.03527082130313","0.2","13","300","64","66","-262","-5125","-26420","2","150","149.67","113.38","36.29","28.30","35.2","11.47","0","0.00","DUALSPOT-UV-BLUE-GREEN-RED-IR","560644","662175","905005","15.792171","7.581472","0.024272","704480","869739","839624","3.962774","4.484726","0.457493","706336","853174","833775","1.898439","3.612381","0.000000","741344","862244","891504","-0.554161","2.764586","0.000000","652528","890076","967798","3.371387","1.622296","0.069621","1807","2391","2930","1782","2305","-2192","1733","2185","1733","1710","2056","1710","1551","1798","2028","DualSpot on"
"MA200-0420","42279","67","1","1.10","1.6","2023-07-09T15:04:59","120","2023/07/09","15:04:59","-15.787098586559296","35.035334162414074","0.3","13","300","64","65","-220","-5029","-26304","2","150","150.28","113.78","36.49","28.25","35.1","11.36","0","0.00","DUALSPOT-UV-BLUE-GREEN-RED-IR","562381","665380","910658","16.103172","7.715601","0.024729","701694","867516","838270","4.194191","4.576708","0.385285","703985","851417","832714","2.100401","3.690070","0.000000","738511","859859","889582","-0.389354","2.825945","0.000000","651183","888835","966833","3.476822","1.660747","0.059784","1605","2158","2667","1507","1868","-2447","1473","1767","1473","1453","1686","1453","1294","1471","1634","DualSpot on"
"MA200-0420","42280","67","1","1.10","1.6","2023-07-09T15:09:59","120","2023/07/09","15:09:59","-15.787089109420776","35.035265155136585","0.1","13","300","64","64","-264","-5120","-26328","2","150","149.81","113.56","36.25","28.27","35.7","11.62","0","0.00","DUALSPOT-UV-BLUE-GREEN-RED-IR","558122","662529","908771","16.655159","7.942919","0.021421","697289","864458","836664","4.627105","4.734427","0.258548","700258","848986","831464","2.482664","3.825885","0.000000","734836","857434","888032","-0.066675","2.934914","0.000000","648915","887113","965627","3.702411","1.732804","0.000332","2855","3683","4438","2826","3225","-14395","2794","3110","2794","2850","3016","2850","2775","2776","2778","DualSpot on"
"MA200-0420","42281","67","1","1.10","1.6","2023-07-09T15:14:59","120","2023/07/09","15:14:59","-15.78709763288498","35.03528565913439","0.2","14","300","64","64","-266","-5095","-26300","2","150","150.21","113.56","36.66","28.28","35.6","11.61","89388","27.88","DUALSPOT-UV-BLUE-GREEN-RED-IR","552541","657719","904071","17.141984","8.152401","0.022656","696534","865552","838948","5.007099","4.882909","0.178660","699858","850321","833850","2.820480","3.952592","0.000000","735593","859882","891483","0.216440","3.036030","0.000000","649211","888732","968029","3.899440","1.798589","0.015354","2518","3356","4116","2480","3002","23529","2469","2869","2469","2501","2767","2501","2423","2506","2578","DualSpot on"
"MA200-0420","42282","67","1","1.10","1.6","2023-07-09T15:19:59","120","2023/07/09","15:19:59","-15.787134885787964","35.03528232127428","0.2","14","300","64","64","-300","-5233","-26145","2","150","150.62","113.68","36.94","28.32","35.6","11.66","89388","27.94","DUALSPOT-UV-BLUE-GREEN-RED-IR","551595","658446","907007","17.634060","8.362274","0.021138","696393","867271","841723","5.361742","5.017674","0.135258","698155","849880","834383","3.133840","4.067331","-0.236349","734146","859660","892054","0.478969","3.127575","0.000000","644633","883548","962972","4.083316","1.856635","-0.013550","2542","3336","4053","2312","2704","8416","2288","2578","1314","2316","2486","2316","2259","2194","2141","DualSpot on"
"MA200-0420","42283","67","1","1.10","1.6","2023-07-09T15:24:59","120","2023/07/09","15:24:59","-15.787131011486053","35.03529166430235","0.1","14","300","64","63","-276","-5192","-26324","2","150","149.94","113.43","36.51","28.33","35.5","11.63","0","0.00","DUALSPOT-UV-BLUE-GREEN-RED-IR","548212","656452","906371","18.177594","8.597229","0.021691","692855","865109","841020","5.785688","5.181939","0.114321","695909","849199","834869","3.509212","4.205972","-0.824361","732344","859301","892727","0.795646","3.239337","0.000000","643434","883233","963322","4.306217","1.928572","0.001146","2814","3779","4646","2770","3335","8183","2747","3152","705","2800","3071","2800","2745","2752","2758","DualSpot on"
"MA200-0420","42284","67","1","1.10","1.6","2023-07-09T15:29:59","120","2023/07/09","15:29:59","-15.787146508693695","35.03530532494187","0.1","13","300","64","63","-283","-5108","-26362","2","150","150.08","113.52","36.56","28.37","35.7","11.72","0","0.00","DUALSPOT-UV-BLUE-GREEN-RED-IR","544739","654805","906720","18.849820","8.888599","0.020980","689801","863804","841317","6.261177","5.364168","0.091029","688941","842877","829907","3.924373","4.358953","1.102060","724245","851718","885904","1.142911","3.360473","0.000000","641924","882632","963401","4.548912","2.005677","-0.005492","3478","4680","5753","3105","3694","7220","3036","3473","-913","3069","3323","3069","2986","2945","2913","DualSpot on"
"MA200-0420","42285","67","1","1.10","1.6","2023-07-09T15:34:59","120","2023/07/09","15:34:59","-15.787113785743713","35.03526549041271","0.6","13","300","64","63","-250","-5070","-26425","2","150","150.01","113.39","36.62","28.39","35.9","11.83","89388","28.00","DUALSPOT-UV-BLUE-GREEN-RED-IR","542354","653927","907705","19.406330","9.129864","0.020237","682562","856843","835825","6.663675","5.518580","0.078394","687469","842994","831061","4.278026","4.488075","0.374595","723398","852358","887466","1.439424","3.462728","0.000000","641293","883016","964428","4.757236","2.070847","-0.012332","2882","3869","4746","2631","3126","5509","2589","2927","-4297","2623","2801","2623","2566","2486","2424","DualSpot on"
"MA200-0420","42286","67","1","1.10","1.6","2023-07-09T15:39:59","120","2023/07/09","15:39:59","-15.787085771560669","35.035281490534544","0.3","13","300","64","62","-236","-5140","-26384","2","150","150.01","113.35","36.66","28.40","35.9","11.84","89392","28.00","DUALSPOT-UV-BLUE-GREEN-RED-IR","541015","653831","909254","19.825928","9.315624","0.020695","681570","857090","837025","6.958585","5.635233","0.077567","685759","842199","831104","4.533680","4.584843","0.236220","722059","851948","887716","1.652545","3.537012","0.000000","640467","882803","964662","4.913219","2.117365","-0.032279","2174","2976","3687","1928","2358","4190","1872","2191","-26393","1886","2032","1886","1922","1772","1659","DualSpot on"
"MA200-0420","42287","67","1","1.10","1.6","2023-07-09T15:44:59","120","2023/07/09","15:44:59","-15.78700578212738","35.03530865907669","1.0","12","300","64","61","-284","-5088","-26356","2","150","149.56","112.99","36.57","28.33","35.6","11.67","89388","28.00","DUALSPOT-UV-BLUE-GREEN-RED-IR","537869","651176","906788","20.140430","9.453506","0.019893","678610","854602","835332","7.186744","5.723734","0.068710","687504","845434","834919","4.731514","4.658937","0.192570","725375","856804","893247","1.813484","3.592821","0.000000","639090","881525","963612","5.016979","2.151943","0.009862","1634","2214","2727","1496","1794","2957","1453","1682","16359","1428","1531","1428","1282","1320","1349","DualSpot on"
"MA200-0420","42288","67","1","1.10","1.6","2023-07-09T15:49:59","120","2023/07/09","15:49:59","-15.787161111831665","35.035231325775385","0.1","12","300","64","61","-266","-5112","-26445","2","150","150.15","113.31","36.84","28.25","35.4","11.49","89388","27.88","DUALSPOT-UV-BLUE-GREEN-RED-IR","535401","649230","905380","20.440388","9.594566","0.022356","681145","858883","840311","7.410366","5.821669","0.083422","685027","843305","833496","4.925493","4.741162","0.180760","722301","853943","890857","1.970834","3.656918","0.000000","641178","884983","967751","5.120037","2.192593","0.053060","1554","2249","2863","1463","1970","3831","1421","1853","12960","1393","1745","1393","1270","1541","1744","DualSpot on"
"MA200-0420","42289","67","1","1.10","1.6","2023-07-09T15:54:59","120","2023/07/09","15:54:59","-15.787147343158722","35.03527665883303","0.1","12","300","64","61","-268","-5128","-26396","2","150","149.76","113.27","36.49","28.13","35.3","11.34","0","0.00","DUALSPOT-UV-BLUE-GREEN-RED-IR","535714","650738","908680","20.746350","9.727631","0.019151","676685","854498","836796","7.645248","5.913413","0.063322","682066","840713","831592","5.130731","4.819483","0.146711","718897","850831","888143","2.140606","3.717373","0.000000","639538","883348","966353","5.227203","2.229975","0.024165","1586","2142","2632","1537","1864","2979","1504","1782","6083","1503","1662","1503","1321","1431","1512","DualSpot on"
"MA200-0420","42290","67","1","1.10","1.6","2023-07-09T15:59:59","120","2023/07/09","15:59:59","-15.787161827087402","35.03526999056339","0.1","13","300","64","60","-308","-5033","-26358","2","150","150.27","113.38","36.89","28.02","35.4","11.32","0","0.00","DUALSPOT-UV-BLUE-GREEN-RED-IR","532115","647523","905455","21.067314","9.870056","0.019294","677641","856910","840031","7.887632","6.014395","0.068669","682909","842804","834369","5.342191","4.904550","0.139042","721329","854653","892711","2.313076","3.782945","0.000000","637321","880911","964078","5.339176","2.270162","0.028510","1662","2267","2801","1584","2029","3457","1548","1914","6019","1526","1783","1526","1379","1521","1627","DualSpot on"
"MA200-0420","42291","67","1","1.10","1.6","2023-07-09T16:04:59","120","2023/07/09","16:04:59","-15.787199139595032","35.035200491547585","0.4","13","300","64","60","-275","-5170","-26275","2","150","150.15","113.23","36.92","27.99","35.7","11.38","89392","27.69","DUALSPOT-UV-BLUE-GREEN-RED-IR","530016","646146","904853","21.393470","10.015537","0.019120","675754","855728","839630","8.125107","6.107772","0.055816","681068","841623","833841","5.548113","4.982895","0.111933","718882","852704","891182","2.480434","3.841420","0.000000","636146","879921","963341","5.449173","2.306973","0.008048","1691","2314","2862","1554","1875","2845","1509","1761","3983","1482","1589","1482","1357","1392","1419","DualSpot on"
"MA200-0420","42292","67","1","1.10","1.6","2023-07-09T16:09:59","120","2023/07/09","16:09:59","-15.787162959575653","35.03524832800031","0.5","12","300","64","59","-279","-5125","-26537","2","150","149.95","113.39","36.56","27.96","35.7","11.35","89388","27.63","DUALSPOT-UV-BLUE-GREEN-RED-IR","530128","647379","907968","21.717766","10.166271","0.020883","671246","851175","835981","8.359180","6.205655","0.064042","678056","838934","831862","5.751182","5.065775","0.120036","715691","849752","888666","2.646074","3.906374","0.000000","634201","877851","961437","5.559364","2.347960","0.037766","1679","2421","3074","1530","1984","3293","1486","1881","4801","1465","1782","1465","1357","1565","1718","DualSpot on"
"MA200-0420","42293","67","1","1.10","1.6","2023-07-09T16:14:59","120","2023/07/09","16:14:59","-15.787128806114197","35.035278990864754","0.1","12","300","64","59","-316","-5266","-26275","2","150","150.28","113.35","36.93","27.93","35.9","11.41","89396","27.63","DUALSPOT-UV-BLUE-GREEN-RED-IR","529695","648096","910373","22.059028","10.319469","0.018820","671556","852829","838434","8.604404","6.305576","0.056247","677526","839358","832977","5.963373","5.147671","0.096308","714869","849708","889166","2.818838","3.967654","0.000000","638095","883926","968508","5.677078","2.385569","-0.006108","1768","2436","3023","1603","2005","3107","1554","1841","3651","1529","1664","1529","1450","1422","1402","DualSpot on"
"MA200-0420","42294","67","1","1.10","1.6","2023-07-09T16:19:59","120","2023/07/09","16:19:59","-15.787126958370209","35.035272158682346","0.3","12","300","64","58","-324","-5116","-26484","2","150","149.57","113.14","36.44","27.91","36.0","11.45","89400","27.63","DUALSPOT-UV-BLUE-GREEN-RED-IR","525374","644508","907224","22.527550","10.526966","0.018341","666547","848243","835122","8.951002","6.441290","0.048581","673746","836267","830884","6.266935","5.262870","0.084035","711577","847170","887343","3.071157","4.058207","-0.179663","635662","881605","966480","5.850528","2.440807","-0.003354","2432","3344","4144","2271","2761","4018","2227","2624","4706","2237","2493","1441","2141","2117","2100","DualSpot on"
"MA200-0420","42295","67","1","1.10","1.6","2023-07-09T16:24:59","120","2023/07/09","16:24:59","-15.787145674228668","35.03527098894119","0.4","13","300","64","58","-276","-5108","-26403","2","150","150.08","113.59","36.50","27.89","36.0","11.43","0","0.00","DUALSPOT-UV-BLUE-GREEN-RED-IR","522019","642179","905955","23.032120","10.748665","0.017712","663416","846201","834334","9.333427","6.590564","0.045247","670835","834413","830066","6.608112","5.389088","0.068211","708551","845176","886126","3.360332","4.158954","-0.163565","633771","880219","965575","6.052761","2.505150","-0.002804","2609","3567","4406","2495","3032","4320","2493","2871","4540","2554","2769","1648","2487","2462","2445","DualSpot on"
"MA200-0420","42296","67","1","1.10","1.6","2023-07-09T16:29:59","120","2023/07/09","16:29:59","-15.787082314491272","35.0352684892714","0.2","13","300","64","57","-239","-5016","-26463","2","150","149.34","113.27","36.07","27.89","36.0","11.43","0","0.00","DUALSPOT-UV-BLUE-GREEN-RED-IR","519390","640833","906113","23.558384","10.979847","0.017630","660704","844823","834273","9.730114","6.745429","0.043574","668336","833133","829920","6.960586","5.521071","0.065992","706507","844371","886225","3.660516","4.264006","-0.408721","632383","879588","965521","6.267128","2.571811","-0.006656","2728","3764","4667","2596","3182","4507","2583","3037","4778","2658","2921","1065","2643","2581","2537","DualSpot on"
"MA200-0420","42297","67","1","1.10","1.6","2023-07-09T16:34:59","120","2023/07/09","16:34:59","-15.78713047504425","35.03527482226491","0.1","13","300","64","57","-280","-5124","-26296","2","150","149.50","112.56","36.94","27.89","36.0","11.43","89404","27.56","DUALSPOT-UV-BLUE-GREEN-RED-IR","518543","641465","909008","24.036110","11.197990","0.017595","660339","846112","836759","10.086306","6.890822","0.043117","667870","834201","831973","7.276951","5.642557","0.059228","706875","846241","889025","3.925510","4.358636","-1.011582","632868","881344","968035","6.451874","2.631800","-0.002815","2492","3468","4319","2345","2917","4151","2333","2730","4101","2361","2570","475","2292","2268","2251","DualSpot on"
"MA200-0420","42298","67","1","1.10","1.6","2023-07-09T16:39:59","120","2023/07/09","16:39:59","-15.787103474140167","35.03530966117978","0.0","13","300","64","57","-239","-5124","-26332","2","150","149.73","113.09","36.64","27.86","36.1","11.47","89408","27.56","DUALSPOT-UV-BLUE-GREEN-RED-IR","515334","639462","908434","24.590992","11.446518","0.016964","657573","844641","836618","10.487228","7.049990","0.038864","665063","832495","831346","7.627052","5.774939","0.053465","704245","844704","888314","4.217033","4.463308","0.514474","631050","880074","967241","6.655060","2.695481","-0.008698","2881","3984","4944","2628","3220","4436","2570","2999","4339","2586","2866","-2211","2509","2428","2372","DualSpot on"
"MA200-0420","42299","67","1","1.10","1.6","2023-07-09T16:44:59","120","2023/07/09","16:44:59","-15.787112414836884","35.035233829170465","0.2","13","300","64","56","-291","-5062","-26320","2","150","150.50","112.92","37.59","27.82","36.3","11.48","89412","27.50","DUALSPOT-UV-BLUE-GREEN-RED-IR","510100","635288","905166","25.252598","11.742886","0.015545","652076","839997","833588","10.964598","7.240004","0.033348","661021","829567","829776","8.044306","5.933668","0.043821","699351","840702","885200","4.561516","4.585685","0.237977","628467","877827","965514","6.889786","2.770949","-0.008780","3441","4631","5665","3134","3747","4940","3067","3506","4738","3060","3266","-35782","2903","2804","2738","DualSpot on"
"MA200-0420","42300","67","1","1.10","1.6","2023-07-09T16:49:59","120","2023/07/09","16:49:59","-15.787129044532776","35.035255659371614","0.1","13","300","64","56","-288","-5032","-26332","2","150","149.56","113.07","36.49","27.78","36.2","11.42","89420","27.44","DUALSPOT-UV-BLUE-GREEN-RED-IR","506820","633562","905624","25.946988","12.062042","0.017044","654206","845241","840541","11.468212","7.446015","0.037740","658552","828666","830345","8.485172","6.107687","0.052252","697939","840924","886627","4.927076","4.719424","0.154316","627423","877853","966339","7.141643","2.855463","0.008719","3607","5137","6467","3301","4185","5821","3237","3959","5815","3243","3677","13533","3111","3235","3318","DualSpot on"
"MA200-0420","42301","67","1","1.10","1.6","2023-07-09T16:54:59","120","2023/07/09","16:54:59","-15.78711986541748","35.035263657569885","0.1","13","300","64","56","-360","-5060","-26284","2","150","150.21","113.39","36.82","27.70","36.3","11.38","0","0.00","DUALSPOT-UV-BLUE-GREEN-RED-IR","506784","635534","910943","26.541912","12.341137","0.017099","650200","842173","838978","11.899158","7.625992","0.037260","658792","830868","833759","8.860460","6.258130","0.050098","699490","844442","891363","5.238222","4.836000","0.127317","624981","875674","964650","7.352264","2.926981","0.009583","3081","4451","5642","2817","3623","5061","2747","3391","4941","2752","3176","8265","2594","2713","2791","DualSpot on"
"MA200-0420","42302","67","1","1.10","1.6","2023-07-09T16:59:59","120","2023/07/09","16:59:59","-15.787082076072693","35.03530682250857","0.0","13","300","64","55","-272","-5108","-26360","2","150","149.90","113.31","36.59","27.61","36.2","11.30","0","0.00","DUALSPOT-UV-BLUE-GREEN-RED-IR","502985","632486","908815","27.061558","12.585640","0.017027","646264","838926","837106","12.281466","7.788987","0.038014","655454","828290","832320","9.195889","6.393467","0.048952","695899","841555","889266","5.516435","4.940356","0.110117","622827","873689","963107","7.541698","2.993057","0.015564","2693","3925","4995","2501","3302","4691","2457","3070","4469","2463","2861","6275","2335","2522","2646","DualSpot on"
"MA200-0420","42303","67","1","1.10","1.6","2023-07-09T17:04:59","120","2023/07/09","17:04:59","-15.787115633487701","35.035278990864754","0.0","13","300","64","55","-237","-5054","-26379","2","150","150.15","112.95","37.19","27.52","36.3","11.25","89428","27.25","DUALSPOT-UV-BLUE-GREEN-RED-IR","499032","629201","906339","27.582942","12.836868","0.016833","641922","835047","834661","12.661016","7.956135","0.037588","651836","825303","830491","9.528635","6.534744","0.050320","691953","838177","886684","5.790277","5.049497","0.107399","620610","871581","961428","7.725590","3.061084","0.021976","2711","3967","5061","2491","3331","4753","2445","3153","4698","2432","2944","6432","2274","2555","2739","DualSpot on"
"MA200-0420","42304","67","1","1.10","1.6","2023-07-09T17:09:59","120","2023/07/09","17:09:59","-15.787109971046448","35.03527915850282","0.0","13","300","64","54","-272","-5092","-26372","2","150","147.44","113.31","34.13","27.40","36.5","11.21","89436","27.13","DUALSPOT-UV-BLUE-GREEN-RED-IR","497081","628802","908349","28.186894","13.116970","0.017825","641214","836190","837315","13.091215","8.138337","0.039552","651097","826211","832651","9.901602","6.687081","0.052834","691872","839596","889223","6.092296","5.165247","0.105328","621201","873627","964353","7.930149","3.131511","0.024121","3130","4820","6292","2814","3957","5836","2732","3706","5730","2674","3402","7463","2521","2882","3118","DualSpot on"
"MA200-0420","42305","67","1","1.10","1.6","2023-07-09T17:14:59","120","2023/07/09","17:14:59","-15.787129163742065","35.035250160843134","0.0","13","300","64","54","-304","-5095","-26350","2","150","149.38","113.31","36.07","27.25","36.6","11.11","0","0.00","DUALSPOT-UV-BLUE-GREEN-RED-IR","492247","624658","904974","28.796208","13.406681","0.016672","640420","837230","839926","13.523085","8.323681","0.035136","646950","822715","830434","10.276115","6.842490","0.046315","687593","836018","886465","6.402712","5.285150","0.085898","618696","871228","962409","8.134296","3.204914","0.021634","3158","4717","6075","2825","3809","5383","2744","3576","5236","2748","3334","6107","2516","2842","3054","DualSpot on"
"MA200-0420","42306","67","1","1.10","1.6","2023-07-09T17:19:59","120","2023/07/09","17:19:59","-15.78708815574646","35.03530449047685","0.0","14","300","64","53","-248","-4992","-26428","2","150","149.90","113.31","36.59","27.09","36.8","11.04","0","0.00","DUALSPOT-UV-BLUE-GREEN-RED-IR","490324","624254","906974","29.405976","13.694511","0.015766","639352","837927","842152","13.953754","8.507452","0.032367","645892","823228","832215","10.652439","6.997080","0.041522","687116","837059","888630","6.712414","5.403794","0.072813","619018","872859","964950","8.343975","3.280174","0.018610","3160","4620","5892","2817","3723","5138","2757","3507","4944","2742","3253","5363","2585","2873","3060","DualSpot on"
"MA200-0420","42307","67","1","1.10","1.6","2023-07-09T17:24:59","120","2023/07/09","17:24:59","-15.787182807922363","35.035180661827326","0.2","13","300","64","53","-300","-5141","-26216","2","150","149.44","113.16","36.27","26.94","37.0","11.01","89452","26.69","DUALSPOT-UV-BLUE-GREEN-RED-IR","488215","623604","908702","30.031556","13.990559","0.015698","632803","831468","837235","14.399942","8.696699","0.031207","644093","822846","833141","11.041559","7.154408","0.038591","686091","837504","890181","7.035429","5.524085","0.061067","619046","874192","967170","8.567825","3.357060","0.012288","3246","4793","6142","2922","3867","5308","2854","3600","4974","2863","3327","5020","2763","2961","3088","DualSpot on"
"MA200-0420","42308","67","1","1.10","1.6","2023-07-09T17:29:59","120","2023/07/09","17:29:59","-15.787180721759796","35.03520166128874","0.1","14","300","64","53","-312","-5200","-26444","2","150","150.22","113.31","36.91","26.77","37.2","10.92","89452","26.56","DUALSPOT-UV-BLUE-GREEN-RED-IR","482662","618299","903426","30.594418","14.259541","0.015251","631613","831798","839037","14.804920","8.871249","0.030152","643564","823839","835369","11.394871","7.301516","0.038303","680511","832194","885539","7.330738","5.637875","0.060295","615664","870472","963792","8.766697","3.429493","0.018536","2917","4280","5470","2649","3505","4786","2588","3309","4593","2614","3093","4686","2451","2741","2927","DualSpot on"
"MA200-0420","42309","67","1","1.10","1.6","2023-07-09T17:34:59","120","2023/07/09","17:34:59","-15.787093162536621","35.03524782508612","0.4","14","300","64","52","-295","-5000","-26362","2","150","150.50","113.56","36.94","26.61","37.3","10.82","89444","26.38","DUALSPOT-UV-BLUE-GREEN-RED-IR","481442","618819","906861","31.214802","14.551838","0.014624","626756","827369","836045","15.219339","9.046586","0.027969","639534","820443","833151","11.752487","7.447980","0.035246","682337","835964","890506","7.621656","5.747882","0.052196","613660","868777","962529","8.962807","3.498926","0.014127","3208","4647","5903","2705","3518","4710","2614","3291","4463","2570","2987","4268","2412","2625","2762","DualSpot on"
"MA200-0420","42310","67","1","1.10","1.6","2023-07-09T17:39:59","120","2023/07/09","17:39:59","-15.787179708480835","35.03530449047685","0.3","14","300","64","52","-316","-5092","-26340","2","150","150.21","113.52","36.70","26.35","37.5","10.71","89452","26.19","DUALSPOT-UV-BLUE-GREEN-RED-IR","477806","617152","908239","32.130294","14.972584","0.013731","623532","826300","837216","15.869684","9.316492","0.025663","636781","819730","834340","12.321804","7.675020","0.031037","679430","834896","890960","8.099231","5.924404","0.042963","613068","869773","964820","9.296021","3.618115","0.015961","4736","6733","8476","4247","5452","7165","4163","5136","6742","4220","4825","6473","4100","4536","4815","DualSpot on"
"MA200-0420","42311","67","1","1.10","1.6","2023-07-09T17:44:59","120","2023/07/09","17:44:59","-15.78713470697403","35.03528715670109","0.1","14","300","64","51","-316","-5072","-26400","2","150","149.61","113.20","36.41","26.05","37.8","10.56","89472","25.94","DUALSPOT-UV-BLUE-GREEN-RED-IR","472732","613284","906061","32.956214","15.362492","0.014171","622986","828572","841772","16.503284","9.586353","0.026430","632492","816916","833406","12.886528","7.906529","0.032235","675736","832831","890393","8.577232","6.107241","0.046236","611159","868896","965024","9.626804","3.739008","0.018931","4285","6290","8040","4149","5494","7359","4141","5279","7084","4236","5038","7020","4082","4638","4991","DualSpot on"
"MA200-0420","42312","67","1","1.10","1.6","2023-07-09T17:49:59","120","2023/07/09","17:49:59","-15.787138998508453","35.03529166430235","0.1","13","300","64","51","-224","-5032","-26688","2","150","149.86","113.35","36.51","25.77","38.2","10.46","89464","25.63","DUALSPOT-UV-BLUE-GREEN-RED-IR","468387","610246","905160","33.777236","15.756268","0.014161","618399","825439","840917","17.131260","9.858050","0.026100","628400","814301","832664","13.443853","8.139148","0.031879","671564","830093","889091","9.047707","6.290258","0.044811","609616","868494","965756","9.951370","3.860975","0.021520","4254","6335","8154","4106","5517","7428","4082","5290","7143","4164","5029","7003","3999","4667","5089","DualSpot on"
"MA200-0420","42313","67","1","1.10","1.6","2023-07-09T17:54:59","120","2023/07/09","17:54:59","-15.787156105041504","35.03527382388711","0.3","13","300","64","50","-254","-4987","-26354","2","150","149.56","114.06","35.50","25.52","38.9","10.52","89460","25.38","DUALSPOT-UV-BLUE-GREEN-RED-IR","466292","611091","911134","34.875976","16.277779","0.014224","612604","821923","840499","18.021006","10.237139","0.025561","623525","811872","832921","14.252893","8.470235","0.030654","666876","827882","889083","9.744783","6.556875","0.042238","607116","867778","966701","10.459816","4.043773","0.019294","5658","8628","11227","5782","7916","10721","5888","7742","10458","6131","7534","10420","6227","7193","7801","DualSpot on"
"MA200-0420","42314","67","1","1.10","1.6","2023-07-09T17:59:59","120","2023/07/09","17:59:59","-15.787089407444","35.035257156938314","0.1","13","300","64","49","-284","-5124","-26016","2","150","149.33","113.49","35.84","25.34","39.7","10.64","0","0.00","DUALSPOT-UV-BLUE-GREEN-RED-IR","460865","606915","909126","35.834036","16.743488","0.014038","606601","817364","838611","18.786418","10.568213","0.024381","618506","808571","831963","14.945150","8.758747","0.029161","662042","824864","887941","10.346479","6.791723","0.039353","604234","866072","966358","10.905167","4.204506","0.017300","4958","7632","9977","4999","6848","9225","5064","6683","8976","5319","6574","8972","5481","6264","6756","DualSpot on"
"MA200-0420","42315","67","1","1.10","1.6","2023-07-09T18:04:59","120","2023/07/09","18:04:59","-15.787138283252716","35.03524649515748","0.1","13","300","64","49","-316","-5064","-26396","2","150","149.61","113.53","36.08","25.16","40.0","10.61","0","0.00","DUALSPOT-UV-BLUE-GREEN-RED-IR","453994","601099","905069","36.889772","17.260696","0.013671","603302","816945","841464","19.670926","10.958836","0.023787","615338","808187","834446","15.757044","9.102638","0.027963","659775","825581","891228","11.060627","7.075021","0.036866","599680","862489","964254","11.444622","4.401953","0.017268","5462","8419","11019","5775","8025","10855","5937","7912","10614","6311","7876","10656","6638","7644","8273","DualSpot on"
"MA200-0420","42316","67","1","1.10","1.6","2023-07-09T18:09:59","120","2023/07/09","18:09:59","-15.787114381790161","35.03524482622743","0.1","13","300","64","48","-280","-5072","-26356","2","150","149.81","113.23","36.58","24.98","40.5","10.62","89452","24.88","DUALSPOT-UV-BLUE-GREEN-RED-IR","449753","598037","904503","37.770484","17.711056","0.013853","593978","807427","834401","20.391460","11.286952","0.023463","611507","806142","834701","16.417791","9.390392","0.027315","651488","817986","885084","11.638781","7.309969","0.035181","598034","862412","965766","11.873516","4.565771","0.019245","4568","7231","9582","4717","6649","9045","4844","6531","8784","5122","6444","8675","5291","6256","6858","DualSpot on"
"MA200-0420","42317","67","1","1.10","1.6","2023-07-09T18:14:59","120","2023/07/09","18:14:59","-15.787113428115845","35.035295493900776","0.3","13","300","64","48","-560","-5132","-26296","2","150","149.56","113.47","36.09","24.80","40.9","10.62","89464","24.69","DUALSPOT-UV-BLUE-GREEN-RED-IR","449045","598894","908677","38.388596","18.028916","0.014004","593571","809016","837840","20.868980","11.502707","0.023176","607426","802704","832699","16.849092","9.575373","0.026502","651622","820030","888622","12.015198","7.457157","0.031351","595252","859832","963802","12.142559","4.663562","0.015487","3199","5172","6919","3119","4431","6042","3155","4254","5701","3328","4091","5339","3312","3784","4079","DualSpot on"
"MA200-0420","42318","67","1","1.10","1.6","2023-07-09T18:19:59","120","2023/07/09","18:19:59","-15.787046790122986","35.035279992967844","0.3","13","300","64","47","-308","-5088","-26475","2","150","149.90","113.72","36.17","24.65","41.3","10.61","89472","24.50","DUALSPOT-UV-BLUE-GREEN-RED-IR","446865","597748","909907","39.002792","18.348904","0.014010","592136","809076","839732","21.333724","11.717431","0.023484","605549","802094","833580","17.263544","9.757771","0.027153","650909","820887","890838","12.369312","7.601894","0.034369","595130","861100","966139","12.399323","4.757500","0.015806","3172","5195","6993","3029","4400","6071","3025","4186","5695","3123","4014","5434","3153","3627","3922","DualSpot on"
"MA200-0420","42319","67","1","1.10","1.6","2023-07-09T18:24:59","120","2023/07/09","18:24:59","-15.787085175514221","35.03530365601182","0.2","13","300","64","47","-284","-5072","-25808","2","150","149.44","113.55","35.89","24.50","41.6","10.60","89480","24.38","DUALSPOT-UV-BLUE-GREEN-RED-IR","441966","593187","906126","39.697152","18.704204","0.013583","586695","803953","836368","21.866368","11.958063","0.022247","600736","797841","830874","17.740898","9.964273","0.025746","644449","814727","885620","12.783752","7.768518","0.032023","591612","857612","963324","12.705223","4.870929","0.017250","3591","5814","7794","3477","4970","6771","3490","4776","6425","3661","4657","6200","3763","4414","4819","DualSpot on"
"MA200-0420","42320","67","1","1.10","1.6","2023-07-09T18:29:59","120","2023/07/09","18:29:59","-15.787083804607391","35.03529566153884","0.3","14","300","64","46","-272","-5044","-26432","2","150","150.00","113.49","36.50","24.35","41.9","10.59","89484","24.19","DUALSPOT-UV-BLUE-GREEN-RED-IR","438841","590791","905418","40.327444","19.030590","0.013290","583117","801107","835262","22.339088","12.174516","0.021582","598385","796634","831164","18.164558","10.150557","0.025001","642673","814235","886384","13.146408","7.915211","0.029892","590672","857681","964342","12.968033","4.968253","0.015192","3261","5251","7029","3087","4395","5962","3099","4236","5677","3205","4031","5281","3234","3724","4028","DualSpot on"
"MA200-0420","42321","67","1","1.10","1.6","2023-07-09T18:34:59","120","2023/07/09","18:34:59","-15.787112951278687","35.03530499711633","0.1","14","300","64","46","-268","-5100","-26375","2","150","149.91","113.67","36.24","24.20","42.4","10.60","89492","24.06","DUALSPOT-UV-BLUE-GREEN-RED-IR","438493","592179","910622","40.978920","19.365360","0.013106","583768","804194","840352","22.834800","12.400367","0.021211","597691","797740","833912","18.608062","10.342344","0.023927","643459","817088","890852","13.528587","8.068257","0.028701","588063","855464","962814","13.250736","5.070235","0.013261","3366","5426","7271","3232","4620","6269","3239","4394","5839","3373","4237","5514","3474","3931","4214","DualSpot on"
"MA200-0420","42322","67","1","1.10","1.6","2023-07-09T18:39:59","120","2023/07/09","18:39:59","-15.78700578212738","35.03533982858062","0.2","14","300","64","45","-329","-5141","-26425","2","150","149.87","113.35","36.52","24.09","42.6","10.58","89504","23.94","DUALSPOT-UV-BLUE-GREEN-RED-IR","433952","587579","906161","41.533744","19.659016","0.013232","578669","798913","836415","23.247196","12.592504","0.021213","593973","794375","831735","18.974312","10.505353","0.024281","639123","813083","887645","13.843086","8.197914","0.029375","589034","858086","966587","13.478745","5.155426","0.015234","2874","4722","6382","2697","3899","5321","2682","3705","4974","2783","3561","4691","2810","3258","3536","DualSpot on"
"MA200-0420","42323","67","1","1.10","1.6","2023-07-09T18:44:59","120","2023/07/09","18:44:59","-15.78717702627182","35.03526282683015","0.0","15","300","64","45","-320","-4984","-26480","2","150","149.69","113.23","36.46","23.96","42.9","10.57","89520","23.81","DUALSPOT-UV-BLUE-GREEN-RED-IR","433281","588121","909520","42.052148","19.934178","0.013129","578137","799816","838805","23.619674","12.766604","0.020985","594293","796319","834978","19.304332","10.649978","0.023104","639817","815304","891062","14.124306","8.312511","0.027767","586180","854977","963797","13.676994","5.228352","0.013695","2689","4432","6004","2438","3539","4835","2419","3293","4367","2491","3153","4099","2445","2794","3009","DualSpot on"
"MA200-0420","42324","67","1","1.10","1.6","2023-07-09T18:49:59","120","2023/07/09","18:49:59","-15.787184715270996","35.03524048998952","0.2","15","300","64","44","-264","-5036","-26488","2","150","149.94","113.60","36.34","23.86","43.3","10.61","89524","23.75","DUALSPOT-UV-BLUE-GREEN-RED-IR","428427","583127","904626","42.643716","20.249054","0.013092","572312","793463","833804","24.041054","12.963743","0.020833","589629","791649","831449","19.674304","10.816156","0.024037","634331","809826","886217","14.437721","8.439864","0.027289","586624","856867","966731","13.904530","5.311338","0.013283","3058","5088","6924","2749","4021","5509","2703","3796","5129","2768","3515","4567","2798","3189","3431","DualSpot on"
"MA200-0420","42325","67","1","1.10","1.6","2023-07-09T18:54:59","120","2023/07/09","18:54:59","-15.787082433700562","35.03528082370758","0.1","15","300","64","44","-324","-5116","-26363","2","150","149.95","113.94","36.01","23.75","43.5","10.59","89520","23.56","DUALSPOT-UV-BLUE-GREEN-RED-IR","428237","584643","910330","43.313104","20.616810","0.013504","573845","797625","840225","24.537560","13.207497","0.022216","586200","788861","830261","20.114318","11.022588","0.025719","635239","812748","890876","14.811852","8.604871","0.032781","584197","854742","965359","14.175632","5.419460","0.021006","3450","5998","8312","3230","5018","7101","3206","4759","6642","3294","4597","6403","3323","4194","4733","DualSpot on"
"MA200-0420","42326","67","1","1.10","1.6","2023-07-09T18:59:59","120","2023/07/09","18:59:59","-15.787096083164215","35.03529132530093","0.0","14","300","64","43","-308","-5024","-26344","2","150","149.38","113.31","36.07","23.66","43.9","10.64","0","0.00","DUALSPOT-UV-BLUE-GREEN-RED-IR","423300","579805","906154","44.013200","20.986370","0.012660","568153","791860","836112","25.037326","13.438944","0.019789","585679","790144","833212","20.553418","11.217188","0.022547","630837","808843","887934","15.183311","8.756464","0.026339","581308","851936","963143","14.443748","5.518305","0.014111","3629","6018","8195","3269","4757","6480","3217","4479","5995","3289","4216","5480","3305","3828","4151","DualSpot on"
"MA200-0420","42327","67","1","1.10","1.6","2023-07-09T19:04:59","120","2023/07/09","19:04:59","-15.787123322486877","35.03530949354172","0.2","14","300","64","42","-364","-5056","-26524","2","150","149.50","113.39","36.11","23.56","43.9","10.57","0","0.00","DUALSPOT-UV-BLUE-GREEN-RED-IR","421727","579869","910279","44.838112","21.428566","0.012642","567096","792928","839691","25.649556","13.729027","0.019966","580981","786148","831036","21.098400","11.462094","0.022452","630698","810897","891961","15.650780","8.951152","0.026724","581712","854356","967168","14.788734","5.647671","0.015086","4273","7192","9865","4002","5955","8204","3990","5630","7582","4136","5409","7109","4250","5004","5470","DualSpot on"
"MA200-0420","42328","67","1","1.10","1.6","2023-07-09T19:09:59","120","2023/07/09","19:09:59","-15.786972999572754","35.03536632284522","0.3","14","300","64","41","-245","-5041","-26583","2","150","149.67","113.52","36.15","23.44","44.3","10.59","89520","23.31","DUALSPOT-UV-BLUE-GREEN-RED-IR","417174","575768","907677","45.638816","21.856002","0.012374","561902","788184","837006","26.251736","14.010408","0.019064","580382","787718","834696","21.640048","11.702373","0.021306","626263","807403","889799","16.117798","9.142620","0.024754","578821","851924","965646","15.130375","5.777786","0.015901","4143","6944","9518","3932","5769","7872","3961","5517","7350","4127","5313","6867","4204","5027","5536","DualSpot on"
"MA200-0420","42329","67","1","1.10","1.6","2023-07-09T19:14:59","120","2023/07/09","19:14:59","-15.787115633487701","35.03527148813009","0.1","14","300","64","41","-320","-5096","-26116","2","150","150.22","113.44","36.78","23.36","44.6","10.61","89524","23.19","DUALSPOT-UV-BLUE-GREEN-RED-IR","412283","571031","903945","46.409196","22.268700","0.011988","560760","789093","840325","26.850640","14.290693","0.018125","575481","783397","832119","22.181424","11.943509","0.020174","621287","803266","886953","16.593288","9.338458","0.023026","575342","848712","963310","15.490971","5.911939","0.012431","3988","6590","8990","3913","5649","7624","3962","5443","7171","4205","5342","6805","4440","5095","5499","DualSpot on"
"MA200-0420","42330","67","1","1.10","1.6","2023-07-09T19:19:59","120","2023/07/09","19:19:59","-15.787120997905731","35.03526032343507","0.2","13","300","64","40","-268","-5080","-26380","2","150","150.02","113.82","36.19","23.26","44.6","10.54","89528","23.13","DUALSPOT-UV-BLUE-GREEN-RED-IR","411994","572219","908876","47.016556","22.601502","0.012380","557010","785720","838581","27.314278","14.514053","0.019169","575302","784944","835360","22.597324","12.133975","0.021567","621591","805316","890618","16.954102","9.492156","0.025690","575960","851100","966995","15.763088","6.014200","0.014412","3134","5400","7498","3019","4574","6338","3033","4368","5917","3180","4260","5634","3339","3946","4321","DualSpot on"
"MA200-0420","42331","67","1","1.10","1.6","2023-07-09T19:24:59","120","2023/07/09","19:24:59","-15.787240445613861","35.03518099337816","0.2","13","300","64","39","-262","-4987","-26412","2","150","149.82","113.62","36.20","23.15","44.9","10.52","89532","23.00","DUALSPOT-UV-BLUE-GREEN-RED-IR","406218","566880","905235","48.030456","23.142796","0.011785","550039","779363","835225","28.173646","14.923675","0.018224","569283","780093","833241","23.394214","12.498503","0.020667","614824","799787","887178","17.666600","9.795423","0.024341","571237","846998","964408","16.316238","6.230877","0.016602","5241","8783","12077","5606","8389","11523","5822","8361","11273","6291","8405","11037","6800","8362","9327","DualSpot on"
"MA200-0420","42332","67","1","1.10","1.6","2023-07-09T19:29:59","120","2023/07/09","19:29:59","-15.787111937999725","35.03527882322669","0.1","13","300","64","39","-296","-5036","-26480","2","150","150.00","113.14","36.87","23.02","45.0","10.44","89540","22.94","DUALSPOT-UV-BLUE-GREEN-RED-IR","405123","566911","908472","48.659844","23.491948","0.011835","549325","780312","838275","28.667412","15.165394","0.018001","565304","776457","831064","23.840122","12.704982","0.019884","615548","802502","891677","18.055802","9.962923","0.023098","568503","844382","962556","16.609524","6.345852","0.014887","3267","5562","7704","3235","4860","6685","3272","4649","6221","3451","4558","5920","3621","4356","4810","DualSpot on"
"MA200-0420","42333","67","1","1.10","1.6","2023-07-09T19:34:59","120","2023/07/09","19:34:59","-15.787101089954376","35.03527232259512","0.1","13","300","64","39","-239","-5008","-26512","2","150","149.96","113.35","36.61","22.90","45.3","10.41","89544","22.75","DUALSPOT-UV-BLUE-GREEN-RED-IR","401221","562874","904996","49.249184","23.826072","0.012061","549101","781778","841625","29.111022","15.384045","0.018112","564441","776888","833083","24.237198","12.892481","0.020491","610410","797391","887308","18.400470","10.112065","0.023360","568982","846430","965798","16.862866","6.446092","0.015829","3053","5360","7521","2901","4427","6137","2908","4251","5778","3050","4086","5350","3122","3824","4259","DualSpot on"
"MA200-0420","42334","67","1","1.10","1.6","2023-07-09T19:39:59","120","2023/07/09","19:39:59","-15.787097930908203","35.03527182340622","0.1","13","300","64","38","-329","-5045","-26450","2","150","149.50","113.19","36.31","22.73","45.4","10.32","89544","22.63","DUALSPOT-UV-BLUE-GREEN-RED-IR","400216","562766","907524","49.773772","24.121686","0.011952","544230","776328","837440","29.502144","15.579871","0.018408","560556","772971","830237","24.583122","13.056068","0.020455","610855","799289","890583","18.697358","10.240099","0.023122","566054","843147","962900","17.079922","6.530737","0.015157","2722","4782","6719","2561","3998","5606","2537","3740","5103","2631","3537","4635","2678","3256","3614","DualSpot on"
"MA200-0420","42335","67","1","1.10","1.6","2023-07-09T19:44:59","120","2023/07/09","19:44:59","-15.78707766532898","35.03526882454753","0.3","13","300","64","37","-279","-5000","-26404","2","150","149.65","113.31","36.34","22.56","45.7","10.27","89552","22.44","DUALSPOT-UV-BLUE-GREEN-RED-IR","398429","561892","909432","50.423684","24.483456","0.011671","542665","776149","839363","30.009994","15.829371","0.017645","559456","773355","832463","25.044620","13.271299","0.019621","609881","799896","892812","19.102584","10.413682","0.022228","566113","844847","966017","17.385272","6.651007","0.015519","3368","5847","8186","3322","5089","7062","3381","4917","6648","3588","4792","6235","3764","4623","5155","DualSpot on"
"MA200-0420","42336","67","1","1.10","1.6","2023-07-09T19:49:59","120","2023/07/09","19:49:59","-15.787124454975128","35.03524516150355","0.3","13","300","68","37","-268","-4980","-26480","3","150","149.65","115.05","34.60","22.38","46.1","10.24","0","0.00","DUALSPOT-UV-BLUE-GREEN-RED-IR","692296","712493","906159","0.000000","0.000000","0.000000","803183","905358","838140","0.000000","0.000000","0.000000","787140","879678","831476","0.000000","0.000000","0.000000","810067","885133","891956","0.000000","0.000000","0.000000","691425","902236","965163","0.000000","0.000000","0.000000","","","","","","","","","","","","","","","","Tape advance-DualSpot on"
"MA200-0420","42337","67","1","1.10","1.6","2023-07-09T19:54:59","120","2023/07/09","19:54:59","-15.787096083164215","35.03526049107313","0.1","13","300","68","36","-292","-5088","-26228","3","150","150.27","116.07","34.20","22.19","46.6","10.20","0","0.00","DUALSPOT-UV-BLUE-GREEN-RED-IR","684208","710227","906534","0.000000","0.000000","0.000000","797762","903533","838135","0.000000","0.000000","0.000000","783341","878774","831949","0.000000","0.000000","0.000000","801051","877776","885634","0.000000","0.000000","0.000000","686782","897647","960876","0.000000","0.000000","0.000000","","","","","","","","","","","","","","","","Tape advance-DualSpot on"
"MA200-0420","42338","67","1","1.10","1.6","2023-07-09T19:59:59","120","2023/07/09","19:59:59","-15.787068784236908","35.03527132421732","0.0","13","300","64","36","-340","-5020","-26532","3","150","149.38","115.36","34.01","22.01","46.9","10.14","89560","21.94","DUALSPOT-UV-BLUE-GREEN-RED-IR","667155","703502","904128","2.257114","0.683784","0.000000","783341","897350","836480","1.627175","0.488930","0.000000","771230","873853","830822","1.418991","0.424951","0.000000","795794","879265","890234","1.171423","0.345138","0.000000","684791","900238","965890","0.804607","0.229362","0.000000","11491","11807","11491","10456","10656","10456","10212","10372","10212","10187","10180","10187","9743","9419","9743","DualSpot on"
"MA200-0420","42339","67","1","1.10","1.6","2023-07-09T20:04:59","120","2023/07/09","20:04:59","-15.787047982215881","35.035295996814966","0.2","13","300","64","35","-208","-4950","-26629","3","150","149.63","115.99","33.63","21.84","47.3","10.12","89560","21.75","DUALSPOT-UV-BLUE-GREEN-RED-IR","652205","698397","903844","4.444206","1.366922","0.022597","770415","892645","836190","3.211959","0.969600","0.019284","760325","870097","830751","2.798221","0.836342","0.000000","786180","875844","889789","2.306606","0.677788","0.000000","679828","898789","966455","1.569500","0.444037","0.000000","11074","11930","12311","10128","10595","10797","9871","10155","9871","9818","9923","9818","9211","8917","9211","DualSpot on"
"MA200-0420","42340","67","1","1.10","1.6","2023-07-09T20:09:59","120","2023/07/09","20:09:59","-15.787065148353577","35.03528315573931","0.1","13","300","64","34","-239","-5092","-26147","3","150","149.89","115.13","34.76","21.72","47.7","10.11","89560","21.63","DUALSPOT-UV-BLUE-GREEN-RED-IR","634843","693504","906097","7.440010","2.333053","0.012130","755030","888557","838314","5.524688","1.692593","0.008782","747256","867116","833039","4.846766","1.467686","0.005955","769184","867094","885381","4.030430","1.196457","-0.001236","669309","892551","962985","2.798927","0.788616","0.000000","15284","16325","16800","14892","15419","15651","14773","15079","15212","15022","14970","14948","14918","13847","14918","DualSpot on"
"MA200-0420","42341","67","1","1.10","1.6","2023-07-09T20:14:59","120","2023/07/09","20:14:59","-15.787084937095642","35.035262659192085","0.0","13","300","64","34","-316","-4950","-26933","3","150","150.40","115.61","34.78","21.61","48.0","10.11","89564","21.50","DUALSPOT-UV-BLUE-GREEN-RED-IR","630434","694272","910837","8.667114","2.746114","0.017101","746965","884042","836294","6.363417","1.957744","0.010742","740833","863920","831807","5.567088","1.689464","0.005834","769562","871095","891001","4.616158","1.370223","-0.004373","666153","890874","962210","3.189930","0.895886","-0.043764","6234","6975","7318","5378","5651","5772","5172","5293","5346","5082","5012","4982","4724","4308","4145","DualSpot on"
"MA200-0420","42342","67","1","1.10","1.6","2023-07-09T20:19:59","120","2023/07/09","20:19:59","-15.787104308605194","35.035261664539576","0.1","13","300","64","34","-344","-5076","-26172","3","150","149.63","115.56","34.07","21.58","48.2","10.16","89564","21.44","DUALSPOT-UV-BLUE-GREEN-RED-IR","622921","690232","908508","9.612713","3.075498","0.021929","746280","886947","840676","6.980578","2.157151","0.017485","736010","861381","830714","6.091859","1.853418","0.013003","765738","869337","890291","5.038907","1.496620","0.003943","668172","895355","967791","3.464748","0.970990","-0.032548","4806","5679","6089","3959","4339","4509","3770","3995","4094","3670","3722","3744","3322","3079","2985","DualSpot on"
"MA200-0420","42343","67","1","1.10","1.6","2023-07-09T20:24:59","120","2023/07/09","20:24:59","-15.787120819091797","35.03525582700968","0.1","13","300","64","34","-292","-5024","-26375","3","150","149.52","115.50","34.02","21.57","48.4","10.22","89564","21.44","DUALSPOT-UV-BLUE-GREEN-RED-IR","616710","687958","908742","10.638100","3.430048","0.019187","740828","884775","840572","7.695138","2.386647","0.015035","731074","859291","830323","6.711630","2.047836","0.012723","761152","867229","889511","5.549734","1.648800","0.002850","665221","893706","966913","3.816356","1.065984","-0.034048","5214","6120","6551","4586","5000","5186","4455","4744","4870","4437","4487","4508","4252","3900","3763","DualSpot on"
"MA200-0420","42344","67","1","1.10","1.6","2023-07-09T20:29:59","120","2023/07/09","20:29:59","-15.787072122097015","35.0352689884603","0.1","13","300","72","33","-324","-5060","-26436","3","150","149.56","115.72","33.84","21.52","48.6","10.22","89568","21.38","DUALSPOT-UV-BLUE-GREEN-RED-IR","609279","683474","905517","11.495605","3.729818","0.019512","734442","880482","838044","8.267689","2.573847","0.017689","730261","861187","833428","7.201351","2.202421","0.014242","654247","747479","767606","5.946479","1.769648","0.009385","662118","891248","964943","4.083255","1.138815","-0.025060","4352","5202","5611","3667","4100","4296","3513","3792","3915","3439","3582","3643","3222","3006","2922","DualSpot on"
"MA200-0420","42345","67","1","1.10","1.6","2023-07-09T20:34:59","120","2023/07/09","20:34:59","-15.787074983119965","35.035283993929625","0.1","13","300","64","33","-304","-5028","-26588","3","150","150.42","115.92","34.50","21.44","48.7","10.19","89572","21.31","DUALSPOT-UV-BLUE-GREEN-RED-IR","604468","681312","905010","12.238796","3.992200","0.017680","730032","878107","837108","8.755731","2.733433","0.014310","726693","859402","832806","7.615791","2.333545","0.010918","757844","867850","892116","6.279928","1.869981","0.002422","660141","889984","964141","4.299759","1.197995","-0.029710","3765","4466","4805","3121","3428","3568","2968","3155","3237","2886","2917","2930","2609","2395","2313","DualSpot on"
"MA200-0420","42346","67","1","1.10","1.6","2023-07-09T20:39:59","120","2023/07/09","20:39:59","-15.787091851234436","35.03527765721083","0.0","13","300","72","32","-275","-5016","-26525","3","150","149.54","115.50","34.04","21.34","49.0","10.18","89572","21.19","DUALSPOT-UV-BLUE-GREEN-RED-IR","695852","787754","1048960","12.920238","4.234764","0.018279","729679","880311","840456","9.206564","2.883434","0.017175","833472","988238","958832","7.997669","2.456528","0.014766","870087","998521","1027383","6.586027","1.961423","0.002902","763849","1031295","1117786","4.495308","1.250543","-0.030950","3465","4185","4536","2893","3266","3437","2744","2999","3112","2658","2695","2710","2365","2156","2076","DualSpot on"
"MA200-0420","42347","67","1","1.10","1.6","2023-07-09T20:44:59","120","2023/07/09","20:44:59","-15.78709763288498","35.03529865667224","0.1","13","300","64","32","-275","-4933","-26504","3","150","150.08","115.52","34.56","21.25","49.2","10.17","0","0.00","DUALSPOT-UV-BLUE-GREEN-RED-IR","597113","678865","906147","13.586567","4.475075","0.017262","724154","876263","837833","9.655550","3.031170","0.013157","722004","858308","833778","8.380113","2.578789","0.010751","754494","867736","893629","6.892559","2.054669","0.003387","658636","890509","965788","4.694633","1.307050","-0.016687","3387","4084","4425","2881","3168","3300","2748","2936","3020","2662","2706","2725","2410","2284","2235","DualSpot on"
"MA200-0420","42348","67","1","1.10","1.6","2023-07-09T20:49:59","120","2023/07/09","20:49:59","-15.78708291053772","35.035327825695276","0.1","14","300","64","32","-360","-5092","-26396","3","150","149.50","115.57","33.94","21.21","49.3","10.15","0","0.00","DUALSPOT-UV-BLUE-GREEN-RED-IR","590575","675564","904745","14.533901","4.809931","0.016061","717639","872541","836266","10.365673","3.268378","0.016139","716668","855561","832833","9.003581","2.781582","0.014974","749237","864741","892036","7.412601","2.218793","0.013006","655466","888531","964610","5.056885","1.410233","-0.008582","4814","5795","6280","4555","5181","5470","4478","4961","5176","4514","4852","4996","4378","4247","4196","DualSpot on"
"MA200-0420","42349","67","1","1.10","1.6","2023-07-09T20:54:59","120","2023/07/09","20:54:59","-15.787107288837433","35.03524048998952","0.1","14","300","64","31","-300","-5040","-26563","3","150","149.40","115.37","34.04","21.15","49.4","10.14","0","0.00","DUALSPOT-UV-BLUE-GREEN-RED-IR","588633","676342","908036","15.225430","5.058321","0.016138","716501","873985","839006","10.853647","3.432476","0.015647","711329","851587","830092","9.425243","2.920234","0.015107","743434","860091","888184","7.758901","2.325412","0.007554","651870","885136","961551","5.293071","1.475699","-0.017290","3520","4286","4667","3135","3574","3777","3034","3382","3538","3011","3142","3199","2859","2687","2620","DualSpot on"
"MA200-0420","42350","67","1","1.10","1.6","2023-07-09T20:59:59","120","2023/07/09","20:59:59","-15.787129342556","35.03524116054177","0.2","13","300","64","31","-316","-5196","-26228","3","150","149.83","115.43","34.40","21.16","49.8","10.25","0","0.00","DUALSPOT-UV-BLUE-GREEN-RED-IR","585609","675810","909587","15.915848","5.306741","0.014918","714198","874016","840376","11.342939","3.593665","0.011802","709132","851384","831010","9.849512","3.054148","0.008034","742057","860597","889604","8.107189","2.430519","0.002213","651122","885679","962764","5.532928","1.540692","-0.025962","3513","4242","4606","3142","3474","3628","3051","3232","3313","3027","3065","3082","2902","2639","2538","DualSpot on"
