"Serial number","Datum ID","Session ID","Data format version","Firmware version","App version","Date / time local","Timezone offset (mins)","Date local (yyyy/MM/dd)","Time local (hh:mm:ss)","GPS lat (ddmm.mmmmm)","GPS long (dddmm.mmmmm)","GPS speed (km/h)","GPS sat count","Timebase (s)","Status","Battery remaining (%)","Accel X","Accel Y","Accel Z","Tape position","Flow setpoint (mL/min)","Flow total (mL/min)","Flow1 (mL/min)","Flow2 (mL/min)","Sample temp (C)","Sample RH (%)","Sample dewpoint (C)","Internal pressure (Pa)","Internal temp (C)","Optical config","UV Sen1","UV Sen2","UV Ref","UV ATN1","UV ATN2","UV K","Blue Sen1","Blue Sen2","Blue Ref","Blue ATN1","Blue ATN2","Blue K","Green Sen1","Green Sen2","Green Ref","Green ATN1","Green ATN2","Green K","Red Sen1","Red Sen2","Red Ref","Red ATN1","Red ATN2","Red K","IR Sen1","IR Sen2","IR Ref","IR ATN1","IR ATN2","IR K","UV BC1","UV BC2","UV BCc","Blue BC1","Blue BC2","Blue BCc","Green BC1","Green BC2","Green BCc","Red BC1","Red BC2","Red BCc","IR BC1","IR BC2","IR BCc","Readable status"
"MA200-0420","53443","85","1","1.10","1.6","2023-08-26T05:55:00","120","2023/08/26","05:55:00","-15.787026345729828","35.035309325903654","0.1","3","300","66","22","-444","23572","-1268","6","150","149.60","119.18","30.42","18.33","49.6","7.61","89208","19.00","DUALSPOT-UV-BLUE-GREEN-RED-IR","779531","688919","912313","0.000000","0.000000","0.000000","859896","871428","835018","0.000000","0.000000","0.000000","845393","853133","831539","0.000000","0.000000","0.000000","910288","905055","934155","0.000000","0.000000","0.000000","765240","859788","965441","0.000000","0.000000","0.000000","","","","","","","","","","","","","","","","Start up-DualSpot on"
"MA200-0420","53444","85","1","1.10","1.6","2023-08-26T06:00:00","120","2023/08/26","06:00:00","-15.787143349647522","35.03530166298151","0.0","9","300","64","26","-372","23616","-1180","6","150","149.76","118.56","31.19","19.75","49.7","8.92","89208","21.25","DUALSPOT-UV-BLUE-GREEN-RED-IR","755465","685767","916861","0.000000","0.000000","0.000000","843664","867408","835120","0.000000","0.000000","0.000000","835061","852661","834266","0.000000","0.000000","0.000000","879860","882619","913627","0.000000","0.000000","0.000000","760852","859874","967047","0.000000","0.000000","0.000000","","","","","","","","","","","","","","","","DualSpot on"
"MA200-0420","53445","85","1","1.10","1.6","2023-08-26T06:05:00","120","2023/08/26","06:05:00","-15.787186205387115","35.03528115898371","0.1","11","300","72","27","-272","23404","-788","6","150","150.54","118.60","31.94","20.98","48.2","9.62","89224","22.56","DUALSPOT-UV-BLUE-GREEN-RED-IR","725641","681603","923252","4.749687","1.307252","0.006231","828838","868181","841181","2.499919","0.637775","0.000000","816527","846475","832307","2.013262","0.495237","0.000000","743231","754333","783763","1.543665","0.376657","0.000000","752777","857439","966352","0.994380","0.210578","0.000000","23522","24042","24239","15626","14804","15626","14093","12874","14093","13058","11832","13058","11712","9211","11712","DualSpot on"
"MA200-0420","53446","85","1","1.10","1.6","2023-08-26T06:10:00","120","2023/08/26","06:10:00","-15.78711986541748","35.035270154476166","0.0","12","300","64","27","-370","23441","-1008","6","150","149.77","118.48","31.29","22.03","46.6","10.08","89216","23.50","DUALSPOT-UV-BLUE-GREEN-RED-IR","661283","656070","909392","12.516911","3.610759","0.011778","783760","855052","841164","8.076950","2.154040","0.004795","789934","848847","845403","6.870561","1.774966","-0.000455","813747","850971","893384","5.560996","1.409232","-0.006664","731192","850529","964693","3.723009","0.847775","-0.047330","38504","43241","45162","34894","35925","36300","34035","33956","33929","34017","33109","32801","32171","28448","27351","DualSpot on"
"MA200-0420","53447","85","1","1.10","1.6","2023-08-26T06:15:00","120","2023/08/26","06:15:00","-15.787147462368011","35.03527782484889","0.0","12","300","64","28","-388","23408","-1032","6","150","150.09","119.10","30.99","22.93","45.1","10.38","89220","24.31","DUALSPOT-UV-BLUE-GREEN-RED-IR","637679","648016","907815","16.003529","4.676391","0.012374","763167","847656","839529","10.567672","2.831846","0.005595","760985","830791","832046","9.035882","2.336766","-0.000409","796966","844658","890661","7.350762","1.852901","-0.009157","722083","848119","964547","4.969928","1.115039","-0.059116","17194","20199","21440","15503","16216","16477","15094","15052","15038","15076","14365","14125","14625","12049","11304","DualSpot on"
"MA200-0420","53448","85","1","1.10","1.6","2023-08-26T06:20:00","120","2023/08/26","06:20:00","-15.787133872509003","35.035305660218","0.1","12","300","64","29","-468","23472","-1044","6","150","150.49","119.81","30.68","23.73","43.7","10.64","89236","25.00","DUALSPOT-UV-BLUE-GREEN-RED-IR","619466","640692","904765","18.570790","5.476547","0.012683","746454","839431","835304","12.288583","3.307455","0.007971","751474","829323","833795","10.508815","2.725650","0.003838","789159","843873","892497","8.548652","2.156490","-0.001619","714665","844989","962657","5.813028","1.294868","-0.047070","12585","15320","16463","10648","11493","11804","10206","10524","10635","10030","9928","9894","9830","8188","7718","DualSpot on"
"MA200-0420","53449","85","1","1.10","1.6","2023-08-26T06:25:00","120","2023/08/26","06:25:00","-15.787109434604645","35.03529132530093","0.1","12","300","64","31","-368","23496","-976","6","150","149.63","119.55","30.08","24.38","42.8","10.90","89244","25.56","DUALSPOT-UV-BLUE-GREEN-RED-IR","610278","638437","906605","20.285556","6.039448","0.014920","739869","838888","837600","13.451035","3.646224","0.013269","743813","826831","833549","11.508497","3.000536","0.009707","776157","834989","885081","9.378957","2.377411","0.007637","712552","846483","965713","6.423977","1.431040","-0.026774","8424","10992","12081","7208","8350","8774","6942","7587","7815","6968","7369","7505","7139","6324","6091","DualSpot on"
"MA200-0420","53450","85","1","1.10","1.6","2023-08-26T06:30:00","120","2023/08/26","06:30:00","-15.78713196516037","35.03528782352805","0.0","12","300","64","32","-304","23472","-948","6","150","149.69","119.19","30.50","24.85","42.0","11.04","89252","25.94","DUALSPOT-UV-BLUE-GREEN-RED-IR","599803","634595","906648","22.022182","6.644867","0.015518","731858","836648","838364","14.633945","4.008412","0.014563","735710","823782","833004","12.539675","3.302815","0.013167","775509","839474","892001","10.244753","2.620402","0.011244","705890","842619","962768","7.061535","1.583146","-0.013513","8557","11659","13000","7357","8804","9349","7182","8228","8603","7287","7993","8236","7472","6967","6821","DualSpot on"
"MA200-0420","53451","85","1","1.10","1.6","2023-08-26T06:35:00","120","2023/08/26","06:35:00","-15.78722196817398","35.035289995372295","0.1","13","300","64","35","-466","23441","-1300","6","150","150.28","119.19","31.08","25.17","41.6","11.22","89252","26.19","DUALSPOT-UV-BLUE-GREEN-RED-IR","591728","632714","909206","23.658554","7.222145","0.014235","723743","834261","839175","15.845498","4.390808","0.014221","728627","821944","833806","13.603076","3.622696","0.012718","763627","831854","886191","11.134722","2.877776","0.011504","700970","840761","962185","7.702087","1.744539","-0.005940","8063","10908","12158","7535","9119","9727","7407","8543","8956","7491","8307","8591","7507","7253","7178","DualSpot on"
"MA200-0420","53452","85","1","1.10","1.6","2023-08-26T06:40:00","120","2023/08/26","06:40:00","-15.787089765071869","35.0353066585958","0.0","12","300","64","36","-350","23425","-666","6","150","150.02","118.92","31.10","25.40","41.7","11.44","89260","26.38","DUALSPOT-UV-BLUE-GREEN-RED-IR","579924","626467","905309","25.244164","7.783664","0.013414","712829","827944","835796","16.963852","4.744078","0.013201","718888","816428","830641","14.570415","3.914578","0.011923","760510","833177","889616","11.927585","3.105655","0.009897","698238","840947","963708","8.249798","1.879264","-0.010108","7831","10605","11841","6971","8421","8983","6753","7792","8173","6689","7351","7584","6434","6051","5938","DualSpot on"
"MA200-0420","53453","85","1","1.10","1.6","2023-08-26T06:45:00","120","2023/08/26","06:45:00","-15.78711324930191","35.03533932939172","0.1","12","300","64","38","-366","23441","-1233","6","150","150.21","119.00","31.22","25.61","41.7","11.64","89260","26.50","DUALSPOT-UV-BLUE-GREEN-RED-IR","571282","623496","906465","26.869354","8.383861","0.013851","705064","825404","836492","18.135366","5.131139","0.014651","712776","815171","832028","15.589864","4.237058","0.014136","755266","832350","890990","12.769827","3.359062","0.013017","694523","840104","964192","8.832390","2.030806","-0.001253","8021","11293","12777","7298","9192","9939","7112","8576","9123","7101","8144","8516","6839","6781","6764","DualSpot on"
"MA200-0420","53454","85","1","1.10","1.6","2023-08-26T06:50:00","120","2023/08/26","06:50:00","-15.787114560604095","35.03535432368517","0.1","11","300","64","39","-332","23476","-1152","6","150","150.35","119.06","31.29","25.79","41.8","11.83","89272","26.69","DUALSPOT-UV-BLUE-GREEN-RED-IR","560837","618755","905297","28.581696","9.023113","0.013315","695757","821035","835372","19.329572","5.527187","0.013881","704036","810889","830378","16.620125","4.562851","0.013165","747281","828430","889024","13.613325","3.614725","0.012681","692851","841684","967458","9.409382","2.182800","0.000316","8447","11999","13637","7435","9382","10162","7184","8643","9196","7107","8197","8590","6769","6785","6790","DualSpot on"
"MA200-0420","53455","85","1","1.10","1.6","2023-08-26T06:55:00","120","2023/08/26","06:55:00","-15.787132978439331","35.03533048927784","0.0","11","300","64","40","-441","23487","-1066","6","150","150.02","118.84","31.18","25.95","42.0","12.06","89268","26.81","DUALSPOT-UV-BLUE-GREEN-RED-IR","552139","615950","907407","30.383030","9.708366","0.013101","688889","819585","837305","20.553552","5.936096","0.013509","697878","809553","831771","17.668664","4.897988","0.013126","741539","826960","889782","14.470551","3.872326","0.011446","684753","835360","961692","9.991852","2.335626","0.000007","8903","12909","14790","7635","9722","10570","7325","8924","9537","7237","8289","8673","6847","6847","6847","DualSpot on"
"MA200-0420","53456","85","1","1.10","1.6","2023-08-26T07:00:00","120","2023/08/26","07:00:00","-15.787090420722961","35.03530432283878","0.0","11","300","64","42","-376","23532","-1112","6","150","149.95","118.48","31.47","26.08","42.3","12.27","89276","26.94","DUALSPOT-UV-BLUE-GREEN-RED-IR","541618","611476","907958","32.368516","10.497200","0.013076","680113","816086","837564","21.871826","6.398911","0.014296","688990","805244","830469","18.790932","5.271051","0.013787","734647","824401","889566","15.381939","4.160080","0.013363","684027","838279","966638","10.606514","2.503409","0.003304","9842","14723","17065","8248","10902","12000","7863","9842","10613","7717","9174","9714","7247","7448","7510","DualSpot on"
"MA200-0420","53457","85","1","1.10","1.6","2023-08-26T07:05:00","120","2023/08/26","07:05:00","-15.787110447883606","35.03529166430235","0.1","11","300","64","43","-404","23558","-1062","6","150","150.34","118.76","31.58","26.22","42.6","12.52","89284","27.06","DUALSPOT-UV-BLUE-GREEN-RED-IR","530160","604589","903582","34.027452","11.150826","0.012265","674876","816010","840939","23.044972","6.808791","0.013370","684082","804949","832977","19.806618","5.610684","0.013339","724949","818162","885169","16.215977","4.421619","0.012186","677162","833322","962403","11.177876","2.658326","0.002234","8204","12155","14081","7323","9620","10584","7100","8927","9650","7045","8308","8781","6720","6852","6893","DualSpot on"
"MA200-0420","53458","85","1","1.10","1.6","2023-08-26T07:10:00","120","2023/08/26","07:10:00","-15.787317872047424","35.035223823040724","0.0","11","300","64","44","-372","23468","-1036","6","150","149.76","118.52","31.23","26.34","42.9","12.73","89288","27.19","DUALSPOT-UV-BLUE-GREEN-RED-IR","523317","602426","906019","35.595620","11.778053","0.012255","663359","807907","835893","24.160340","7.204201","0.013647","678667","803696","834367","20.770976","5.935953","0.013555","721159","818333","887564","17.011504","4.674936","0.013118","674537","833384","963937","11.722389","2.806365","0.003409","7771","11795","13784","6976","9384","10408","6755","8645","9402","6734","8136","8668","6417","6621","6685","DualSpot on"
"MA200-0420","53459","85","1","1.10","1.6","2023-08-26T07:15:00","120","2023/08/26","07:15:00","-15.787217855453491","35.03524732589722","0.0","11","300","64","45","-372","23472","-1008","6","150","149.74","118.77","30.97","26.49","43.1","12.91","89296","27.31","DUALSPOT-UV-BLUE-GREEN-RED-IR","516220","599253","906504","37.019652","12.362041","0.012490","656608","804957","836020","25.202552","7.585186","0.014488","672681","801331","834532","21.680054","6.252626","0.014795","715703","816189","887456","17.762464","4.923556","0.015301","670529","831458","963163","12.244461","2.957141","0.010152","7042","11076","13099","6505","9120","10246","6354","8490","9355","6343","8054","8711","6140","6801","7012","DualSpot on"
"MA200-0420","53460","85","1","1.10","1.6","2023-08-26T07:20:00","120","2023/08/26","07:20:00","-15.787210524082184","35.03526182472706","0.3","10","300","64","46","-356","23492","-967","6","150","149.89","118.68","31.21","26.63","43.1","13.05","89304","27.44","DUALSPOT-UV-BLUE-GREEN-RED-IR","511513","597654","908171","38.121120","12.813190","0.011976","652252","803878","837405","26.041212","7.889166","0.013513","664624","795563","830641","22.417500","6.508229","0.013808","712850","816389","889439","18.380168","5.124029","0.013340","668325","831400","964269","12.685833","3.080538","0.006078","5451","8491","10030","5238","7221","8082","5158","6800","7471","5221","6445","6918","5195","5523","5629","DualSpot on"
"MA200-0420","53461","85","1","1.10","1.6","2023-08-26T07:25:00","120","2023/08/26","07:25:00","-15.787197351455688","35.03527382388711","0.0","10","300","64","48","-383","23545","-1091","6","150","150.21","118.56","31.65","26.79","43.0","13.18","89312","27.63","DUALSPOT-UV-BLUE-GREEN-RED-IR","506619","595683","909157","39.186732","13.250397","0.011430","647823","802680","838722","26.873342","8.191358","0.012704","660013","793834","830990","23.158476","6.764024","0.012645","708763","815078","889848","19.004496","5.328536","0.012620","664925","829889","963725","13.137833","3.204524","0.002675","5279","8113","9561","5203","7078","7900","5188","6709","7337","5283","6482","6949","5325","5472","5519","DualSpot on"
"MA200-0420","53462","85","1","1.10","1.6","2023-08-26T07:30:00","120","2023/08/26","07:30:00","-15.78730696439743","35.035214994102716","0.1","10","300","64","49","-387","23529","-1029","6","150","149.69","118.25","31.45","26.96","43.0","13.30","89320","27.81","DUALSPOT-UV-BLUE-GREEN-RED-IR","492953","589183","907571","41.741360","14.170830","0.008373","635516","796125","836727","28.549818","8.772347","0.010662","654310","793957","834757","24.472762","7.203680","0.010937","701187","811610","888740","19.949956","5.629996","0.010880","658910","826369","961453","13.810917","3.393781","0.005115","12689","17192","19507","10510","13696","15110","9227","11607","12600","8021","9618","10245","7951","8407","8556","DualSpot on"
"MA200-0420","53463","85","1","1.10","1.6","2023-08-26T07:35:00","120","2023/08/26","07:35:00","-15.787134349346161","35.03530066087842","0.0","9","300","64","51","-368","23452","-1060","6","150","149.60","118.40","31.20","27.16","42.9","13.45","89316","28.00","DUALSPOT-UV-BLUE-GREEN-RED-IR","481653","584744","908542","44.149168","15.028454","0.007875","625655","792370","837479","30.191016","9.328434","0.009688","641760","785608","829581","25.785452","7.633833","0.009964","694984","809674","889340","20.904504","5.933334","0.010678","658551","829967","967358","14.478756","3.573535","0.001899","11944","16143","18310","10276","13211","14524","9204","11445","12387","8088","9753","10412","7879","8047","8102","DualSpot on"
"MA200-0420","53464","85","1","1.10","1.6","2023-08-26T07:40:00","120","2023/08/26","07:40:00","-15.787116885185242","35.03526232764125","0.1","9","300","64","53","-416","23488","-1132","6","150","149.81","118.40","31.41","27.38","42.7","13.59","89320","28.19","DUALSPOT-UV-BLUE-GREEN-RED-IR","475653","581599","908526","45.423880","15.572098","0.010577","619785","789572","837564","31.158246","9.699340","0.012607","640035","787696","834285","26.625560","7.940053","0.013058","689252","806600","888016","21.589074","6.168856","0.013602","653947","827036","965328","14.971146","3.717050","0.007755","6323","10166","12171","6056","8754","9974","5891","8094","9030","5800","7523","8212","5809","6383","6572","DualSpot on"
"MA200-0420","53465","85","1","1.10","1.6","2023-08-26T07:45:00","120","2023/08/26","07:45:00","-15.78717702627182","35.035216990858316","0.0","9","300","64","54","-344","23528","-1072","6","150","149.56","118.60","30.96","27.60","42.5","13.70","89320","28.44","DUALSPOT-UV-BLUE-GREEN-RED-IR","458904","572617","906941","48.835144","16.956482","0.009406","604754","781839","836067","33.435620","10.506486","0.010253","627061","781827","833559","28.582586","8.598842","0.010246","677404","801572","886974","23.203050","6.680032","0.009933","645437","822852","963393","16.077824","4.021521","0.004174","16893","26264","31248","14235","19327","21660","13699","17666","19373","13653","16565","17742","13035","13738","13972","DualSpot on"
"MA200-0420","53466","85","1","1.10","1.6","2023-08-26T07:50:00","120","2023/08/26","07:50:00","-15.787132799625397","35.03527449071407","0.0","10","300","64","55","-412","23512","-1140","6","150","149.89","118.25","31.64","27.81","42.2","13.81","89316","28.63","DUALSPOT-UV-BLUE-GREEN-RED-IR","453162","569585","907703","50.174048","17.567878","0.010382","598393","778388","835756","34.455260","10.910473","0.011985","621314","778995","833347","29.480492","8.934337","0.012297","672273","799393","886949","23.961026","6.944258","0.012474","644823","825258","967796","16.629204","4.183644","0.007015","6650","11349","13881","6392","9465","10889","6304","8803","9889","6431","8378","9172","6514","7157","7374","DualSpot on"
"MA200-0420","53467","85","1","1.10","1.6","2023-08-26T07:55:00","120","2023/08/26","07:55:00","-15.787263989448547","35.03520582616329","0.0","10","300","68","57","-316","23528","-892","7","150","150.21","117.98","32.23","28.02","41.9","13.87","89316","28.88","DUALSPOT-UV-BLUE-GREEN-RED-IR","747867","677691","904024","0.000000","0.000000","0.000000","850466","876588","840917","0.000000","0.000000","0.000000","835016","855462","833876","0.000000","0.000000","0.000000","857271","863325","891588","0.000000","0.000000","0.000000","751679","855763","961709","0.000000","0.000000","0.000000","","","","","","","","","","","","","","","","Tape advance-DualSpot on"
"MA200-0420","53468","85","1","1.10","1.6","2023-08-26T08:00:00","120","2023/08/26","08:00:00","-15.787182688713074","35.03527932614088","0.1","12","300","68","59","-412","23491","-870","7","150","150.54","118.13","32.41","28.20","41.5","13.89","89324","29.00","DUALSPOT-UV-BLUE-GREEN-RED-IR","734297","676437","908979","0.000000","0.000000","0.000000","834699","869748","838113","0.000000","0.000000","0.000000","822542","850389","832023","0.000000","0.000000","0.000000","845363","857406","887933","0.000000","0.000000","0.000000","749615","857259","964899","0.000000","0.000000","0.000000","","","","","","","","","","","","","","","","Tape advance-DualSpot on"
"MA200-0420","53469","85","1","1.10","1.6","2023-08-26T08:05:00","120","2023/08/26","08:05:00","-15.787174940109253","35.035256158560514","0.4","12","300","64","61","-358","23491","-1166","7","150","149.95","117.85","32.10","28.40","41.2","13.93","89328","29.19","DUALSPOT-UV-BLUE-GREEN-RED-IR","718909","671296","907882","2.000749","0.642091","0.000000","822376","864767","836631","1.312531","0.396156","0.000000","812342","846350","830739","1.094972","0.322192","0.000000","843077","860289","893135","0.852421","0.245579","0.000000","743593","853649","962143","0.523319","0.138496","0.000000","9971","11748","9971","8256","9148","8256","7713","8332","7713","7256","7675","7256","6203","6027","6203","DualSpot on"
"MA200-0420","53470","85","1","1.10","1.6","2023-08-26T08:10:00","120","2023/08/26","08:10:00","-15.787146151065826","35.03527915850282","0.1","12","300","64","63","-380","23476","-884","7","150","149.57","117.74","31.83","28.56","40.7","13.92","89320","29.31","DUALSPOT-UV-BLUE-GREEN-RED-IR","705136","666111","906106","3.737384","1.219747","0.068162","817679","866834","841730","2.491941","0.764775","0.000000","807575","847215","834100","2.088094","0.624007","0.000000","834314","856047","890749","1.634541","0.476951","0.000000","742673","855618","965632","1.008855","0.271360","0.000000","8663","10658","11624","7425","8584","7425","7002","7871","7002","6664","7292","6664","5760","5830","5760","DualSpot on"
"MA200-0420","53471","85","1","1.10","1.6","2023-08-26T08:15:00","120","2023/08/26","08:15:00","-15.78715580701828","35.035292495042086","0.2","12","300","64","65","-308","23556","-1208","7","150","150.41","117.89","32.52","28.72","40.5","13.97","89324","29.44","DUALSPOT-UV-BLUE-GREEN-RED-IR","690879","660388","903804","5.530885","1.833452","0.047847","805110","860691","839023","3.719588","1.154679","0.048416","797591","842771","832384","3.126534","0.944680","0.046781","824940","851291","888013","2.453987","0.723134","0.000000","736678","851855","962784","1.523149","0.412134","0.000000","8935","11085","12151","7719","8889","9415","7313","8187","8566","6973","7595","6973","6094","6047","6094","DualSpot on"
"MA200-0420","53472","85","1","1.10","1.6","2023-08-26T08:20:00","120","2023/08/26","08:20:00","-15.787130177021027","35.03527082130313","0.2","12","300","64","67","-384","23536","-992","7","150","150.47","117.89","32.58","28.89","40.4","14.07","89324","29.63","DUALSPOT-UV-BLUE-GREEN-RED-IR","678090","656171","903930","7.404869","2.484218","0.037607","795060","857459","839364","5.013793","1.569700","0.037734","788320","839315","831790","4.223713","1.284307","0.034822","816626","847895","886805","3.326111","0.985033","0.032924","735811","854328","967069","2.081173","0.566908","0.000000","9336","11731","12940","8138","9442","10037","7726","8654","9059","7422","8064","8334","6612","6635","6612","DualSpot on"
"MA200-0420","53473","85","1","1.10","1.6","2023-08-26T08:25:00","120","2023/08/26","08:25:00","-15.787177741527557","35.03527382388711","0.1","11","300","64","69","-195","23608","-1000","7","150","149.76","117.50","32.26","29.11","40.3","14.24","89336","29.88","DUALSPOT-UV-BLUE-GREEN-RED-IR","666055","652640","905301","9.353382","3.176769","0.032972","785361","854488","840022","6.323117","1.998192","0.034650","780131","836854","832231","5.322064","1.633322","0.034756","810696","846728","887932","4.185479","1.250457","0.036117","731243","852355","966381","2.633688","0.724410","0.000000","9740","12609","14084","8261","9846","10578","7761","8981","9522","7338","8254","8644","6569","6820","6569","DualSpot on"
"MA200-0420","53474","85","1","1.10","1.6","2023-08-26T08:30:00","120","2023/08/26","08:30:00","-15.78715831041336","35.03524882346392","0.0","11","300","64","71","-291","23495","-795","7","150","149.69","117.18","32.51","29.35","40.1","14.38","89336","30.13","DUALSPOT-UV-BLUE-GREEN-RED-IR","655865","649295","906197","10.997055","3.790798","0.031448","777179","851898","840747","7.455917","2.385085","0.034002","773770","835396","833421","6.282941","1.949489","0.033796","805565","845778","889085","4.951741","1.491875","0.032811","728441","852082","967415","3.125587","0.863792","0.009138","8238","11093","12594","7166","8821","9600","6807","8073","8643","6560","7449","7833","5864","5988","6036","DualSpot on"
"MA200-0420","53475","85","1","1.10","1.6","2023-08-26T08:35:00","120","2023/08/26","08:35:00","-15.787183225154877","35.035255659371614","0.2","11","300","64","72","-404","23450","-970","7","150","149.74","117.16","32.58","29.59","39.7","14.43","89336","30.31","DUALSPOT-UV-BLUE-GREEN-RED-IR","644362","644280","904533","12.582050","4.385708","0.027761","766587","846392","838404","8.551850","2.758860","0.029292","764639","830735","831334","7.217252","2.255365","0.028398","797218","841328","886479","5.697914","1.728339","0.029288","721783","847239","963218","3.609302","0.999681","0.003850","7946","10724","12211","6934","8504","9252","6620","7794","8327","6389","7281","7669","5767","5826","5849","DualSpot on"
"MA200-0420","53476","85","1","1.10","1.6","2023-08-26T08:40:00","120","2023/08/26","08:40:00","-15.78725117444992","35.03522082045674","0.0","11","300","64","74","-316","23562","-1062","7","150","150.27","117.28","33.00","29.86","39.4","14.56","89332","30.63","DUALSPOT-UV-BLUE-GREEN-RED-IR","637877","644179","910078","14.201954","5.006458","0.025250","756471","841524","836942","9.700741","3.156739","0.026286","760315","831474","834789","8.202924","2.583479","0.025716","795875","844443","892076","6.493958","1.983203","0.025513","720664","849109","966773","4.132574","1.149386","0.005519","8113","11049","12648","7262","8939","9748","6977","8255","8843","6810","7749","8162","6233","6338","6378","DualSpot on"
"MA200-0420","53477","85","1","1.10","1.6","2023-08-26T08:45:00","120","2023/08/26","08:45:00","-15.787247955799103","35.035267159342766","0.1","11","300","64","76","-358","23533","-995","7","150","149.73","117.04","32.69","30.12","39.0","14.64","89344","30.88","DUALSPOT-UV-BLUE-GREEN-RED-IR","624658","639053","910223","16.304585","5.816765","0.022765","743857","836325","836577","11.335863","3.734645","0.025010","749097","827062","834489","9.647080","3.076022","0.025396","785299","839999","890882","7.694311","2.378530","0.026754","713322","845286","964812","4.950006","1.395501","0.019774","10552","14558","16780","10357","13105","14455","10244","12508","13568","10289","12132","12956","9756","10516","10815","DualSpot on"
"MA200-0420","53478","85","1","1.10","1.6","2023-08-26T08:50:00","120","2023/08/26","08:50:00","-15.787185251712799","35.03527232259512","0.1","11","300","64","78","-336","23548","-1064","7","150","150.62","116.99","33.63","30.33","38.6","14.68","89348","31.00","DUALSPOT-UV-BLUE-GREEN-RED-IR","607399","630458","906408","18.663928","6.745277","0.019620","733277","834508","840518","13.214803","4.411751","0.020860","734115","819535","831772","11.317292","3.656337","0.020814","770575","832108","886710","9.096780","2.846260","0.020772","707641","844283","966543","5.912300","1.689334","0.013537","11845","16215","18688","11906","14924","16437","11852","14325","15505","12027","13952","14829","11490","12204","12490","DualSpot on"
"MA200-0420","53479","85","1","1.10","1.6","2023-08-26T08:55:00","120","2023/08/26","08:55:00","-15.78723818063736","35.0352988243103","0.2","11","300","64","80","-427","23540","-871","7","150","150.02","117.18","32.84","30.53","38.3","14.72","89356","31.25","DUALSPOT-UV-BLUE-GREEN-RED-IR","593985","625526","908588","21.166870","7.779785","0.020261","719655","829347","841716","15.258483","5.182848","0.022551","721735","815037","832670","13.153795","4.325080","0.023453","759852","828756","887891","10.652779","3.390815","0.025105","699874","841006","966127","6.989811","2.040285","0.026673","12545","18504","21966","12929","17408","19712","13011","16907","18816","13322","16637","18185","12845","14930","15789","DualSpot on"
"MA200-0420","53480","85","1","1.10","1.6","2023-08-26T09:00:00","120","2023/08/26","09:00:00","-15.787154972553253","35.03528666123748","0.1","11","300","64","82","-362","23466","-929","7","150","149.71","116.48","33.23","30.68","38.0","14.75","89364","31.31","DUALSPOT-UV-BLUE-GREEN-RED-IR","581135","618589","905486","23.019802","8.557865","0.018636","705846","820711","837495","16.696171","5.726453","0.019841","710609","808988","830322","14.427605","4.786565","0.019946","749366","823020","884990","11.723392","3.759311","0.019889","692636","836532","963178","7.728908","2.269347","0.014104","9343","13753","16363","9149","12127","13682","9079","11530","12747","9221","11126","12025","8863","9629","9948","DualSpot on"
"MA200-0420","53481","85","1","1.10","1.6","2023-08-26T09:05:00","120","2023/08/26","09:05:00","-15.787144839763641","35.035272657871246","0.2","11","300","64","84","-324","23524","-832","7","150","149.95","116.55","33.40","30.82","37.8","14.77","89368","31.44","DUALSPOT-UV-BLUE-GREEN-RED-IR","574496","617048","909510","24.605510","9.244614","0.018294","701061","821204","841863","17.892884","6.189947","0.019530","705310","808349","832940","15.482872","5.177242","0.019680","746401","824477","889316","12.600691","4.067112","0.019734","690056","836891","965466","8.334202","2.460478","0.015134","7991","12075","14533","7612","10286","11700","7517","9710","10811","7552","9244","10051","7255","7993","8302","DualSpot on"
"MA200-0420","53482","85","1","1.10","1.6","2023-08-26T09:10:00","120","2023/08/26","09:10:00","-15.787172377109528","35.03526382520795","0.1","11","300","64","86","-354","23504","-925","7","150","149.95","116.23","33.72","30.93","37.6","14.77","89376","31.56","DUALSPOT-UV-BLUE-GREEN-RED-IR","563992","610157","904560","25.912026","9.827675","0.017924","690043","812941","836581","18.856812","6.573278","0.019236","700711","807254","834437","16.325163","5.495594","0.019198","742828","824169","891166","13.297106","4.316428","0.019352","688077","837165","967185","8.805019","2.609974","0.013447","6602","10156","12327","6147","8427","9647","6016","7838","8762","6011","7417","8094","5658","6193","6418","DualSpot on"
"MA200-0420","53483","85","1","1.10","1.6","2023-08-26T09:15:00","120","2023/08/26","09:15:00","-15.787176191806793","35.03526232764125","0.3","12","300","64","88","-379","23500","-1025","7","150","149.82","116.59","33.23","31.09","37.5","14.89","89384","31.69","DUALSPOT-UV-BLUE-GREEN-RED-IR","556596","606635","904976","27.278538","10.451668","0.018104","683463","809969","836890","19.853034","6.977679","0.019913","693816","803586","833410","17.192750","5.832181","0.020549","736143","820491","889507","14.012678","4.578657","0.021254","683090","833831","964859","9.290474","2.766757","0.017136","6884","11028","13601","6334","9020","10476","6178","8408","9553","6157","7916","8769","5816","6590","6918","DualSpot on"
"MA200-0420","53484","85","1","1.10","1.6","2023-08-26T09:20:00","120","2023/08/26","09:20:00","-15.787160158157349","35.03524982556701","0.2","12","300","64","90","-347","23544","-861","7","150","150.01","116.29","33.72","31.23","37.2","14.90","89380","31.81","DUALSPOT-UV-BLUE-GREEN-RED-IR","545601","601678","907507","29.554470","11.551228","0.017672","674339","806275","838223","21.358208","7.590150","0.018016","682932","797368","831077","18.494832","6.326816","0.017316","725479","814317","886180","15.101292","4.959214","0.015514","679896","834453","967753","10.059902","2.992833","0.001836","11495","19151","24063","9595","13464","15596","9296","12177","13676","9392","11321","12265","9243","9365","9416","DualSpot on"
"MA200-0420","53485","85","1","1.10","1.6","2023-08-26T09:25:00","120","2023/08/26","09:25:00","-15.787185370922089","35.03523115813732","0.1","12","300","64","92","-348","23588","-867","7","150","150.41","116.39","34.02","31.31","37.1","14.94","89388","31.88","DUALSPOT-UV-BLUE-GREEN-RED-IR","538724","599028","910247","31.122326","12.293823","0.016269","664626","799891","835431","22.474172","8.052771","0.017560","677352","795514","832322","19.463796","6.707804","0.017728","721393","813834","888283","15.901754","5.251858","0.017136","672653","828609","962690","10.608742","3.168980","0.011567","7912","12821","16027","7108","10081","11742","6911","9298","10553","6899","8630","9484","6587","7233","7508","DualSpot on"
"MA200-0420","53486","85","1","1.10","1.6","2023-08-26T09:30:00","120","2023/08/26","09:30:00","-15.787222146987915","35.0352424941957","0.0","12","300","64","94","-345","23616","-908","7","150","150.28","116.62","33.66","31.46","37.1","15.05","89384","31.94","DUALSPOT-UV-BLUE-GREEN-RED-IR","530847","593741","907280","32.273708","12.855347","0.016546","661957","800520","839111","23.312478","8.412871","0.018573","670661","791054","830143","20.195720","7.007403","0.019325","719688","814976","891613","16.507772","5.482943","0.019662","671790","829892","965489","11.026340","3.306923","0.015498","5799","9797","12444","5328","7929","9398","5210","7388","8545","5213","6886","7719","5002","5724","6033","DualSpot on"
"MA200-0420","53487","85","1","1.10","1.6","2023-08-26T09:35:00","120","2023/08/26","09:35:00","-15.7871612906456","35.03527082130313","0.0","12","300","64","95","-304","23528","-900","7","150","149.69","116.15","33.54","31.56","36.9","15.04","89384","32.06","DUALSPOT-UV-BLUE-GREEN-RED-IR","523329","588471","903800","33.318352","13.362946","0.015989","653862","794108","835095","24.066992","8.737398","0.018058","668449","791560","832893","20.853912","7.274119","0.018343","712886","809971","887939","17.047446","5.689326","0.019210","670847","830788","967721","11.397846","3.429207","0.014635","5282","8889","11305","4815","7173","8517","4704","6602","7619","4661","6173","6931","4468","5093","5362","DualSpot on"
"MA200-0420","53488","85","1","1.10","1.6","2023-08-26T09:40:00","120","2023/08/26","09:40:00","-15.78717577457428","35.035260155797005","0.2","12","300","64","96","-356","23656","-871","7","150","150.46","116.48","33.98","31.78","36.9","15.24","89392","32.31","DUALSPOT-UV-BLUE-GREEN-RED-IR","517491","585797","905419","34.611096","13.994576","0.015349","649037","792532","836725","24.995768","9.131621","0.016709","663633","789682","833649","21.668054","7.602372","0.017105","709250","809240","889406","17.725378","5.946419","0.017553","663754","824645","962064","11.873337","3.585153","0.012739","6518","10919","13906","5911","8601","10150","5802","8021","9220","5839","7591","8476","5702","6411","6718","DualSpot on"
"MA200-0420","53489","85","1","1.10","1.6","2023-08-26T09:45:00","120","2023/08/26","09:45:00","-15.787225723266602","35.03523815795779","0.1","12","300","64","97","-366","23541","-812","7","150","149.84","116.60","33.24","31.96","36.3","15.13","89396","32.44","DUALSPOT-UV-BLUE-GREEN-RED-IR","514687","586118","911015","35.771532","14.554253","0.015051","647461","794284","841562","25.821682","9.490202","0.017527","657356","785460","831607","22.377180","7.894786","0.018242","702829","804725","886428","18.301216","6.169518","0.019196","663085","825874","964771","12.256317","3.714697","0.017224","5845","9889","12663","5251","7997","9592","5049","7303","8532","4954","6733","7638","4588","5444","5816","DualSpot on"
"MA200-0420","53490","85","1","1.10","1.6","2023-08-26T09:50:00","120","2023/08/26","09:50:00","-15.7871955037117","35.035254158079624","0.1","11","300","64","97","-416","23472","-816","7","150","149.84","116.14","33.69","32.13","36.0","15.17","89404","32.56","DUALSPOT-UV-BLUE-GREEN-RED-IR","508410","582048","909658","36.848976","15.102665","0.015228","641260","789856","839576","26.551472","9.810610","0.016904","655676","786381","834726","23.005040","8.154303","0.017252","702758","807194","890900","18.810726","6.365588","0.017566","662727","827363","967602","12.603561","3.830721","0.014202","5448","9560","12415","4658","7049","8451","4488","6394","7441","4401","5838","6573","4176","4810","5087","DualSpot on"
"MA200-0420","53491","85","1","1.10","1.6","2023-08-26T09:55:00","120","2023/08/26","09:55:00","-15.787167847156525","35.035248160362244","0.0","11","300","64","97","-396","23516","-744","7","150","150.02","115.76","34.26","32.25","35.7","15.14","89404","32.63","DUALSPOT-UV-BLUE-GREEN-RED-IR","499561","575001","903468","37.928536","15.644077","0.014283","637516","788572","841021","27.303702","10.144631","0.016235","648950","781208","831516","23.651906","8.426879","0.016785","695532","801426","886342","19.334172","6.572854","0.017514","657214","822371","962917","12.953442","3.950311","0.014071","5477","9282","11953","4817","7227","8653","4639","6605","7693","4536","6069","6859","4222","4876","5163","DualSpot on"
"MA200-0420","53492","85","1","1.10","1.6","2023-08-26T10:00:00","120","2023/08/26","10:00:00","-15.78714269399643","35.03529865667224","0.1","11","300","64","97","-333","23512","-762","7","150","150.67","116.07","34.59","32.42","35.6","15.25","89400","32.81","DUALSPOT-UV-BLUE-GREEN-RED-IR","496889","574970","908423","39.017792","16.196514","0.013978","631004","783745","838653","28.054388","10.477221","0.015581","647420","782319","834953","24.299962","8.699105","0.016025","695874","804367","891479","19.861012","6.780669","0.016586","657428","824602","966688","13.308594","4.069346","0.011432","5511","9379","12124","4794","7127","8517","4635","6533","7591","4553","6026","6790","4274","4806","5041","DualSpot on"
"MA200-0420","53493","85","1","1.10","1.6","2023-08-26T10:05:00","120","2023/08/26","10:05:00","-15.787091493606567","35.03529432788491","0.0","11","300","64","97","-360","23484","-792","7","150","149.69","115.60","34.09","32.58","35.2","15.22","89380","33.00","DUALSPOT-UV-BLUE-GREEN-RED-IR","493407","573077","909102","39.791860","16.600170","0.014290","627869","782308","839339","28.631884","10.743475","0.016560","644087","780483","834871","24.806812","8.921782","0.017470","691506","801307","889595","20.281480","6.952411","0.018215","654226","822135","964817","13.604462","4.175808","0.017719","3933","6954","9117","3703","5789","7042","3640","5422","6424","3649","5054","5787","3575","4362","4710","DualSpot on"
"MA200-0420","53494","85","1","1.10","1.6","2023-08-26T10:10:00","120","2023/08/26","10:10:00","-15.787131309509277","35.035288993269205","0.1","11","300","64","97","-340","23536","-836","7","150","150.56","115.87","34.68","32.71","35.1","15.30","89376","33.06","DUALSPOT-UV-BLUE-GREEN-RED-IR","490422","571730","910619","40.562492","17.001484","0.013811","625103","781253","840428","29.202032","11.007154","0.015980","637618","774794","830622","25.308328","9.141203","0.016578","690742","802410","892305","20.696246","7.123216","0.017604","653232","822436","966151","13.895519","4.279751","0.015704","3906","6796","8882","3647","5636","6839","3593","5252","6190","3591","4941","5649","3508","4186","4488","DualSpot on"
"MA200-0420","53495","85","1","1.10","1.6","2023-08-26T10:15:00","120","2023/08/26","10:15:00","-15.787230789661407","35.03528682515025","0.2","10","300","64","97","-388","23524","-800","7","150","149.34","115.83","33.51","32.87","35.0","15.37","89368","33.25","DUALSPOT-UV-BLUE-GREEN-RED-IR","484499","567772","909740","41.681556","17.600200","0.014279","620093","778246","840188","29.976016","11.362061","0.016184","636594","776549","834903","25.979680","9.430633","0.016740","685931","799487","891075","21.254578","7.346208","0.017301","649509","819837","964405","14.286407","4.412904","0.014305","5674","10494","14017","4953","7851","9620","4811","7170","8515","4835","6676","7648","4714","5551","5925","DualSpot on"
"MA200-0420","53496","85","1","1.10","1.6","2023-08-26T10:20:00","120","2023/08/26","10:20:00","-15.787245690822601","35.035279992967844","0.0","10","300","64","97","-320","23541","-895","7","150","149.76","115.84","33.92","33.04","34.9","15.50","89360","33.38","DUALSPOT-UV-BLUE-GREEN-RED-IR","474429","560236","906035","43.364700","18.523910","0.013931","609886","770376","836481","31.188516","11.936740","0.016049","627816","770419","832320","27.054258","9.910735","0.016762","676638","792896","887073","22.168840","7.724226","0.017474","646363","819384","966229","14.957081","4.653940","0.016590","8534","15995","21558","7759","12559","15536","7701","11751","14092","7918","11181","12925","8088","9926","10757","DualSpot on"
"MA200-0420","53497","85","1","1.10","1.6","2023-08-26T10:25:00","120","2023/08/26","10:25:00","-15.787180721759796","35.03528482839465","0.1","12","300","64","97","-308","23520","-752","7","150","150.58","115.65","34.93","33.15","34.8","15.54","89348","33.44","DUALSPOT-UV-BLUE-GREEN-RED-IR","467213","555842","907500","45.034692","19.455208","0.013287","602946","766688","837692","32.453858","12.545038","0.015127","621396","767360","833386","28.187580","10.425549","0.015764","671411","791297","889063","23.144850","8.135313","0.016341","642495","818229","967427","15.665283","4.912439","0.014870","8481","15659","21118","8110","12909","15933","8135","12235","14642","8466","11806","13617","8554","10337","11152","DualSpot on"
"MA200-0420","53498","85","1","1.10","1.6","2023-08-26T10:30:00","120","2023/08/26","10:30:00","-15.78724318742752","35.03525348752737","0.0","12","300","64","97","-364","23460","-908","7","150","149.56","115.52","34.04","33.17","34.5","15.42","89340","33.44","DUALSPOT-UV-BLUE-GREEN-RED-IR","459499","551097","908991","46.894516","20.492424","0.013077","594535","762009","838990","34.042944","13.328446","0.015427","612377","762054","833279","29.660570","11.116019","0.016380","662651","786622","888797","24.452348","8.707662","0.017581","635782","814542","966611","16.648224","5.290426","0.018559","9456","17897","24448","10197","17061","21477","10586","16840","20589","11355","16869","19918","11886","15512","17200","DualSpot on"
"MA200-0420","53499","85","1","1.10","1.6","2023-08-26T10:35:00","120","2023/08/26","10:35:00","-15.787176549434662","35.03526982292533","0.1","12","300","64","97","-344","23544","-816","7","150","149.53","114.92","34.61","33.28","34.7","15.59","89344","33.56","DUALSPOT-UV-BLUE-GREEN-RED-IR","453623","546443","906556","47.907876","21.070714","0.012837","587656","756382","836202","34.871840","13.737906","0.014732","607010","758463","832284","30.417522","11.468085","0.015331","657042","782976","887253","25.120126","8.996100","0.016064","631642","811821","965227","17.154296","5.478878","0.015032","5179","9814","13452","5346","8770","10995","5468","8445","10247","5829","8361","9773","6151","7606","8289","DualSpot on"
"MA200-0420","53500","85","1","1.10","1.6","2023-08-26T10:40:00","120","2023/08/26","10:40:00","-15.787066102027893","35.03530282527208","0.1","12","300","64","97","-370","23583","-833","7","150","149.82","115.64","34.18","33.40","34.5","15.61","89336","33.69","DUALSPOT-UV-BLUE-GREEN-RED-IR","450850","545621","910583","48.968780","21.667946","0.012634","585481","756705","839868","35.682608","14.130620","0.014403","603944","757632","834122","31.152622","11.802680","0.014926","654897","783339","889968","25.758502","9.263081","0.015262","629799","811943","966987","17.635562","5.647665","0.012207","5388","10262","14130","5197","8517","10693","5277","8126","9864","5538","7836","9126","5813","6898","7408","DualSpot on"
"MA200-0420","53501","85","1","1.10","1.6","2023-08-26T10:45:00","120","2023/08/26","10:45:00","-15.787136495113373","35.03530432283878","0.0","12","300","64","97","-362","23558","-854","7","150","149.56","115.68","33.88","33.49","34.1","15.55","89320","33.75","DUALSPOT-UV-BLUE-GREEN-RED-IR","445847","541232","907198","49.724372","22.108268","0.012882","579465","751090","836168","36.278332","14.435719","0.015277","599217","753772","832021","31.687886","12.060330","0.016079","649785","779139","887006","26.217506","9.468086","0.017203","625594","808218","963803","17.978276","5.778562","0.017210","3836","7633","10672","3817","6675","8564","3841","6313","7832","3980","6070","7251","4138","5396","5992","DualSpot on"
"MA200-0420","53502","85","1","1.10","1.6","2023-08-26T10:50:00","120","2023/08/26","10:50:00","-15.787122368812561","35.035309828817844","0.0","13","300","64","97","-332","23496","-732","7","150","150.02","115.99","34.02","33.60","34.2","15.69","89324","33.88","DUALSPOT-UV-BLUE-GREEN-RED-IR","443635","539966","908608","50.370620","22.497272","0.013011","577572","750474","837806","36.801584","14.712164","0.015535","596989","752768","832858","32.160004","12.298582","0.016743","647882","778559","888059","26.626510","9.658119","0.017961","624208","807999","964688","18.285924","5.898000","0.017679","3272","6715","9495","3344","6023","7808","3379","5814","7321","3537","5603","6780","3705","4904","5475","DualSpot on"
"MA200-0420","53503","85","1","1.10","1.6","2023-08-26T10:55:00","120","2023/08/26","10:55:00","-15.787188351154327","35.0353311561048","0.3","13","300","68","97","-341","23537","-954","8","150","149.74","117.12","32.62","33.72","34.1","15.74","89312","34.00","DUALSPOT-UV-BLUE-GREEN-RED-IR","762644","691329","908461","0.000000","0.000000","0.000000","853796","883325","837122","0.000000","0.000000","0.000000","841570","866746","835066","0.000000","0.000000","0.000000","861451","872915","892559","0.000000","0.000000","0.000000","753524","868250","967128","0.000000","0.000000","0.000000","","","","","","","","","","","","","","","","Tape advance-DualSpot on"
"MA200-0420","53504","85","1","1.10","1.6","2023-08-26T11:00:00","120","2023/08/26","11:00:00","-15.787132799625397","35.03529765829444","0.0","13","300","68","97","-392","23572","-700","8","150","149.76","117.18","32.58","33.80","33.8","15.67","89308","34.06","DUALSPOT-UV-BLUE-GREEN-RED-IR","751746","689353","910264","0.000000","0.000000","0.000000","846580","881997","838241","0.000000","0.000000","0.000000","830945","860710","831179","0.000000","0.000000","0.000000","852527","867666","888694","0.000000","0.000000","0.000000","747219","863284","962509","0.000000","0.000000","0.000000","","","","","","","","","","","","","","","","Tape advance-DualSpot on"
"MA200-0420","53505","85","1","1.10","1.6","2023-08-26T11:05:00","120","2023/08/26","11:05:00","-15.787113428115845","35.03531199321151","0.1","13","300","64","97","-325","23483","-745","8","150","150.28","117.14","33.14","33.90","33.7","15.70","89304","34.13","DUALSPOT-UV-BLUE-GREEN-RED-IR","740409","685802","909632","1.451360","0.444898","0.000000","838467","879281","837936","0.931197","0.275826","0.000000","823833","858035","830457","0.771156","0.223428","0.000000","846541","865257","887738","0.595168","0.169853","0.000000","744011","861846","961848","0.362226","0.096910","0.000000","7277","7885","7277","5893","6170","5893","5465","5597","5465","5097","5142","5097","4319","4085","4319","DualSpot on"
"MA200-0420","53506","85","1","1.10","1.6","2023-08-26T11:10:00","120","2023/08/26","11:10:00","-15.78710013628006","35.03530382364988","0.0","13","300","64","97","-354","23533","-750","8","150","149.35","116.82","32.53","34.02","33.7","15.79","89304","34.31","DUALSPOT-UV-BLUE-GREEN-RED-IR","729332","682639","909637","2.953554","0.907499","0.000000","829701","876063","837236","1.892788","0.556320","0.000000","817607","856456","830822","1.571666","0.452864","0.000000","840933","863360","887313","1.215505","0.343010","0.000000","745185","865684","967077","0.745407","0.196112","0.000000","7552","8353","7552","6102","6392","6102","5689","5856","5689","5327","5340","5327","4582","4260","4582","DualSpot on"
"MA200-0420","53507","85","1","1.10","1.6","2023-08-26T11:15:00","120","2023/08/26","11:15:00","-15.787164807319641","35.035287491977215","0.0","13","300","64","97","-337","23558","-758","8","150","150.02","116.75","33.28","34.09","33.0","15.54","89304","34.31","DUALSPOT-UV-BLUE-GREEN-RED-IR","712458","674344","903256","4.598423","1.430955","0.031465","823231","875525","839364","2.930900","0.873422","0.000000","811076","854712","831271","2.429883","0.711208","0.000000","836640","862948","888657","1.875549","0.538118","0.000000","742499","865072","967466","1.147947","0.306851","0.000000","8275","9239","9675","6591","7064","6591","6103","6445","6103","5672","5882","5672","4816","4648","4816","DualSpot on"
"MA200-0420","53508","85","1","1.10","1.6","2023-08-26T11:20:00","120","2023/08/26","11:20:00","-15.787136137485504","35.035293992608786","0.1","13","300","64","97","-329","23591","-870","8","150","150.21","116.86","33.35","34.19","32.5","15.39","89300","34.38","DUALSPOT-UV-BLUE-GREEN-RED-IR","703160","672720","905813","6.192531","1.949705","0.027456","815770","873648","840183","3.937898","1.184285","0.026591","806296","854643","833272","3.261671","0.960379","0.020195","833120","863250","890617","2.517397","0.725010","0.000000","735968","859980","962788","1.543315","0.412027","0.000000","8012","9136","9653","6387","6910","7135","5909","6203","6325","5510","5622","5510","4726","4405","4726","DualSpot on"
"MA200-0420","53509","85","1","1.10","1.6","2023-08-26T11:25:00","120","2023/08/26","11:25:00","-15.787164092063904","35.0352973267436","0.0","13","300","64","98","-458","23316","-508","8","150","149.63","116.59","33.04","34.20","32.0","15.17","89292","34.38","DUALSPOT-UV-BLUE-GREEN-RED-IR","693439","668984","904535","7.452617","2.369260","0.027389","808227","870580","839440","4.783294","1.448947","0.027307","799426","851554","832072","3.974608","1.178610","0.025737","827697","860965","889698","3.072726","0.888513","0.016910","737451","863824","968020","1.888713","0.508884","0.000000","6348","7458","7976","5375","5938","6183","5076","5483","5655","4778","4965","5040","4138","4095","4138","DualSpot on"
"MA200-0420","53510","85","1","1.10","1.6","2023-08-26T11:30:00","120","2023/08/26","11:30:00","-15.787221312522888","35.03528382629156","0.1","12","300","64","97","-287","23512","-691","8","150","150.47","116.78","33.69","34.23","31.9","15.13","89276","34.44","DUALSPOT-UV-BLUE-GREEN-RED-IR","688728","669179","908077","8.521465","2.731140","0.023891","798703","864661","835667","5.519049","1.680923","0.021371","796752","852375","834466","4.596743","1.369774","0.018488","820132","856080","885935","3.563844","1.033468","0.008876","732699","860207","964786","2.196027","0.592799","0.000000","5375","6309","6749","4670","5104","5295","4422","4711","4833","4219","4316","4356","3676","3479","3676","DualSpot on"
"MA200-0420","53511","85","1","1.10","1.6","2023-08-26T11:35:00","120","2023/08/26","11:35:00","-15.787211179733276","35.035278990864754","0.1","12","300","64","97","-364","23520","-752","8","150","149.90","116.75","33.15","34.21","31.6","14.95","89272","34.38","DUALSPOT-UV-BLUE-GREEN-RED-IR","679432","664730","905372","9.566788","3.092474","0.025408","797554","867764","840682","6.252580","1.918286","0.026806","790009","848798","832622","5.221554","1.567208","0.026586","820416","859315","890635","4.056050","1.182613","0.021334","728932","857666","962799","2.503553","0.679636","0.000000","5259","6402","6947","4657","5307","5595","4443","4944","5159","4229","4513","4630","3679","3659","3679","DualSpot on"
"MA200-0420","53512","85","1","1.10","1.6","2023-08-26T11:40:00","120","2023/08/26","11:40:00","-15.78718113899231","35.035283494740725","0.1","12","300","64","97","-215","23736","-1468","8","150","150.02","116.55","33.47","34.27","31.5","14.99","89268","34.44","DUALSPOT-UV-BLUE-GREEN-RED-IR","669024","662452","907944","11.401596","3.723705","0.019929","784178","859789","836004","7.386266","2.280760","0.019078","784270","848037","834297","6.153054","1.856929","0.017280","816200","859167","892400","4.769095","1.397962","0.014287","726996","858099","964405","2.936941","0.798695","0.000000","9246","11077","11965","7211","8028","8393","6635","7186","7425","6138","6455","6586","5194","4969","5194","DualSpot on"
"MA200-0420","53513","85","1","1.10","1.6","2023-08-26T11:45:00","120","2023/08/26","11:45:00","-15.78719449043274","35.03527632728219","0.1","12","300","64","98","-316","23504","-729","8","150","150.08","116.59","33.49","34.41","31.4","15.06","89252","34.63","DUALSPOT-UV-BLUE-GREEN-RED-IR","657430","656963","904920","12.823700","4.223152","0.019423","780825","861289","839855","8.283091","2.570474","0.018453","776456","843881","832145","6.899729","2.092015","0.017533","808781","854754","889331","5.343186","1.569303","0.009759","726363","859593","967031","3.296211","0.896596","-0.023092","7164","8758","9540","5702","6412","6731","5317","5827","6048","4940","5132","5212","4304","4083","4000","DualSpot on"
"MA200-0420","53514","85","1","1.10","1.6","2023-08-26T11:50:00","120","2023/08/26","11:50:00","-15.78718501329422","35.03526382520795","0.1","12","300","64","97","-328","23540","-804","8","150","149.69","116.11","33.58","34.51","31.0","14.94","89244","34.75","DUALSPOT-UV-BLUE-GREEN-RED-IR","651468","654927","905282","13.776443","4.574215","0.021125","774854","858532","839057","8.953768","2.796686","0.021755","771520","841759","831576","7.473918","2.277672","0.019429","803682","852087","887805","5.802912","1.713176","0.018000","723366","857869","965848","3.592485","0.980166","-0.009747","4819","6140","6797","4281","4994","5317","4105","4590","4803","3972","4298","4435","3564","3476","3443","DualSpot on"
"MA200-0420","53515","85","1","1.10","1.6","2023-08-26T11:55:00","120","2023/08/26","11:55:00","-15.787199437618256","35.03525499626994","0.0","12","300","64","97","-345","23533","-729","8","150","149.82","116.07","33.75","34.64","31.0","15.04","89252","34.88","DUALSPOT-UV-BLUE-GREEN-RED-IR","646822","654002","906994","14.686268","4.907810","0.019181","772034","859110","841465","9.607011","3.013790","0.017959","768617","841812","833135","8.036435","2.457291","0.015429","803196","854239","891327","6.257844","1.852143","0.010724","722357","858557","967467","3.896751","1.063551","-0.022001","4603","5806","6409","4172","4769","5042","4023","4418","4592","3932","4131","4215","3661","3451","3372","DualSpot on"
"MA200-0420","53516","85","1","1.10","1.6","2023-08-26T12:00:00","120","2023/08/26","12:00:00","-15.787248611450195","35.03523148968816","0.1","13","300","64","97","-320","23529","-737","8","150","150.47","116.39","34.08","34.71","30.3","14.76","89244","34.94","DUALSPOT-UV-BLUE-GREEN-RED-IR","640305","650481","904717","15.447121","5.195667","0.019779","764410","853827","837959","10.179164","3.214615","0.022103","762467","837841","830598","8.532094","2.625209","0.021653","796087","849011","886980","6.660040","1.980046","0.016368","717521","854377","963507","4.162344","1.141211","-0.000487","3839","4960","5528","3644","4368","4702","3535","4090","4336","3466","3764","3891","3187","3183","3181","DualSpot on"
"MA200-0420","53517","85","1","1.10","1.6","2023-08-26T12:05:00","120","2023/08/26","12:05:00","-15.7871875166893","35.03525799140334","0.2","13","300","64","97","-284","23504","-768","8","150","150.15","116.62","33.53","34.68","30.3","14.73","89240","34.81","DUALSPOT-UV-BLUE-GREEN-RED-IR","634898","648292","904532","16.273140","5.512386","0.020609","760839","853093","838972","10.773378","3.420794","0.021592","759190","837088","831260","9.043401","2.797162","0.021815","793940","849052","888224","7.071891","2.113375","0.021544","716626","854898","964819","4.422685","1.216925","0.003553","4160","5548","6259","3777","4558","4922","3640","4257","4534","3543","3989","4180","3118","3154","3168","DualSpot on"
"MA200-0420","53518","85","1","1.10","1.6","2023-08-26T12:10:00","120","2023/08/26","12:10:00","-15.787144958972931","35.035286493599415","0.2","13","300","64","97","-295","23520","-800","8","150","150.54","116.59","33.95","34.75","30.5","14.85","89240","34.94","DUALSPOT-UV-BLUE-GREEN-RED-IR","633307","649650","909160","17.035302","5.809658","0.019956","753750","848240","835889","11.340419","3.624415","0.022504","757721","838139","833703","9.534331","2.966231","0.021978","787717","844690","884816","7.470125","2.244409","0.020968","712285","851243","961452","4.681122","1.295699","0.012962","3839","5142","5817","3605","4446","4841","3495","4134","4422","3426","3872","4063","3096","3241","3296","DualSpot on"
"MA200-0420","53519","85","1","1.10","1.6","2023-08-26T12:15:00","120","2023/08/26","12:15:00","-15.787180542945862","35.03522649034858","0.2","12","300","64","97","-370","23566","-720","8","150","150.67","116.71","33.96","34.86","30.5","14.95","89228","35.13","DUALSPOT-UV-BLUE-GREEN-RED-IR","625926","645437","906179","17.878040","6.135856","0.018709","753186","851012","840446","11.956027","3.841156","0.019752","752202","834968","832122","10.068024","3.148394","0.019965","788445","847934","889411","7.898091","2.383093","0.017709","712627","853386","964673","4.964456","1.376935","-0.004200","4241","5641","6373","3910","4731","5119","3796","4453","4751","3679","4096","4277","3391","3341","3322","DualSpot on"
"MA200-0420","53520","85","1","1.10","1.6","2023-08-26T12:20:00","120","2023/08/26","12:20:00","-15.787135303020477","35.03527599200606","0.0","12","300","64","97","-345","23550","-841","8","150","150.08","116.60","33.49","34.98","30.3","14.96","89232","35.25","DUALSPOT-UV-BLUE-GREEN-RED-IR","618283","640666","902373","18.693150","6.456856","0.019355","751568","852378","843532","12.540119","4.050529","0.021381","746680","831564","830135","10.568420","3.320139","0.020943","782712","844045","886557","8.302942","2.516684","0.021197","708692","850253","961898","5.232319","1.456793","0.009557","4106","5629","6434","3713","4634","5074","3563","4257","4575","3483","4002","4227","3209","3331","3378","DualSpot on"
"MA200-0420","53521","85","1","1.10","1.6","2023-08-26T12:25:00","120","2023/08/26","12:25:00","-15.787200212478638","35.035266660153866","0.1","12","300","64","97","-354","23554","-691","8","150","149.21","116.21","33.01","35.13","30.1","15.02","89236","35.44","DUALSPOT-UV-BLUE-GREEN-RED-IR","616720","641993","906979","19.448666","6.755539","0.019285","739678","841839","834822","13.095071","4.250109","0.021579","745439","832787","832698","11.048323","3.487366","0.022522","782900","846437","890170","8.690644","2.645051","0.022122","708551","851681","964228","5.491491","1.532897","0.008135","3818","5314","6110","3540","4482","4934","3428","4205","4564","3347","3901","4144","3115","3220","3261","DualSpot on"
"MA200-0420","53522","85","1","1.10","1.6","2023-08-26T12:30:00","120","2023/08/26","12:30:00","-15.787159860134125","35.03527132421732","0.2","12","300","64","97","-416","23516","-720","8","150","149.94","116.62","33.32","35.26","29.8","14.95","89236","35.56","DUALSPOT-UV-BLUE-GREEN-RED-IR","610961","638628","904760","20.147102","7.039661","0.019574","740305","845338","839882","13.615870","4.443228","0.022509","741523","830835","832121","11.501509","3.647053","0.022129","779147","844444","889208","9.059771","2.769479","0.022692","705905","849942","963002","5.738296","1.607667","0.013453","3517","5007","5808","3310","4296","4773","3226","3978","4327","3175","3746","3997","2956","3134","3203","DualSpot on"
"MA200-0420","53523","85","1","1.10","1.6","2023-08-26T12:35:00","120","2023/08/26","12:35:00","-15.78714793920517","35.035266157239676","0.0","12","300","64","97","-329","23520","-675","8","150","150.47","116.03","34.44","35.40","29.4","14.86","89216","35.69","DUALSPOT-UV-BLUE-GREEN-RED-IR","610443","640798","910459","20.859238","7.327442","0.017158","735342","842444","838619","14.138116","4.634810","0.018381","740473","832063","834657","11.953465","3.806253","0.017999","779023","846369","892294","9.425347","2.891221","0.015881","705965","851491","965434","5.983215","1.679803","-0.001789","3604","4908","5614","3336","4124","4508","3233","3837","4120","3160","3546","3717","2948","2926","2917","DualSpot on"
"MA200-0420","53524","85","1","1.10","1.6","2023-08-26T12:40:00","120","2023/08/26","12:40:00","-15.787150800228119","35.0352664925158","0.0","12","300","64","97","-329","23570","-695","8","150","150.21","116.35","33.86","35.53","29.2","14.85","89212","35.81","DUALSPOT-UV-BLUE-GREEN-RED-IR","602402","634887","904543","21.529636","7.603309","0.018124","732585","841972","839723","14.646556","4.824054","0.020054","734028","827186","831092","12.397418","3.965073","0.020330","771842","840563","887305","9.789351","3.015326","0.020288","700547","846394","960388","6.229362","1.755090","0.010632","3384","4785","5549","3239","4143","4586","3167","3893","4235","3138","3677","3916","2955","3105","3164","DualSpot on"
"MA200-0420","53525","85","1","1.10","1.6","2023-08-26T12:45:00","120","2023/08/26","12:45:00","-15.787146806716919","35.03526049107313","0.1","12","300","64","97","-344","23548","-736","8","150","149.81","116.29","33.52","35.68","29.1","14.94","89204","35.94","DUALSPOT-UV-BLUE-GREEN-RED-IR","597436","632810","904844","22.382602","7.960548","0.018445","728338","840250","839929","15.248552","5.050111","0.020439","730215","825658","831109","12.917466","4.152579","0.020900","767481","838157","886000","10.207108","3.156507","0.019577","702088","849882","965155","6.505886","1.840164","0.013203","4308","6260","7337","3837","4999","5575","3712","4644","5085","3604","4225","4504","3321","3545","3633","DualSpot on"
"MA200-0420","53526","85","1","1.10","1.6","2023-08-26T12:50:00","120","2023/08/26","12:50:00","-15.78713470697403","35.03527699038386","0.0","12","300","64","97","-364","23548","-708","8","150","149.95","116.15","33.80","35.78","28.8","14.88","89200","36.06","DUALSPOT-UV-BLUE-GREEN-RED-IR","591670","629420","902814","23.139294","8.279018","0.017721","722828","836793","838228","15.808233","5.263526","0.020090","725792","823152","830091","13.405695","4.330785","0.020374","764064","836547","885522","10.604418","3.294267","0.020507","699495","848285","964117","6.772770","1.922253","0.010892","3826","5534","6485","3572","4680","5234","3489","4377","4801","3431","4089","4385","3209","3392","3465","DualSpot on"
"MA200-0420","53527","85","1","1.10","1.6","2023-08-26T12:55:00","120","2023/08/26","12:55:00","-15.787177860736847","35.035326324403286","0.1","11","300","64","97","-341","23411","-441","8","150","150.02","116.41","33.62","35.81","28.5","14.73","89196","36.06","DUALSPOT-UV-BLUE-GREEN-RED-IR","588566","629120","905510","23.960746","8.622364","0.017169","720065","836962","840487","16.460728","5.513108","0.019924","722997","822973","831677","13.981380","4.543359","0.020899","762552","837542","888059","11.084678","3.461560","0.020814","698692","849224","966228","7.101345","2.027010","0.017898","4144","5999","7041","4155","5504","6183","4105","5250","5800","4139","4992","5380","3943","4353","4517","DualSpot on"
"MA200-0420","53528","85","1","1.10","1.6","2023-08-26T13:00:00","120","2023/08/26","13:00:00","-15.787170052528381","35.03528432920575","0.1","11","300","64","97","-366","23516","-770","8","150","150.08","116.33","33.75","35.78","28.3","14.60","89184","36.00","DUALSPOT-UV-BLUE-GREEN-RED-IR","583352","625803","903311","24.610856","8.906361","0.017965","715473","834132","839363","16.964980","5.714112","0.021254","718698","820301","830395","14.424767","4.714322","0.022762","764008","841069","893001","11.451466","3.595703","0.024041","695550","846754","964188","7.341636","2.106941","0.023225","3282","4942","5884","3213","4415","5025","3164","4205","4711","3163","3987","4365","2885","3308","3478","DualSpot on"
"MA200-0420","53529","85","1","1.10","1.6","2023-08-26T13:05:00","120","2023/08/26","13:05:00","-15.787159979343414","35.03528682515025","0.0","11","300","64","97","-344","23500","-620","8","150","150.40","115.88","34.52","35.77","28.2","14.52","89176","35.94","DUALSPOT-UV-BLUE-GREEN-RED-IR","582593","627400","908291","25.292252","9.201607","0.016477","709446","829707","836645","17.490876","5.921698","0.018841","717960","821866","833411","14.888651","4.889821","0.019262","760117","838851","891850","11.831295","3.731421","0.019073","692965","845023","963000","7.593456","2.187619","0.012630","3453","5023","5921","3364","4458","5018","3323","4221","4660","3288","3944","4246","3035","3265","3357","DualSpot on"
"MA200-0420","53530","85","1","1.10","1.6","2023-08-26T13:10:00","120","2023/08/26","13:10:00","-15.787209212779999","35.03523015603423","0.1","11","300","64","97","-329","23587","-766","8","150","149.56","115.88","33.68","35.72","28.0","14.39","89168","35.94","DUALSPOT-UV-BLUE-GREEN-RED-IR","574871","621300","901955","25.924236","9.481266","0.017419","706427","828644","837249","17.984624","6.122333","0.020920","714942","820591","833499","15.321979","5.058545","0.021950","756285","836513","890539","12.188919","3.862119","0.022440","691005","843972","962552","7.826057","2.266809","0.024812","3203","4876","5841","3158","4415","5064","3104","4158","4677","3096","3892","4262","2804","3284","3479","DualSpot on"
"MA200-0420","53531","85","1","1.10","1.6","2023-08-26T13:15:00","120","2023/08/26","13:15:00","-15.787144482135773","35.03526949137449","0.0","12","300","64","97","-375","23604","-687","8","150","150.28","116.21","34.08","35.74","28.3","14.58","89164","35.94","DUALSPOT-UV-BLUE-GREEN-RED-IR","572173","620812","904075","26.630780","9.794193","0.016771","704308","828819","839231","18.525028","6.338397","0.019208","708954","816086","830474","15.795770","5.242560","0.020692","749817","831385","886360","12.579540","4.007183","0.022339","690662","844998","964563","8.083725","2.352703","0.019999","3571","5393","6453","3447","4700","5351","3385","4483","5028","3372","4270","4690","3097","3521","3694","DualSpot on"
"MA200-0420","53532","85","1","1.10","1.6","2023-08-26T13:20:00","120","2023/08/26","13:20:00","-15.787149310112","35.03530066087842","0.0","12","300","64","97","-332","23508","-652","8","150","150.71","116.18","34.53","35.80","28.3","14.59","89160","36.00","DUALSPOT-UV-BLUE-GREEN-RED-IR","568806","619688","905428","27.367042","10.125065","0.016385","701061","827746","840097","19.086464","6.569205","0.019326","706097","815219","831219","16.288174","5.436782","0.020222","747116","830530","886806","12.985315","4.157548","0.020516","689401","845018","965479","8.359493","2.444483","0.017332","3722","5628","6748","3582","4955","5676","3518","4670","5247","3504","4369","4776","3315","3713","3877","DualSpot on"
"MA200-0420","53533","85","1","1.10","1.6","2023-08-26T13:25:00","120","2023/08/26","13:25:00","-15.787160515785217","35.03530299291015","0.2","12","300","64","97","-320","23558","-708","8","150","150.67","116.39","34.28","35.86","28.3","14.67","89156","36.13","DUALSPOT-UV-BLUE-GREEN-RED-IR","567361","620510","909538","28.072868","10.444328","0.016401","694985","823207","837347","19.633506","6.793840","0.019158","705056","816386","833964","16.769152","5.625025","0.019742","748046","833656","891394","13.382133","4.305783","0.021187","689549","846711","968247","8.625706","2.533244","0.018267","3561","5470","6601","3484","4858","5585","3430","4559","5128","3420","4338","4774","3195","3617","3792","DualSpot on"
"MA200-0420","53534","85","1","1.10","1.6","2023-08-26T13:30:00","120","2023/08/26","13:30:00","-15.787140130996704","35.03526682406664","0.1","12","300","64","97","-325","23512","-779","8","150","149.65","115.65","34.00","35.95","28.1","14.66","89148","36.25","DUALSPOT-UV-BLUE-GREEN-RED-IR","559929","614840","904326","28.821006","10.787560","0.016397","692786","823438","839602","20.211026","7.033334","0.019122","699076","811915","831115","17.278470","5.829046","0.020472","741153","828078","886893","13.802681","4.464947","0.021605","685057","842758","964700","8.913342","2.631605","0.021104","3799","5929","7204","3701","5222","6033","3656","4982","5657","3648","4697","5198","3474","4041","4279","DualSpot on"
"MA200-0420","53535","85","1","1.10","1.6","2023-08-26T13:35:00","120","2023/08/26","13:35:00","-15.787199020385742","35.0352543219924","0.0","12","300","64","97","-491","23429","-712","8","150","150.02","116.26","33.77","36.01","28.1","14.67","89140","36.25","DUALSPOT-UV-BLUE-GREEN-RED-IR","555883","613003","904803","29.593368","11.138237","0.016035","689188","821933","840084","20.789012","7.272539","0.019011","699010","814356","835284","17.783702","6.029083","0.019939","737233","825885","885911","14.219122","4.620568","0.020959","682374","841041","963597","9.192169","2.723752","0.017816","3902","6099","7426","3685","5251","6094","3608","4918","5590","3593","4623","5119","3350","3812","4006","DualSpot on"
"MA200-0420","53536","85","1","1.10","1.6","2023-08-26T13:40:00","120","2023/08/26","13:40:00","-15.787174046039581","35.035288494080305","0.1","12","300","64","97","-333","23566","-729","8","150","150.62","115.71","34.92","36.04","28.1","14.72","89140","36.31","DUALSPOT-UV-BLUE-GREEN-RED-IR","552662","611922","906347","30.352096","11.487480","0.015093","685890","820725","840827","21.362114","7.513013","0.017598","692176","808801","831246","18.285488","6.231186","0.018418","735369","825885","887315","14.631390","4.778697","0.019618","680954","840821","964252","9.469982","2.818267","0.016218","3851","5875","7107","3671","5105","5883","3600","4805","5428","3574","4543","5013","3354","3781","3962","DualSpot on"
"MA200-0420","53537","85","1","1.10","1.6","2023-08-26T13:45:00","120","2023/08/26","13:45:00","-15.787135004997253","35.03530215844512","0.2","12","300","64","97","-341","23570","-733","8","150","149.96","116.07","33.89","36.17","28.0","14.79","89144","36.44","DUALSPOT-UV-BLUE-GREEN-RED-IR","546677","607608","903128","31.082726","11.837402","0.016353","680358","816630","838743","21.919824","7.757727","0.019961","687545","805644","829733","18.775360","6.438008","0.021529","735795","828397","891473","15.035673","4.942106","0.024207","681719","843263","968003","9.748867","2.918308","0.025219","3697","6064","7519","3562","5352","6333","3504","5066","5881","3494","4837","5494","3356","4123","4450","DualSpot on"
"MA200-0420","53538","85","1","1.10","1.6","2023-08-26T13:50:00","120","2023/08/26","13:50:00","-15.787191331386566","35.03524365648627","0.4","12","300","64","97","-291","23520","-754","8","150","150.71","116.18","34.53","36.13","27.6","14.49","89140","36.31","DUALSPOT-UV-BLUE-GREEN-RED-IR","545654","608458","907094","31.707840","12.136406","0.015669","674744","812078","835825","22.406632","7.971346","0.018976","686808","806791","832416","19.206036","6.620239","0.020447","731086","824832","888902","15.392096","5.081669","0.020895","678143","840131","965275","9.987831","3.002459","0.020938","3160","5086","6280","3106","4586","5404","3077","4381","5067","3077","4055","4537","2873","3404","3633","DualSpot on"
"MA200-0420","53539","85","1","1.10","1.6","2023-08-26T13:55:00","120","2023/08/26","13:55:00","-15.787218511104584","35.03530399128795","0.1","12","300","64","97","-316","23544","-676","8","150","150.34","116.27","34.07","36.12","27.4","14.39","89136","36.38","DUALSPOT-UV-BLUE-GREEN-RED-IR","543778","608299","909637","32.330414","12.441040","0.016123","672858","812057","837624","22.901430","8.190045","0.019290","685479","807308","834483","19.643786","6.805895","0.020686","730365","825839","891260","15.757309","5.228116","0.022554","678191","841547","967717","10.231876","3.091237","0.025119","3145","5251","6569","3154","4758","5651","3125","4523","5265","3151","4312","4888","2932","3639","3946","DualSpot on"
"MA200-0420","53540","85","1","1.10","1.6","2023-08-26T14:00:00","120","2023/08/26","14:00:00","-15.787388503551483","35.03524316102266","0.1","13","300","64","97","-287","23537","-654","8","150","149.87","115.67","34.21","36.18","28.1","14.83","89144","36.50","DUALSPOT-UV-BLUE-GREEN-RED-IR","536050","602535","904955","33.247372","12.876232","0.014942","670716","812471","840306","23.542090","8.461289","0.017100","678490","801634","830511","20.196588","7.030370","0.018023","722906","819621","886078","16.202454","5.399735","0.019314","672875","836532","962929","10.525730","3.192247","0.017954","4656","7472","9252","4106","5878","6872","3967","5448","6238","3861","5033","5619","3548","4125","4375","DualSpot on"
"MA200-0420","53541","85","1","1.10","1.6","2023-08-26T14:05:00","120","2023/08/26","14:05:00","-15.787132620811462","35.03527098894119","0.0","12","300","64","97","-350","23554","-754","8","150","149.74","115.67","34.07","36.19","27.7","14.63","89136","36.44","DUALSPOT-UV-BLUE-GREEN-RED-IR","534541","602866","908334","33.900988","13.195377","0.015294","664509","807254","836865","24.058702","8.691296","0.018484","677600","802748","833253","20.654970","7.224944","0.019569","723211","821871","889831","16.584427","5.551618","0.020785","673346","838551","966148","10.787857","3.284556","0.020343","3319","5501","6893","3311","5004","5962","3290","4741","5522","3313","4472","5055","3165","3784","4055","DualSpot on"
"MA200-0420","53542","85","1","1.10","1.6","2023-08-26T14:10:00","120","2023/08/26","14:10:00","-15.787221848964691","35.03528833016753","0.2","12","300","64","97","-366","23545","-641","8","150","149.81","115.21","34.59","36.18","27.6","14.53","89132","36.44","DUALSPOT-UV-BLUE-GREEN-RED-IR","528470","597936","903845","34.552264","13.520931","0.015109","662384","806908","838451","24.569728","8.924767","0.018327","676025","802916","835086","21.107130","7.422737","0.019585","722245","822614","892036","16.961554","5.706936","0.021166","672961","839404","968045","11.040661","3.377309","0.021945","3320","5527","6946","3288","5003","5981","3258","4746","5554","3284","4504","5123","3065","3745","4045","DualSpot on"
"MA200-0420","53543","85","1","1.10","1.6","2023-08-26T14:15:00","120","2023/08/26","14:15:00","-15.787170231342316","35.03528865799308","0.1","13","300","64","97","-333","23512","-637","8","150","149.47","115.54","33.93","36.22","27.6","14.60","89136","36.50","DUALSPOT-UV-BLUE-GREEN-RED-IR","524969","595819","903391","35.164812","13.825714","0.015175","659262","805295","838610","25.055102","9.142001","0.018045","672691","800931","834554","21.538612","7.606920","0.019138","713210","814061","884032","17.323266","5.853434","0.021022","666715","832899","961401","11.286594","3.467575","0.023485","3113","5276","6677","3114","4746","5684","3100","4506","5274","3140","4332","4939","2973","3716","4046","DualSpot on"
"MA200-0420","53544","85","1","1.10","1.6","2023-08-26T14:20:00","120","2023/08/26","14:20:00","-15.787109971046448","35.035293992608786","0.1","13","300","64","97","-379","23575","-679","8","150","150.07","116.05","34.02","36.27","27.7","14.68","89132","36.63","DUALSPOT-UV-BLUE-GREEN-RED-IR","520888","593244","902555","35.851856","14.166553","0.014887","655074","802444","837565","25.574780","9.373308","0.017597","669205","798854","834023","21.995122","7.802609","0.018978","716141","819218","890998","17.697648","6.005049","0.020685","668966","837075","967083","11.540180","3.558460","0.021103","3477","5884","7457","3319","5040","6036","3265","4775","5605","3236","4471","5105","3052","3732","4035","DualSpot on"
"MA200-0420","53545","85","1","1.10","1.6","2023-08-26T14:25:00","120","2023/08/26","14:25:00","-15.78715866804123","35.03527299314737","0.0","13","300","64","97","-325","23508","-712","8","150","150.28","116.07","34.20","36.42","28.5","15.28","89132","36.81","DUALSPOT-UV-BLUE-GREEN-RED-IR","516241","590109","900982","36.571372","14.524281","0.014566","650512","799273","836245","26.111664","9.611747","0.017052","665062","796067","832794","22.464710","8.002097","0.018113","710759","814991","887768","18.085298","6.157632","0.018653","664605","833134","963414","11.809532","3.647895","0.013129","3640","6143","7791","3428","5167","6180","3358","4842","5663","3350","4475","5056","3241","3652","3836","DualSpot on"
"MA200-0420","53546","85","1","1.10","1.6","2023-08-26T14:30:00","120","2023/08/26","14:30:00","-15.787187695503235","35.03525899350643","0.1","13","300","64","97","-350","23554","-725","8","150","149.32","115.48","33.83","36.54","29.0","15.63","89136","36.94","DUALSPOT-UV-BLUE-GREEN-RED-IR","513679","589449","903482","37.347784","14.912514","0.014473","648702","799572","838759","26.692086","9.872661","0.017190","662874","795774","834312","22.976636","8.220155","0.018020","710542","816797","891275","18.511402","6.328828","0.019484","664168","834222","965695","12.113468","3.753345","0.017388","3948","6739","8594","3726","5716","6885","3680","5350","6281","3701","5076","5790","3676","4353","4657","DualSpot on"
"MA200-0420","53547","85","1","1.10","1.6","2023-08-26T14:35:00","120","2023/08/26","14:35:00","-15.787106096744537","35.03528916090727","0.0","12","300","64","97","-320","23608","-629","8","150","150.28","115.60","34.68","36.61","28.8","15.59","89140","36.94","DUALSPOT-UV-BLUE-GREEN-RED-IR","510320","587663","904084","38.073368","15.281704","0.014122","645648","798146","839290","27.225242","10.116932","0.016759","660302","794816","834979","23.447384","8.425725","0.017728","708196","815974","891794","18.900942","6.488563","0.018967","662655","833770","966108","12.387062","3.850790","0.017253","3686","6253","7974","3419","5222","6288","3380","4921","5785","3380","4621","5269","3306","3925","4204","DualSpot on"
"MA200-0420","53548","85","1","1.10","1.6","2023-08-26T14:40:00","120","2023/08/26","14:40:00","-15.787169873714447","35.03526732698083","0.0","12","300","64","97","-366","23554","-833","8","150","149.94","115.92","34.03","36.63","28.9","15.66","89136","36.94","DUALSPOT-UV-BLUE-GREEN-RED-IR","507473","586206","904849","38.715140","15.614674","0.014532","643054","796980","839955","27.708188","10.341988","0.017462","657197","792894","834560","23.871726","8.614892","0.018766","705765","814870","891859","19.255690","6.635377","0.019980","660798","832766","965796","12.633808","3.940073","0.020000","3251","5747","7434","3088","4903","5983","3039","4615","5505","3070","4328","4990","2973","3665","3979","DualSpot on"
"MA200-0420","53549","85","1","1.10","1.6","2023-08-26T14:45:00","120","2023/08/26","14:45:00","-15.787130653858185","35.03530132770538","0.1","12","300","64","97","-345","23537","-741","8","150","150.08","115.40","34.68","36.58","28.8","15.58","89140","36.81","DUALSPOT-UV-BLUE-GREEN-RED-IR","505403","585440","906496","39.305992","15.926823","0.014256","636183","790381","834845","28.175556","10.564328","0.017129","651986","788408","831411","24.288132","8.803927","0.018312","699408","809139","886931","19.605550","6.784550","0.019914","656620","828759","962010","12.872780","4.029464","0.020408","3007","5286","6839","3002","4752","5802","2995","4525","5395","3041","4315","4989","2892","3600","3923","DualSpot on"
"MA200-0420","53550","85","1","1.10","1.6","2023-08-26T14:50:00","120","2023/08/26","14:50:00","-15.7871213555336","35.035284996032715","0.2","12","300","64","97","-412","23591","-683","8","150","149.60","115.92","33.69","36.60","28.7","15.53","89144","36.94","DUALSPOT-UV-BLUE-GREEN-RED-IR","502320","583404","906085","39.875748","16.230106","0.014640","637323","793685","840174","28.629798","10.782002","0.017816","649389","786987","831449","24.691886","8.989505","0.019347","696374","807213","886136","19.948084","6.931341","0.021110","654709","827564","961483","13.111374","4.120183","0.023659","2887","5288","6936","2905","4790","5929","2891","4573","5536","2964","4371","5121","2875","3762","4168","DualSpot on"
"MA200-0420","53551","85","1","1.10","1.6","2023-08-26T14:55:00","120","2023/08/26","14:55:00","-15.787115395069122","35.035319324582815","0.0","12","300","64","97","-324","23508","-740","8","150","150.60","115.80","34.81","36.59","28.7","15.50","89144","36.88","DUALSPOT-UV-BLUE-GREEN-RED-IR","500309","582545","907376","40.412164","16.517570","0.014098","631462","788129","836026","29.060582","10.988733","0.016849","647220","785996","831859","25.078582","9.167769","0.018218","695107","807269","887444","20.273456","7.071939","0.019826","657825","832707","968302","13.339806","4.204509","0.018734","2720","4851","6323","2757","4403","5403","2772","4252","5104","2819","4052","4713","2755","3384","3673","DualSpot on"
"MA200-0420","53552","85","1","1.10","1.6","2023-08-26T15:00:00","120","2023/08/26","15:00:00","-15.787124633789062","35.03529832884669","0.1","12","300","64","97","-300","23552","-656","8","150","150.28","115.80","34.48","36.39","28.5","15.25","89144","36.56","DUALSPOT-UV-BLUE-GREEN-RED-IR","496605","579642","905482","40.952532","16.812058","0.014280","631928","790458","840306","29.496050","11.207259","0.017799","643354","782920","830143","25.469488","9.352696","0.018924","692064","805202","886439","20.603460","7.216909","0.020506","652236","826677","962135","13.558689","4.293235","0.025510","2740","5016","6601","2787","4698","5869","2802","4452","5410","2859","4218","4950","2640","3594","4036","DualSpot on"
"MA200-0420","53553","85","1","1.10","1.6","2023-08-26T15:05:00","120","2023/08/26","15:05:00","-15.787218689918518","35.035288993269205","0.2","12","300","64","97","-376","23476","-564","8","150","149.65","115.80","33.85","36.30","28.9","15.40","89140","36.56","DUALSPOT-UV-BLUE-GREEN-RED-IR","494991","579141","907322","41.480256","17.099590","0.014349","625921","784686","835909","29.926764","11.412928","0.016909","642530","783559","832322","25.856722","9.531736","0.018549","691095","805529","888060","20.930410","7.359409","0.020594","652253","827817","964301","13.780266","4.379333","0.023633","2676","4989","6612","2757","4504","5581","2776","4391","5335","2832","4224","4978","2672","3553","3963","DualSpot on"
"MA200-0420","53554","85","1","1.10","1.6","2023-08-26T15:10:00","120","2023/08/26","15:10:00","-15.787127673625946","35.03530182316899","0.0","13","300","64","97","-366","23500","-641","8","150","150.29","115.87","34.42","36.19","28.8","15.25","89132","36.38","DUALSPOT-UV-BLUE-GREEN-RED-IR","492597","578099","908846","42.129040","17.447086","0.013725","623337","783645","837014","30.471306","11.678463","0.016734","640292","782879","833552","26.350880","9.762878","0.018112","689406","805556","889746","21.357710","7.544761","0.019470","651514","828425","966140","14.083843","4.498086","0.022559","3288","5930","7797","3483","5719","7108","3540","5575","6773","3699","5402","6333","3659","4819","5364","DualSpot on"
"MA200-0420","53555","85","1","1.10","1.6","2023-08-26T15:15:00","120","2023/08/26","15:15:00","-15.787070989608765","35.03531949222088","0.0","13","300","64","97","-354","23583","-733","8","150","150.30","115.18","35.11","36.09","29.1","15.30","89140","36.31","DUALSPOT-UV-BLUE-GREEN-RED-IR","487233","573634","905308","42.835100","17.834300","0.013491","621701","783749","839342","31.014334","11.941616","0.015783","635077","778495","830715","26.834330","9.985296","0.016687","684208","801293","886627","21.764926","7.721317","0.018174","647939","825303","963544","14.366600","4.606567","0.019186","3600","6477","8529","3494","5555","6846","3484","5258","6310","3546","5044","5868","3429","4315","4734","DualSpot on"
"MA200-0420","53556","85","1","1.10","1.6","2023-08-26T15:20:00","120","2023/08/26","15:20:00","-15.787141263484955","35.03524949029088","0.1","14","300","64","97","-379","23616","-683","8","150","150.15","115.80","34.35","36.02","29.4","15.38","89140","36.25","DUALSPOT-UV-BLUE-GREEN-RED-IR","484621","572079","906016","43.455432","18.181190","0.013887","619917","783368","840885","31.484564","12.175694","0.016678","632807","777434","831234","27.252668","10.183813","0.017949","681475","799663","886176","22.115802","7.875936","0.019439","646741","825002","964096","14.606407","4.701503","0.022619","3146","5931","7935","3010","5051","6339","2999","4798","5871","3040","4516","5332","2892","3860","4320","DualSpot on"
"MA200-0420","53557","85","1","1.10","1.6","2023-08-26T15:25:00","120","2023/08/26","15:25:00","-15.787179708480835","35.03528815880418","0.0","14","300","72","97","-375","23479","-491","8","150","150.15","115.50","34.64","35.94","29.2","15.22","89140","36.13","DUALSPOT-UV-BLUE-GREEN-RED-IR","483545","572269","909282","44.029288","18.505516","0.013718","613846","777377","836377","31.930106","12.403438","0.016761","632000","778037","833465","27.648328","10.376492","0.018067","591389","695238","771585","22.448316","8.026337","0.019670","643688","822189","961702","14.833458","4.792149","0.022139","2918","5498","7369","2859","4873","6152","2844","4617","5682","2888","4355","5171","2746","3655","4088","DualSpot on"
"MA200-0420","53558","85","1","1.10","1.6","2023-08-26T15:30:00","120","2023/08/26","15:30:00","-15.78717988729477","35.035283993929625","0.1","15","300","64","97","-332","23580","-712","8","150","149.90","115.61","34.28","35.82","29.0","15.02","89140","35.94","DUALSPOT-UV-BLUE-GREEN-RED-IR","480169","569727","908255","44.619424","18.839202","0.013689","610177","774425","835163","32.384198","12.637420","0.016905","628043","774769","831637","28.052416","10.577105","0.018528","677828","798312","887390","22.787076","8.181960","0.020250","644732","824691","965499","15.065041","4.885836","0.023249","2998","5716","7703","2911","5059","6433","2901","4858","6042","2939","4554","5458","2798","3817","4306","DualSpot on"
"MA200-0420","53559","85","1","1.10","1.6","2023-08-26T15:35:00","120","2023/08/26","15:35:00","-15.787066102027893","35.0353164896369","0.2","16","300","64","97","-260","23596","-708","8","150","149.85","115.19","34.66","35.64","29.3","15.01","89140","35.75","DUALSPOT-UV-BLUE-GREEN-RED-IR","475790","565903","905059","45.186136","19.161862","0.013450","609963","775912","838656","32.838212","12.868459","0.016202","628060","776405","835063","28.463932","10.775288","0.017268","674283","795633","885817","23.137002","8.341328","0.019255","642678","823205","964707","15.302185","4.983160","0.022912","2889","5468","7367","2921","4942","6243","2965","4747","5832","3047","4613","5496","2875","3922","4428","DualSpot on"
"MA200-0420","53560","85","1","1.10","1.6","2023-08-26T15:40:00","120","2023/08/26","15:40:00","-15.787101805210114","35.035301990807056","0.1","16","300","64","97","-388","23632","-768","8","150","149.69","115.24","34.45","35.52","29.8","15.18","89148","35.63","DUALSPOT-UV-BLUE-GREEN-RED-IR","474975","566403","908975","45.791060","19.506970","0.013384","604886","771228","835681","33.317718","13.112573","0.016116","623695","772727","832842","28.892724","10.984514","0.017480","674209","797138","888959","23.501474","8.505365","0.018813","639436","820262","962252","15.550125","5.084898","0.022924","3083","5884","7963","3084","5253","6661","3089","5042","6241","3172","4777","5687","3005","4125","4670","DualSpot on"
"MA200-0420","53561","85","1","1.10","1.6","2023-08-26T15:45:00","120","2023/08/26","15:45:00","-15.787136971950531","35.03528932854533","0.0","15","300","64","97","-333","23537","-654","8","150","149.96","115.31","34.65","35.40","29.9","15.15","89152","35.50","DUALSPOT-UV-BLUE-GREEN-RED-IR","470152","561894","904545","46.323944","19.818146","0.013437","604197","771938","838244","33.738648","13.332183","0.016273","622901","773213","834950","29.270978","11.173388","0.017662","669519","792944","885589","23.821104","8.653082","0.019226","640313","822426","965663","15.768238","5.175503","0.023007","2714","5275","7189","2706","4698","6000","2723","4525","5638","2780","4277","5130","2642","3652","4146","DualSpot on"
"MA200-0420","53562","85","1","1.10","1.6","2023-08-26T15:50:00","120","2023/08/26","15:50:00","-15.787149012088776","35.0353144928813","0.0","15","300","64","97","-500","23641","-258","8","150","150.21","115.54","34.67","35.26","30.1","15.10","89152","35.38","DUALSPOT-UV-BLUE-GREEN-RED-IR","469171","561926","907279","46.833640","20.114270","0.013267","603804","773021","841292","34.164320","13.553209","0.016029","618734","769486","832495","29.653126","11.363653","0.017422","670263","795250","889516","24.151908","8.805912","0.019014","637417","819773","963492","15.994209","5.270124","0.023194","2591","5016","6842","2731","4725","6037","2745","4555","5680","2872","4422","5311","2732","3812","4343","DualSpot on"
"MA200-0420","53563","85","1","1.10","1.6","2023-08-26T15:55:00","120","2023/08/26","15:55:00","-15.78713446855545","35.035295493900776","0.0","15","300","64","97","-300","23537","-912","8","150","150.15","115.40","34.74","35.09","30.2","15.02","89160","35.13","DUALSPOT-UV-BLUE-GREEN-RED-IR","466268","559662","906437","47.359856","20.423054","0.013203","600241","769973","839905","34.591764","13.782359","0.016327","615392","766806","831232","30.040652","11.559873","0.017499","667210","793043","888402","24.480958","8.960550","0.019175","635646","818546","962970","16.218746","5.364723","0.023042","2678","5220","7147","2745","4889","6308","2787","4688","5877","2860","4465","5391","2718","3803","4339","DualSpot on"
"MA200-0420","53564","85","1","1.10","1.6","2023-08-26T16:00:00","120","2023/08/26","16:00:00","-15.787147760391235","35.035288993269205","0.0","14","300","64","97","-366","23625","-795","8","150","150.08","115.46","34.62","34.92","30.6","15.07","89160","34.94","DUALSPOT-UV-BLUE-GREEN-RED-IR","464723","559004","908196","47.883688","20.733432","0.013210","594653","764367","835653","35.022580","14.007432","0.015789","614883","767655","833778","30.428430","11.756466","0.017403","668098","795493","892544","24.815786","9.117447","0.018970","636830","821154","966962","16.446762","5.461488","0.023310","2664","5265","7251","2766","4819","6187","2788","4714","5926","2909","4546","5497","2758","3904","4473","DualSpot on"
"MA200-0420","53565","85","1","1.10","1.6","2023-08-26T16:05:00","120","2023/08/26","16:05:00","-15.787091076374054","35.03532398864627","0.1","14","300","64","97","-325","23550","-766","8","150","149.60","115.34","34.26","34.78","30.7","15.02","89156","34.81","DUALSPOT-UV-BLUE-GREEN-RED-IR","459656","554301","903827","48.501152","21.096390","0.013071","593939","765347","839094","35.550652","14.289824","0.016096","609967","763299","831117","30.913290","12.003225","0.017412","662083","790094","888283","25.236390","9.316795","0.019240","633044","817719","964114","16.750496","5.591007","0.023594","3144","6221","8590","3394","6109","7934","3490","5978","7558","3658","5836","7111","3678","5280","6082","DualSpot on"
"MA200-0420","53566","85","1","1.10","1.6","2023-08-26T16:10:00","120","2023/08/26","16:10:00","-15.787134885787964","35.03527465835214","0.0","14","300","64","97","-324","23600","-784","8","150","149.67","114.88","34.79","34.65","30.6","14.87","89156","34.69","DUALSPOT-UV-BLUE-GREEN-RED-IR","458961","554605","907107","49.013268","21.404686","0.012994","588344","759606","834748","35.982296","14.523603","0.015824","608915","763423","832919","31.303312","12.206168","0.017274","661589","790876","890602","25.574744","9.480550","0.019056","633354","819243","966910","16.991112","5.693296","0.022239","2618","5205","7210","2785","4981","6468","2818","4843","6137","2954","4722","5763","2925","4107","4703","DualSpot on"
"MA200-0420","53567","85","1","1.10","1.6","2023-08-26T16:15:00","120","2023/08/26","16:15:00","-15.787121653556824","35.035279992967844","0.0","14","300","64","97","-344","23572","-880","8","150","149.56","115.28","34.28","34.47","30.8","14.78","89148","34.44","DUALSPOT-UV-BLUE-GREEN-RED-IR","454441","550858","905306","49.803076","21.883480","0.013042","589101","762677","840775","36.562896","14.834037","0.015678","605505","761060","832534","31.815618","12.466675","0.016932","658726","789250","890601","26.003820","9.683289","0.018620","631788","818567","967299","17.276070","5.812408","0.021967","4024","8204","11481","3733","6713","8748","3689","6309","7998","3734","5934","7239","3452","4854","5564","DualSpot on"
"MA200-0420","53568","85","1","1.10","1.6","2023-08-26T16:20:00","120","2023/08/26","16:20:00","-15.787180840969086","35.03525833040476","0.0","14","300","64","98","-316","23579","-845","8","150","150.15","115.01","35.14","34.29","31.1","14.78","89152","34.31","DUALSPOT-UV-BLUE-GREEN-RED-IR","451574","549305","907745","50.700980","22.431358","0.012649","582381","756197","836484","37.202604","15.177936","0.015105","603368","760450","834270","32.377472","12.752208","0.016138","657526","789747","893077","26.466736","9.899946","0.017355","628035","815150","964466","17.584130","5.941650","0.020496","4585","9157","12785","4123","7255","9413","4056","6746","8494","4038","6185","7469","3741","5137","5850","DualSpot on"
"MA200-0420","53569","85","1","1.10","1.6","2023-08-26T16:25:00","120","2023/08/26","16:25:00","-15.787151515483856","35.03526532277465","0.0","14","300","68","97","-329","23570","-950","9","150","149.63","116.23","33.39","34.07","31.1","14.60","89156","34.06","DUALSPOT-UV-BLUE-GREEN-RED-IR","772509","691329","906545","0.000000","0.000000","0.000000","863223","884045","836875","0.000000","0.000000","0.000000","846755","863685","831438","0.000000","0.000000","0.000000","864601","868321","886988","0.000000","0.000000","0.000000","758383","865607","964318","0.000000","0.000000","0.000000","","","","","","","","","","","","","","","","Tape advance-DualSpot on"
"MA200-0420","53570","85","1","1.10","1.6","2023-08-26T16:30:00","120","2023/08/26","16:30:00","-15.787152171134949","35.03528232127428","0.1","14","300","68","97","-341","23579","-812","9","150","149.95","116.11","33.84","33.86","31.3","14.53","89172","33.88","DUALSPOT-UV-BLUE-GREEN-RED-IR","753295","686380","907421","0.000000","0.000000","0.000000","852598","881530","837938","0.000000","0.000000","0.000000","838679","861871","832359","0.000000","0.000000","0.000000","858042","866428","887090","0.000000","0.000000","0.000000","756393","865816","965645","0.000000","0.000000","0.000000","","","","","","","","","","","","","","","","Tape advance-DualSpot on"
"MA200-0420","53571","85","1","1.10","1.6","2023-08-26T16:35:00","120","2023/08/26","16:35:00","-15.787201344966888","35.03523399308324","0.1","14","300","64","97","-375","23545","-770","9","150","149.76","115.84","33.92","33.66","31.5","14.46","89172","33.63","DUALSPOT-UV-BLUE-GREEN-RED-IR","739042","681706","906388","1.802772","0.571495","0.000000","842688","877979","837458","1.113855","0.345033","0.000000","831060","859377","832274","0.905550","0.278830","0.000000","853745","866117","888525","0.669122","0.202112","0.000000","754705","866119","966986","0.364685","0.106882","0.000000","9141","9896","9141","7128","7540","7128","6490","6824","6490","5795","5978","5795","4397","4401","4397","DualSpot on"
"MA200-0420","53572","85","1","1.10","1.6","2023-08-26T16:40:00","120","2023/08/26","16:40:00","-15.787132322788239","35.03526732698083","0.1","14","300","64","98","-320","23536","-688","9","150","149.89","115.60","34.29","33.45","31.7","14.37","89160","33.38","DUALSPOT-UV-BLUE-GREEN-RED-IR","728064","678180","905984","3.255300","1.040140","0.035109","834690","875424","837600","2.081754","0.648784","0.000000","824111","857010","832113","1.719707","0.532519","0.000000","848028","864085","888160","1.297363","0.392566","0.000000","753097","866495","968508","0.733928","0.214733","0.000000","7380","8028","8332","6207","6567","6207","5847","6142","5847","5452","5572","5452","4462","4394","4462","DualSpot on"
"MA200-0420","53573","85","1","1.10","1.6","2023-08-26T16:45:00","120","2023/08/26","16:45:00","-15.787109315395355","35.03527782484889","0.0","14","300","64","97","-375","23600","-816","9","150","150.41","115.88","34.53","33.22","31.9","14.26","89168","33.13","DUALSPOT-UV-BLUE-GREEN-RED-IR","719691","675659","906170","4.442251","1.439661","0.036197","827331","872597","837110","2.912987","0.919699","0.000000","818742","855489","832504","2.425791","0.760233","0.000000","843280","862511","888064","1.850525","0.566700","0.000000","746655","861087","963382","1.059661","0.312777","0.000000","6016","6795","7169","5317","5816","5317","5058","5474","5058","4789","5059","4789","3926","3966","3926","DualSpot on"
"MA200-0420","53574","85","1","1.10","1.6","2023-08-26T16:50:00","120","2023/08/26","16:50:00","-15.787181317806244","35.035241827368736","0.1","14","300","64","97","-400","23588","-800","9","150","149.81","115.54","34.26","32.93","32.0","14.04","89164","32.81","DUALSPOT-UV-BLUE-GREEN-RED-IR","708878","671724","905100","5.836130","1.901723","0.025506","818390","869152","836610","3.937833","1.252383","0.030967","811649","853116","832545","3.299177","1.041221","0.033467","838011","861190","888640","2.537673","0.782349","0.000000","744704","861324","964833","1.477565","0.440210","0.000000","7085","7921","8324","6575","7198","7488","6275","6808","7054","5966","6314","5966","5052","5195","5052","DualSpot on"
"MA200-0420","53575","85","1","1.10","1.6","2023-08-26T16:55:00","120","2023/08/26","16:55:00","-15.787144839763641","35.035279992967844","0.1","14","300","64","98","-370","23575","-950","9","150","150.54","115.84","34.70","32.62","32.2","13.86","89172","32.44","DUALSPOT-UV-BLUE-GREEN-RED-IR","700941","669146","905099","6.966257","2.292141","0.026685","811844","867010","836808","4.768129","1.525563","0.026487","805186","850432","831836","4.015619","1.274412","0.028011","832299","858669","887623","3.108181","0.961551","0.021130","742597","860931","965451","1.818695","0.545948","0.000000","5730","6608","7038","5313","5836","6081","5134","5579","5785","4941","5181","5288","4113","4256","4113","DualSpot on"
"MA200-0420","53576","85","1","1.10","1.6","2023-08-26T17:00:00","120","2023/08/26","17:00:00","-15.787144005298615","35.03528065606952","0.0","14","300","64","97","-370","23516","-566","9","150","149.89","115.76","34.13","32.37","32.6","13.86","89180","32.19","DUALSPOT-UV-BLUE-GREEN-RED-IR","692939","666103","904512","8.047775","2.682216","0.031179","805087","864317","836530","5.572019","1.804602","0.037290","800549","849365","832775","4.709490","1.511478","0.040251","829091","858519","889105","3.661535","1.142655","0.037673","741949","862089","967783","2.152246","0.652560","0.000000","5487","6713","7325","5148","6061","6498","4976","5766","6140","4795","5323","5563","4025","4363","4025","DualSpot on"
"MA200-0420","53577","85","1","1.10","1.6","2023-08-26T17:05:00","120","2023/08/26","17:05:00","-15.787131488323212","35.0352993234992","0.2","14","300","64","97","-362","23629","-812","9","150","150.54","116.07","34.46","32.14","33.0","13.86","89188","32.00","DUALSPOT-UV-BLUE-GREEN-RED-IR","685449","663438","904416","9.122196","3.070690","0.027090","798906","862216","836853","6.378190","2.083981","0.031186","794760","847139","832592","5.408108","1.749032","0.032676","824128","856619","888766","4.222069","1.327056","0.032223","735424","856521","962537","2.490631","0.759435","0.000000","5436","6620","7221","5148","6009","6427","4996","5722","6069","4844","5368","5607","4072","4332","4072","DualSpot on"
"MA200-0420","53578","85","1","1.10","1.6","2023-08-26T17:10:00","120","2023/08/26","17:10:00","-15.787146806716919","35.035319823771715","0.0","14","300","64","98","-388","23536","-932","9","150","150.40","115.88","34.52","31.89","33.3","13.76","89200","31.69","DUALSPOT-UV-BLUE-GREEN-RED-IR","679624","662669","907127","10.273085","3.486692","0.023770","795406","863350","840474","7.245758","2.383214","0.026283","786927","842992","830653","6.163275","2.005177","0.027663","817218","852901","886660","4.831726","1.526816","0.026389","736639","860173","967826","2.870601","0.877458","0.000000","5833","7078","7718","5550","6426","6855","5410","6160","6522","5278","5806","6049","4580","4776","4580","DualSpot on"
"MA200-0420","53579","85","1","1.10","1.6","2023-08-26T17:15:00","120","2023/08/26","17:15:00","-15.787119686603546","35.03529915958643","0.1","14","300","64","97","-440","23612","-936","9","150","149.95","115.68","34.27","31.64","33.5","13.64","89192","31.44","DUALSPOT-UV-BLUE-GREEN-RED-IR","670640","658885","905946","11.468874","3.928932","0.023901","786741","858987","838924","8.157351","2.706009","0.027710","784342","844599","834511","6.956887","2.282011","0.030019","815637","854920","890705","5.475109","1.742473","0.029505","728668","853202","961208","3.274509","1.006997","0.032504","6071","7579","8364","5841","6982","7548","5695","6706","7199","5580","6312","6655","4877","5279","5458","DualSpot on"
"MA200-0420","53580","85","1","1.10","1.6","2023-08-26T17:20:00","120","2023/08/26","17:20:00","-15.787181973457336","35.035311326384544","0.1","14","300","64","97","-336","23540","-888","9","150","149.95","115.48","34.47","31.37","33.8","13.54","89188","31.13","DUALSPOT-UV-BLUE-GREEN-RED-IR","664533","657958","908852","12.712696","4.390075","0.021234","776709","853228","836119","9.104987","3.041673","0.024046","776918","841145","833496","7.785923","2.569544","0.025001","810278","853142","890827","6.150107","1.967084","0.023481","730574","857937","967865","3.700378","1.142339","0.023127","6326","7857","8665","6083","7218","7788","5960","6925","7400","5864","6537","6854","5151","5484","5633","DualSpot on"
"MA200-0420","53581","85","1","1.10","1.6","2023-08-26T17:25:00","120","2023/08/26","17:25:00","-15.7871373295784","35.03530699014664","0.1","15","300","64","97","-362","23637","-987","9","150","150.02","115.64","34.38","31.05","34.1","13.38","89196","30.75","DUALSPOT-UV-BLUE-GREEN-RED-IR","653546","652620","906043","14.068157","4.891578","0.019384","772512","854338","840232","10.138689","3.404057","0.020960","767471","835859","830861","8.691726","2.880311","0.021547","800826","847400","886990","6.892277","2.210691","0.019285","725472","854767","965695","4.177271","1.289204","0.011826","6884","8568","9466","6626","7814","8415","6503","7505","8001","6439","7109","7426","5761","5967","6060","DualSpot on"
"MA200-0420","53582","85","1","1.10","1.6","2023-08-26T17:30:00","120","2023/08/26","17:30:00","-15.787104606628418","35.035292495042086","0.1","14","300","64","97","-400","23540","-756","9","150","150.00","115.74","34.26","30.70","34.4","13.23","89192","30.38","DUALSPOT-UV-BLUE-GREEN-RED-IR","646480","649805","905812","15.132401","5.302322","0.021057","760455","845300","833766","10.945071","3.698981","0.023975","762635","834326","831413","9.399062","3.133887","0.025586","797290","846845","888163","7.469662","2.407412","0.024391","720348","850776","962302","4.536220","1.405444","0.026416","5400","7041","7926","5164","6381","7002","5073","6144","6680","5004","5760","6119","4332","4739","4922","DualSpot on"
"MA200-0420","53583","85","1","1.10","1.6","2023-08-26T17:35:00","120","2023/08/26","17:35:00","-15.787188649177551","35.03525732457638","0.1","14","300","64","98","-391","23591","-925","9","150","149.32","115.72","33.60","30.36","34.8","13.08","89188","30.00","DUALSPOT-UV-BLUE-GREEN-RED-IR","637848","645302","903267","16.194458","5.715469","0.021262","758712","847706","838682","11.760431","4.000735","0.024992","755969","830839","830122","10.113388","3.391152","0.026266","790698","843111","886013","8.054072","2.609519","0.027366","717591","849603","962122","4.899605","1.524962","0.032993","5390","7222","8221","5223","6658","7397","5125","6357","6978","5066","6035","6499","4386","4969","5232","DualSpot on"
"MA200-0420","53584","85","1","1.10","1.6","2023-08-26T17:40:00","120","2023/08/26","17:40:00","-15.787212371826172","35.035293992608786","0.1","13","300","64","97","-391","23562","-858","9","150","150.08","115.99","34.09","30.03","35.1","12.95","89200","29.69","DUALSPOT-UV-BLUE-GREEN-RED-IR","633696","645346","907298","17.289512","6.149647","0.020329","749734","842082","835728","12.598864","4.313982","0.023185","753286","831769","833262","10.849912","3.661534","0.025193","789402","845049","889913","8.658672","2.818210","0.023746","718322","852647","966781","5.281194","1.650588","0.028198","5545","7481","8550","5358","6812","7569","5271","6585","7254","5229","6142","6582","4595","5148","5399","DualSpot on"
"MA200-0420","53585","85","1","1.10","1.6","2023-08-26T17:45:00","120","2023/08/26","17:45:00","-15.78719699382782","35.035298991948366","0.1","13","300","64","98","-362","23575","-804","9","150","149.38","115.48","33.90","29.70","35.5","12.82","89200","29.31","DUALSPOT-UV-BLUE-GREEN-RED-IR","624662","640206","903923","18.360524","6.581424","0.020042","747293","843585","839826","13.413102","4.621929","0.022788","746244","827741","831404","11.566467","3.924754","0.023839","782530","840891","887350","9.245456","3.023189","0.023827","715443","851324","966469","5.653908","1.773404","0.026818","5447","7482","8618","5227","6735","7528","5151","6447","7112","5097","6067","6538","4508","5061","5314","DualSpot on"
"MA200-0420","53586","85","1","1.10","1.6","2023-08-26T17:50:00","120","2023/08/26","17:50:00","-15.787171065807343","35.03528616204858","0.0","13","300","64","97","-356","23592","-988","9","150","149.82","115.92","33.91","29.39","35.9","12.70","89200","29.06","DUALSPOT-UV-BLUE-GREEN-RED-IR","620954","640473","908268","19.429256","7.014835","0.019397","739008","838494","837368","14.235790","4.935366","0.022233","743925","828899","834807","12.289266","4.193530","0.023736","782940","844580","893139","9.843907","3.235180","0.024296","712578","850063","966259","6.033491","1.901669","0.030629","5415","7508","8690","5261","6853","7697","5176","6581","7308","5179","6272","6808","4574","5284","5611","DualSpot on"
"MA200-0420","53587","85","1","1.10","1.6","2023-08-26T17:55:00","120","2023/08/26","17:55:00","-15.787217020988464","35.03528432920575","0.0","13","300","64","97","-380","23616","-928","9","150","150.15","115.88","34.27","29.13","36.2","12.61","89212","28.81","DUALSPOT-UV-BLUE-GREEN-RED-IR","612375","636215","906804","20.654480","7.522117","0.018695","730418","833705","835749","15.207885","5.313806","0.021511","736711","825316","833966","13.157229","4.524359","0.023227","776274","841312","892050","10.572683","3.500654","0.024332","709479","849145","966902","6.528150","2.072376","0.030090","6210","8694","10116","6219","8186","9242","6218","8014","8955","6309","7771","8495","5963","6958","7421","DualSpot on"
"MA200-0420","53588","85","1","1.10","1.6","2023-08-26T18:00:00","120","2023/08/26","18:00:00","-15.787142992019653","35.035281989723444","0.0","12","300","64","98","-395","23575","-945","9","150","150.47","116.07","34.40","28.88","36.5","12.53","89224","28.56","DUALSPOT-UV-BLUE-GREEN-RED-IR","605397","632666","905673","21.685638","7.958118","0.018569","724524","830900","835524","15.993787","5.622673","0.020924","731984","823557","834377","13.851705","4.788317","0.021772","772122","839870","892370","11.149197","3.708176","0.021826","707937","849351","968391","6.904651","2.202278","0.028139","5217","7444","8735","5019","6656","7543","4967","6370","7112","4983","6052","6585","4531","5275","5623","DualSpot on"
"MA200-0420","53589","85","1","1.10","1.6","2023-08-26T18:05:00","120","2023/08/26","18:05:00","-15.787155985832214","35.03530116006732","0.1","14","300","64","98","-437","23587","-845","9","150","149.85","115.64","34.20","28.68","36.9","12.49","89224","28.31","DUALSPOT-UV-BLUE-GREEN-RED-IR","599153","629604","904978","22.640350","8.367210","0.018366","724442","834459","841508","16.718103","5.912997","0.021213","727618","821866","834710","14.488955","5.034690","0.022089","762506","832182","885899","11.675377","3.900077","0.022203","702152","844281","963712","7.243698","2.318289","0.025877","4849","7025","8300","4643","6292","7194","4575","5980","6728","4565","5628","6162","4095","4738","5040","DualSpot on"
"MA200-0420","53590","85","1","1.10","1.6","2023-08-26T18:10:00","120","2023/08/26","18:10:00","-15.78715318441391","35.035297494381666","0.1","14","300","64","97","-337","23558","-1054","9","150","150.54","116.15","34.38","28.46","37.1","12.40","89236","28.13","DUALSPOT-UV-BLUE-GREEN-RED-IR","594145","628024","906792","23.681144","8.818531","0.017967","714629","826960","836556","17.493476","6.223373","0.020205","719181","815685","830633","15.170689","5.300280","0.021549","759529","831912","887448","12.239055","4.106612","0.021529","701286","845281","966086","7.611332","2.444667","0.025216","5263","7709","9160","4948","6691","7654","4872","6412","7239","4868","6026","6610","4421","5134","5471","DualSpot on"
"MA200-0420","53591","85","1","1.10","1.6","2023-08-26T18:15:00","120","2023/08/26","18:15:00","-15.787192046642303","35.03530032560229","0.0","13","300","64","98","-358","23550","-908","9","150","149.69","115.99","33.70","28.28","37.4","12.36","89248","27.94","DUALSPOT-UV-BLUE-GREEN-RED-IR","588304","625826","908163","24.823596","9.317818","0.017997","709637","825379","837858","18.350816","6.570091","0.020664","715194","814908","832307","15.926339","5.596036","0.021896","756240","831604","889150","12.865555","4.337929","0.022556","695703","840873","962402","8.027992","2.584973","0.023683","5785","8703","10456","5479","7627","8826","5408","7287","8304","5418","6887","7634","5017","5816","6195","DualSpot on"
"MA200-0420","53592","85","1","1.10","1.6","2023-08-26T18:20:00","120","2023/08/26","18:20:00","-15.787122964859009","35.03531898930669","0.2","13","300","64","98","-341","23595","-954","9","150","150.27","116.26","34.02","28.10","37.6","12.30","89248","27.75","DUALSPOT-UV-BLUE-GREEN-RED-IR","582469","623685","909700","25.982026","9.829395","0.017332","704258","823351","838729","19.208772","6.918489","0.019648","710617","813446","833304","16.681276","5.892351","0.020713","752977","831288","890892","13.491617","4.569119","0.021036","694359","841585","964548","8.441551","2.725066","0.022381","5852","8833","10647","5470","7592","8787","5391","7232","8237","5402","6818","7543","4969","5753","6126","DualSpot on"
"MA200-0420","53593","85","1","1.10","1.6","2023-08-26T18:25:00","120","2023/08/26","18:25:00","-15.787173628807068","35.03532215580344","0.2","13","300","64","97","-300","23645","-895","9","150","149.76","115.60","34.16","27.93","37.9","12.26","89260","27.63","DUALSPOT-UV-BLUE-GREEN-RED-IR","571178","616136","903849","27.296116","10.403198","0.015962","698338","821306","839966","20.204848","7.318285","0.017806","705659","812104","834789","17.563000","6.233918","0.018525","749046","830803","892779","14.227722","4.837277","0.018334","692565","842227","966922","8.945156","2.894199","0.018787","6676","9867","11831","6387","8677","9977","6332","8302","9386","6388","7876","8643","6085","6917","7315","DualSpot on"
"MA200-0420","53594","85","1","1.10","1.6","2023-08-26T18:30:00","120","2023/08/26","18:30:00","-15.787163615226746","35.03530215844512","0.1","13","300","64","97","-387","23541","-891","9","150","149.93","116.13","33.80","27.79","38.2","12.23","89264","27.50","DUALSPOT-UV-BLUE-GREEN-RED-IR","565263","613722","905165","28.484016","10.941101","0.016655","687726","812946","834479","21.079778","7.683166","0.019222","696802","805673","830708","18.332374","6.543194","0.020301","739403","823413","886981","14.867947","5.080500","0.021312","686431","837116","962463","9.374695","3.040479","0.021456","6008","9347","11430","5585","8003","9389","5500","7596","8760","5530","7219","8096","5166","6045","6467","DualSpot on"
"MA200-0420","53595","85","1","1.10","1.6","2023-08-26T18:35:00","120","2023/08/26","18:35:00","-15.787134349346161","35.03528416156769","0.0","13","300","64","97","-372","23604","-988","9","150","149.90","115.92","33.98","27.64","38.4","12.20","89260","27.38","DUALSPOT-UV-BLUE-GREEN-RED-IR","557829","609132","902813","29.552834","11.434464","0.016370","686674","815508","839923","21.884304","8.019804","0.018406","694691","806622","834072","19.045036","6.830303","0.019348","738707","825661","891418","15.462706","5.305602","0.019855","687394","840464","967677","9.776134","3.178465","0.020822","5415","8527","10491","5145","7343","8615","5104","7014","8082","5147","6645","7428","4837","5672","6074","DualSpot on"
"MA200-0420","53596","85","1","1.10","1.6","2023-08-26T18:40:00","120","2023/08/26","18:40:00","-15.787141561508179","35.03528632596135","0.1","12","300","64","97","-456","23632","-971","9","150","149.71","115.80","33.91","27.52","38.6","12.18","89264","27.25","DUALSPOT-UV-BLUE-GREEN-RED-IR","553261","607428","904597","30.568944","11.914280","0.016389","677566","808213","835241","22.664154","8.356926","0.018975","687063","800982","830619","19.736310","7.117323","0.020029","729965","818808","885991","16.043648","5.532476","0.021034","681897","835908","963734","10.170280","3.316108","0.021857","5153","8311","10328","4992","7370","8759","4956","7027","8195","5033","6712","7596","4754","5670","6113","DualSpot on"
"MA200-0420","53597","85","1","1.10","1.6","2023-08-26T18:45:00","120","2023/08/26","18:45:00","-15.787109136581421","35.03535966202617","0.0","12","300","64","98","-396","23544","-1012","9","150","150.21","116.15","34.06","27.42","38.8","12.16","89264","27.13","DUALSPOT-UV-BLUE-GREEN-RED-IR","547041","603637","903088","31.535060","12.373436","0.016025","676643","810573","840352","23.405582","8.678144","0.018433","686045","802907","834900","20.396868","7.392637","0.019509","731003","822717","892181","16.598549","5.748463","0.020106","678939","834340","963199","10.550503","3.448986","0.021019","4885","7918","9876","4732","6991","8322","4721","6711","7842","4793","6362","7193","4572","5449","5875","DualSpot on"
"MA200-0420","53598","85","1","1.10","1.6","2023-08-26T18:50:00","120","2023/08/26","18:50:00","-15.787209391593933","35.03527832776308","0.0","12","300","64","97","-387","23579","-941","9","150","149.97","115.95","34.02","27.36","38.9","12.15","89264","27.06","DUALSPOT-UV-BLUE-GREEN-RED-IR","544432","603384","906452","32.387336","12.781742","0.015784","669364","804861","836850","24.072466","8.968690","0.018114","679763","798267","832157","20.992942","7.642984","0.019260","724544","817968","888780","17.102504","5.946383","0.019985","674536","830838","960306","10.900917","3.570394","0.019458","4317","7050","8832","4263","6332","7560","4267","6110","7164","4360","5837","6624","4221","4985","5358","DualSpot on"
"MA200-0420","53599","85","1","1.10","1.6","2023-08-26T18:55:00","120","2023/08/26","18:55:00","-15.787133514881134","35.035298991948366","0.1","12","300","64","98","-324","23604","-980","9","150","150.02","115.95","34.06","27.29","39.0","12.11","89272","27.06","DUALSPOT-UV-BLUE-GREEN-RED-IR","539087","600231","905582","33.278500","13.214302","0.015617","664662","802323","836856","24.782628","9.284658","0.018216","675170","795764","831848","21.629138","7.914056","0.019204","720530","816081","888653","17.646306","6.164318","0.020340","676157","834891","966286","11.281216","3.704712","0.020525","4514","7459","9398","4540","6876","8276","4555","6607","7791","4705","6419","7339","4581","5508","5962","DualSpot on"
"MA200-0420","53600","85","1","1.10","1.6","2023-08-26T19:00:00","120","2023/08/26","19:00:00","-15.787160277366638","35.0353076569736","0.2","12","300","64","97","-400","23662","-879","9","150","150.15","115.95","34.19","27.21","39.0","12.06","89272","26.94","DUALSPOT-UV-BLUE-GREEN-RED-IR","533218","596313","903593","34.150960","13.646427","0.015547","663158","803529","840692","25.464406","9.591364","0.017963","670026","792477","830557","22.238952","8.175933","0.018846","715078","812374","886463","18.160240","6.370620","0.019686","672845","832692","964990","11.638531","3.832955","0.021011","4419","7422","9421","4358","6649","8033","4366","6358","7516","4446","6053","6921","4304","5239","5698","DualSpot on"
"MA200-0420","53601","85","1","1.10","1.6","2023-08-26T19:05:00","120","2023/08/26","19:05:00","-15.78716266155243","35.035281989723444","0.1","12","300","64","97","-400","23604","-837","9","150","149.53","115.83","33.70","27.14","39.1","12.04","89276","26.88","DUALSPOT-UV-BLUE-GREEN-RED-IR","531057","596575","908021","35.043204","14.091015","0.015518","656762","798754","838278","26.147416","9.901528","0.018145","668775","793720","834095","22.849370","8.442757","0.019409","715304","815147","891338","18.677038","6.580827","0.020382","669363","830280","963420","11.993965","3.960971","0.021858","4524","7748","9917","4371","6823","8317","4375","6573","7861","4476","6258","7227","4286","5306","5809","DualSpot on"
"MA200-0420","53602","85","1","1.10","1.6","2023-08-26T19:10:00","120","2023/08/26","19:10:00","-15.787151992321014","35.03528916090727","0.1","12","300","64","89","-408","23583","-604","9","150","149.53","115.71","33.82","26.67","39.6","11.78","89276","25.38","DUALSPOT-UV-BLUE-GREEN-RED-IR","524877","592303","905626","35.950136","14.543983","0.015115","650837","794539","836499","26.838518","10.217350","0.017748","663876","790629","833081","23.464870","8.711826","0.018783","709594","811085","888792","19.194400","6.795516","0.020514","667075","829304","963549","12.349792","4.091717","0.022480","4603","7865","10082","4427","6921","8455","4416","6604","7896","4485","6368","7399","4295","5399","5946","DualSpot on"
"MA200-0420","53603","85","1","1.10","1.6","2023-08-26T19:15:00","120","2023/08/26","19:15:00","-15.787134051322937","35.03528616204858","0.1","13","300","64","88","-325","23675","-920","9","150","149.91","115.88","34.03","26.28","40.0","11.61","0","0.00","DUALSPOT-UV-BLUE-GREEN-RED-IR","519119","589010","905316","37.008672","15.065052","0.014398","644610","790746","835830","27.705340","10.608317","0.016777","658655","787936","833145","24.251702","9.055539","0.018044","705629","809863","890016","19.878626","7.075654","0.019101","665179","829496","965565","12.835190","4.273599","0.022803","5365","8994","11485","5545","8517","10361","5637","8385","10023","5923","8259","9550","5851","7466","8272","DualSpot on"
"MA200-0420","53604","85","1","1.10","1.6","2023-08-26T19:20:00","120","2023/08/26","19:20:00","-15.787158846855164","35.035288993269205","0.0","14","300","64","87","-395","23570","-954","9","150","149.65","115.65","34.00","25.96","40.5","11.52","0","0.00","DUALSPOT-UV-BLUE-GREEN-RED-IR","516489","588919","909649","38.002912","15.558746","0.014170","642356","791543","839738","28.538282","10.984086","0.016294","652326","783700","831345","25.012632","9.384390","0.017166","698823","805210","887193","20.541910","7.341987","0.017664","661290","827075","964393","13.308868","4.448251","0.020767","5049","8529","10941","5339","8193","9980","5462","8030","9572","5754","7859","9030","5721","7176","7906","DualSpot on"
"MA200-0420","53605","85","1","1.10","1.6","2023-08-26T19:25:00","120","2023/08/26","19:25:00","-15.787138283252716","35.03528565913439","0.1","14","300","64","86","-376","23620","-1240","9","150","149.44","116.27","33.17","25.69","41.1","11.47","89280","24.38","DUALSPOT-UV-BLUE-GREEN-RED-IR","512393","586550","909825","38.823080","15.985748","0.015038","638200","789179","839870","29.199856","11.295067","0.017595","648841","782075","831891","25.612246","9.655780","0.018936","695816","804124","887943","21.057612","7.558330","0.020105","660574","827990","966794","13.665531","4.584161","0.024568","4143","7562","9955","4218","6951","8675","4281","6793","8313","4449","6544","7717","4285","5724","6450","DualSpot on"
"MA200-0420","53606","85","1","1.10","1.6","2023-08-26T19:30:00","120","2023/08/26","19:30:00","-15.78715854883194","35.03528715670109","0.1","14","300","64","85","-429","23570","-1045","9","150","149.32","115.52","33.80","25.47","41.5","11.44","0","0.00","DUALSPOT-UV-BLUE-GREEN-RED-IR","507388","583608","909949","39.819036","16.500805","0.014247","633431","786680","840398","30.012782","11.675225","0.016488","644327","779812","832219","26.351382","9.986906","0.017498","691470","802095","888044","21.700110","7.825623","0.018324","654350","822538","962072","14.126629","4.754978","0.020277","5063","8951","11702","5216","8339","10327","5312","8134","9857","5579","7935","9263","5575","7060","7814","DualSpot on"
"MA200-0420","53607","85","1","1.10","1.6","2023-08-26T19:35:00","120","2023/08/26","19:35:00","-15.787223637104034","35.03524532541633","0.0","14","300","64","84","-370","23558","-1083","9","150","149.76","115.72","34.04","25.27","41.9","11.40","0","0.00","DUALSPOT-UV-BLUE-GREEN-RED-IR","503692","581620","910856","40.645496","16.937718","0.014208","629772","784915","841228","30.689608","11.997565","0.016425","640602","777938","832568","26.968624","10.268026","0.017414","688440","801065","888942","22.237862","8.052143","0.018159","652849","822711","963622","14.513802","4.899960","0.020112","4194","7539","9928","4335","7020","8743","4428","6856","8349","4662","6676","7820","4673","5950","6600","DualSpot on"
"MA200-0420","53608","85","1","1.10","1.6","2023-08-26T19:40:00","120","2023/08/26","19:40:00","-15.787193238735199","35.03525899350643","0.0","14","300","64","84","-296","23604","-1140","9","150","149.67","115.83","33.84","25.10","42.2","11.35","0","0.00","DUALSPOT-UV-BLUE-GREEN-RED-IR","496845","575881","905698","41.451612","17.366504","0.014126","621987","777846","836263","31.349604","12.313807","0.016372","638704","778174","835084","27.570496","10.542621","0.017278","686608","801378","891252","22.763134","8.275025","0.018256","652461","824170","966743","14.892376","5.041072","0.019770","4087","7443","9862","4223","6928","8678","4313","6737","8238","4549","6608","7784","4565","5825","6470","DualSpot on"
