"Serial number","Datum ID","Session ID","Data format version","Firmware version","App version","Date / time local","Timezone offset (mins)","Date local (yyyy/MM/dd)","Time local (hh:mm:ss)","GPS lat (ddmm.mmmmm)","GPS long (dddmm.mmmmm)","GPS speed (km/h)","GPS sat count","Timebase (s)","Status","Battery remaining (%)","Accel X","Accel Y","Accel Z","Tape position","Flow setpoint (mL/min)","Flow total (mL/min)","Flow1 (mL/min)","Flow2 (mL/min)","Sample temp (C)","Sample RH (%)","Sample dewpoint (C)","Internal pressure (Pa)","Internal temp (C)","Optical config","UV Sen1","UV Sen2","UV Ref","UV ATN1","UV ATN2","UV K","Blue Sen1","Blue Sen2","Blue Ref","Blue ATN1","Blue ATN2","Blue K","Green Sen1","Green Sen2","Green Ref","Green ATN1","Green ATN2","Green K","Red Sen1","Red Sen2","Red Ref","Red ATN1","Red ATN2","Red K","IR Sen1","IR Sen2","IR Ref","IR ATN1","IR ATN2","IR K","UV BC1","UV BC2","UV BCc","Blue BC1","Blue BC2","Blue BCc","Green BC1","Green BC2","Green BCc","Red BC1","Red BC2","Red BCc","IR BC1","IR BC2","IR BCc","Readable status"
"MA200-0416","30965","91","1","1.10","1.4","2023-05-29T09:17:00","120","2023/05/29","09:17:00","0","0","0.0","2","30","66","92","-24973","1673","2550","5","150","149.38","114.88","34.50","21.64","44.5","9.03","90172","20.88","DUALSPOT-UV-BLUE-GREEN-RED-IR","848740","728127","906400","0.000000","0.000000","0.000000","803761","912415","766276","0.000000","0.000000","0.000000","909457","926474","828030","0.000000","0.000000","0.000000","881715","932492","865766","0.000000","0.000000","0.000000","749434","857088","955014","0.000000","0.000000","0.000000","","","","","","","","","","","","","","","","Start up"
"MA200-0416","30966","91","1","1.10","1.4","2023-05-29T09:17:30","120","2023/05/29","09:17:30","0","0","0.0","3","30","66","91","-25044","-3787","-876","5","150","149.84","115.53","34.30","21.76","45.3","9.39","90184","21.31","DUALSPOT-UV-BLUE-GREEN-RED-IR","849680","729194","907776","0.000000","0.000000","0.000000","799378","907625","762199","0.000000","0.000000","0.000000","898190","915176","817826","0.000000","0.000000","0.000000","881425","932341","865569","0.000000","0.000000","0.000000","749139","856859","954710","0.000000","0.000000","0.000000","","","","","","","","","","","","","","","","Start up"
"MA200-0416","30967","91","1","1.10","1.4","2023-05-29T09:18:00","120","2023/05/29","09:18:00","0","0","0.0","4","30","66","91","-14550","-21023","2084","5","150","149.48","114.83","34.65","21.88","45.8","9.68","90176","21.56","DUALSPOT-UV-BLUE-GREEN-RED-IR","844781","726065","904344","0.000000","0.000000","0.000000","800511","909864","764364","0.000000","0.000000","0.000000","893446","911168","814510","0.000000","0.000000","0.000000","877909","929398","863018","0.000000","0.000000","0.000000","746040","853883","951606","0.000000","0.000000","0.000000","","","","","","","","","","","","","","","","Start up"
"MA200-0416","30968","91","1","1.10","1.4","2023-05-29T09:18:30","120","2023/05/29","09:18:30","0","0","0.0","7","30","66","90","-3144","7232","21264","5","150","150.04","114.94","35.10","22.01","46.3","9.95","90180","21.81","DUALSPOT-UV-BLUE-GREEN-RED-IR","843559","725297","903546","0.000000","0.000000","0.000000","796108","905015","760329","0.000000","0.000000","0.000000","895895","913783","816889","0.000000","0.000000","0.000000","875994","927485","861274","0.000000","0.000000","0.000000","748473","856833","954856","0.000000","0.000000","0.000000","","","","","","","","","","","","","","","","Start up"
"MA200-0416","30969","91","1","1.10","1.4","2023-05-29T09:19:00","120","2023/05/29","09:19:00","0","0","0.0","6","30","66","90","-25596","611","338","5","150","149.80","115.18","34.61","22.12","46.7","10.17","90172","22.06","DUALSPOT-UV-BLUE-GREEN-RED-IR","843420","725809","904526","0.000000","0.000000","0.000000","800878","910807","765355","0.000000","0.000000","0.000000","896699","914900","817993","0.000000","0.000000","0.000000","880348","932302","865890","0.000000","0.000000","0.000000","745942","854095","951975","0.000000","0.000000","0.000000","","","","","","","","","","","","","","","","Start up"
"MA200-0416","30970","91","1","1.10","1.4","2023-05-29T09:19:30","120","2023/05/29","09:19:30","0","0","0.0","6","30","64","90","-24052","-7911","-1732","5","150","149.66","114.88","34.78","22.27","47.1","10.43","90180","22.75","DUALSPOT-UV-BLUE-GREEN-RED-IR","846523","729156","909095","0.000000","0.000000","0.000000","798517","908466","763474","0.000000","0.000000","0.000000","891761","910108","813715","0.000000","0.000000","0.000000","876829","928801","862617","0.000000","0.000000","0.000000","743057","850971","948487","0.000000","0.000000","0.000000","","","","","","","","","","","","","","","",""
"MA200-0416","30971","91","1","1.10","1.4","2023-05-29T09:20:00","120","2023/05/29","09:20:00","0","0","0.0","7","30","64","90","-23708","-9728","-1340","5","150","149.90","115.59","34.30","22.44","47.5","10.72","90184","23.38","DUALSPOT-UV-BLUE-GREEN-RED-IR","845697","728711","908662","0.050206","0.015710","0.000000","798106","908185","763245","0.023829","0.001907","0.000000","892426","910993","814492","0.017035","-0.001978","0.000000","881498","933907","867351","0.013077","-0.001436","0.000000","745051","853364","951197","0.014652","0.004132","0.000000","2551","2690","2551","1528","412","1528","1223","-478","1223","1135","-420","1135","1770","1682","1770",""
"MA200-0416","30972","91","1","1.10","1.4","2023-05-29T09:20:30","120","2023/05/29","09:20:30","0","0","0.0","6","30","64","90","-25460","-788","-3068","5","150","149.76","115.47","34.29","22.62","47.7","10.96","90180","23.81","DUALSPOT-UV-BLUE-GREEN-RED-IR","840684","724931","904230","0.140873","0.042051","0.000000","799250","909896","764707","0.064700","0.007932","0.000000","891733","910577","814113","0.046933","-0.001890","0.000000","876726","929120","862838","0.033617","-0.005096","0.000000","749257","858312","956838","0.041711","0.010416","0.000000","4611","4511","4611","2623","1302","2623","2149","21","2149","1784","-1070","1784","3273","2560","3273",""
"MA200-0416","30973","91","1","1.10","1.4","2023-05-29T09:21:00","120","2023/05/29","09:21:00","-15.799988508224487","35.028093330562115","0.2","6","30","64","90","-25012","2288","-3260","5","150","150.01","115.84","34.17","22.83","47.8","11.16","90180","24.06","DUALSPOT-UV-BLUE-GREEN-RED-IR","844887","729074","909610","0.243389","0.069250","0.000000","797720","908435","763539","0.108045","0.011575","0.000000","891626","910736","814258","0.074934","-0.008166","0.000000","879657","932471","865895","0.057536","-0.014877","0.000000","745921","854737","952895","0.074081","0.017114","0.000000","5198","4675","5198","2773","790","2773","2006","-1524","2006","2071","-2871","2071","3903","2738","3903",""
"MA200-0416","30974","91","1","1.10","1.4","2023-05-29T09:21:30","120","2023/05/29","09:21:30","-15.799879133701324","35.02810916118324","0.1","7","30","64","90","-24972","1184","-4200","5","150","149.62","115.62","34.00","23.01","47.6","11.29","90172","24.06","DUALSPOT-UV-BLUE-GREEN-RED-IR","838392","724355","904167","0.380506","0.107982","0.000000","798188","909496","764521","0.164943","0.021881","0.000000","892982","912526","815870","0.116992","-0.005281","0.000000","875939","928900","862570","0.087958","-0.017297","0.000000","746845","856115","954504","0.114686","0.026803","0.000000","6965","6691","6965","3648","2247","3648","3019","704","3019","2639","-714","2639","4906","3981","4906",""
"MA200-0416","30975","91","1","1.10","1.4","2023-05-29T09:22:00","120","2023/05/29","09:22:00","-15.799842417240143","35.028044663369656","0.0","8","30","64","90","-25100","1248","-3952","5","150","149.73","115.34","34.39","23.23","47.5","11.46","90176","24.06","DUALSPOT-UV-BLUE-GREEN-RED-IR","838553","725596","906251","0.559974","0.156366","0.000000","794124","905353","761116","0.225400","0.030380","0.000000","892572","912480","815868","0.158762","-0.003296","0.000000","875329","928579","862265","0.119072","-0.019729","0.000000","746368","855849","954280","0.154348","0.033767","0.000000","9139","8262","9139","3885","1831","3885","3006","479","3006","2706","-709","2706","4803","2828","4803",""
"MA200-0416","30976","91","1","1.10","1.4","2023-05-29T09:22:30","120","2023/05/29","09:22:30","-15.799817383289337","35.02799999713898","0.0","7","30","64","89","-25164","1084","-4016","5","150","149.35","115.69","33.66","23.43","47.5","11.63","90176","24.13","DUALSPOT-UV-BLUE-GREEN-RED-IR","835388","723311","903601","0.713513","0.197425","0.000000","796871","908778","764040","0.282877","0.040847","0.000000","891353","911509","814994","0.200665","0.001793","0.000000","873973","927389","861102","0.149166","-0.021255","0.000000","744599","853999","952228","0.186187","0.037595","0.000000","7794","7165","7794","3682","2305","3682","3006","1255","3006","2609","-454","2609","3844","1588","3844",""
"MA200-0416","30977","91","1","1.10","1.4","2023-05-29T09:23:00","120","2023/05/29","09:23:00","-15.79983001947403","35.027994494885206","0.1","7","30","64","90","-25128","-2464","-3987","5","150","149.76","115.71","34.05","23.65","47.6","11.86","90168","24.19","DUALSPOT-UV-BLUE-GREEN-RED-IR","830499","723414","905893","1.565569","0.443124","0.000000","791937","904544","760909","0.492441","0.095247","0.000000","891414","912465","816085","0.325996","0.029402","0.000000","876243","930463","864154","0.243771","-0.003206","0.000000","745174","855175","953695","0.262931","0.053999","0.000000","43250","42381","43250","13426","11843","13426","8992","6731","8992","8202","5317","8202","9265","6729","9265",""
"MA200-0416","30978","91","1","1.10","1.4","2023-05-29T09:23:30","120","2023/05/29","09:23:30","-15.79984200000763","35.02797849290073","0.1","8","30","64","90","-25336","-604","-2288","5","150","150.09","115.67","34.42","23.86","47.5","12.04","90172","24.31","DUALSPOT-UV-BLUE-GREEN-RED-IR","830488","725224","909130","1.864880","0.529161","0.000000","792766","906164","762433","0.576037","0.115751","0.000000","891774","913256","816862","0.376421","0.039029","0.000000","877894","932551","866121","0.278776","0.001829","0.000000","745756","856104","954773","0.293140","0.058147","0.000000","15198","14680","15198","5357","4415","5357","3619","2321","3619","3036","1467","3036","3648","1683","3648",""
"MA200-0416","30979","91","1","1.10","1.4","2023-05-29T09:24:00","120","2023/05/29","09:24:00","-15.799835741519928","35.02797332778573","0.0","8","30","64","89","-25284","-568","-2132","5","150","149.94","115.13","34.81","24.06","47.2","12.11","90172","24.44","DUALSPOT-UV-BLUE-GREEN-RED-IR","824058","720545","903736","2.098331","0.596584","0.000000","793749","907685","763833","0.647825","0.134950","0.000000","887146","908808","812974","0.422620","0.048315","0.000000","877103","931957","865606","0.313717","0.006323","0.000000","745246","855701","954373","0.324253","0.063943","0.000000","11910","11376","11910","4622","4088","4622","3331","2214","3331","3044","1295","3044","3775","2326","3775",""
"MA200-0416","30980","91","1","1.10","1.4","2023-05-29T09:24:30","120","2023/05/29","09:24:30","-15.799837708473206","35.02797849290073","0.0","9","30","64","89","-25148","-435","-2376","5","150","149.99","115.26","34.73","24.25","46.8","12.16","90172","24.44","DUALSPOT-UV-BLUE-GREEN-RED-IR","826294","722834","906784","2.151434","0.613105","0.000000","790921","904620","761341","0.675410","0.141674","0.000000","888670","910521","814514","0.442440","0.051241","0.000000","874503","929350","863181","0.326842","0.004213","0.000000","742593","852794","951153","0.339305","0.065234","0.000000","2706","2794","2706","1774","1435","1774","1427","699","1427","1142","-609","1142","1824","519","1824",""
"MA200-0416","30981","91","1","1.10","1.4","2023-05-29T09:25:00","120","2023/05/29","09:25:00","-15.799834489822388","35.027968160808086","0.7","8","30","64","89","-25307","-450","-2288","5","150","149.57","115.35","34.21","24.41","46.5","12.20","90176","24.50","DUALSPOT-UV-BLUE-GREEN-RED-IR","828925","725909","911034","2.316607","0.661731","0.000000","792966","907306","763663","0.727665","0.154239","0.000000","889608","911724","815623","0.473887","0.055509","0.000000","876672","931843","865491","0.349271","0.004887","0.000000","743293","853735","952250","0.360286","0.068278","0.000000","8410","8348","8410","3358","2722","3358","2263","1035","2263","1950","197","1950","2540","1243","2540",""
"MA200-0416","30982","91","1","1.10","1.4","2023-05-29T09:25:30","120","2023/05/29","09:25:30","-15.799830496311188","35.02797716110945","0.2","8","30","64","89","-25280","-427","-2320","5","150","149.61","115.11","34.50","24.54","46.2","12.20","90168","24.50","DUALSPOT-UV-BLUE-GREEN-RED-IR","822571","720753","904694","2.392386","0.682437","0.000000","793297","907935","764238","0.759095","0.159513","0.000000","890383","912706","816527","0.496709","0.056969","0.000000","878626","934078","867588","0.365233","0.003778","0.000000","743815","854454","953064","0.376293","0.069622","0.000000","3866","3525","3866","2024","1133","2024","1646","351","1646","1391","-322","1391","1942","544","1942",""
"MA200-0416","30983","91","1","1.10","1.4","2023-05-29T09:26:00","120","2023/05/29","09:26:00","-15.79981005191803","35.02798782847822","0.1","8","30","64","89","-25248","-364","-2144","5","150","150.06","115.19","34.88","24.64","45.9","12.22","90168","24.56","DUALSPOT-UV-BLUE-GREEN-RED-IR","823833","722507","907226","2.505113","0.714300","0.000000","794980","910187","766203","0.800925","0.168317","0.000000","886159","908620","812919","0.525611","0.060545","0.000000","873494","928824","862681","0.386351","0.004333","0.000000","744230","855115","953786","0.396821","0.071922","0.000000","5748","5365","5748","2692","1871","2692","2083","851","2083","1839","159","1839","2489","921","2489",""
"MA200-0416","30984","91","1","1.10","1.4","2023-05-29T09:26:30","120","2023/05/29","09:26:30","-15.799829185009003","35.02798215858638","0.0","8","30","64","89","-25196","-364","-2448","5","150","150.25","115.65","34.59","24.72","45.7","12.22","0","0.00","DUALSPOT-UV-BLUE-GREEN-RED-IR","821797","720931","905354","2.557736","0.726291","0.000000","793261","908428","764747","0.830876","0.172859","0.000000","889955","912687","816550","0.546616","0.062024","0.000000","872566","927988","861885","0.401443","0.002241","0.000000","743278","854128","952720","0.412189","0.073038","0.000000","2672","2036","2672","1919","973","1919","1507","354","1507","1309","-606","1309","1856","450","1856",""
"MA200-0416","30985","91","1","1.10","1.4","2023-05-29T09:27:00","120","2023/05/29","09:27:00","-15.799833357334137","35.027987994253635","0.2","8","30","64","89","-25300","-564","-2192","5","150","150.21","115.29","34.92","24.79","45.5","12.23","0","0.00","DUALSPOT-UV-BLUE-GREEN-RED-IR","825258","724807","910692","2.716979","0.773084","0.000000","791185","906428","763173","0.882512","0.185621","0.000000","887138","910079","814269","0.584251","0.067835","0.000000","875852","931719","865370","0.426548","0.003457","0.000000","745081","856354","955224","0.433296","0.075831","0.000000","8112","7870","8112","3320","2709","3320","2710","1381","2710","2184","349","2184","2557","1117","2557",""
"MA200-0416","30986","91","1","1.10","1.4","2023-05-29T09:27:30","120","2023/05/29","09:27:30","-15.799825370311737","35.02799682691693","0.0","8","30","64","89","-25252","-475","-2576","5","150","149.35","115.84","33.51","24.86","45.4","12.24","90176","24.75","DUALSPOT-UV-BLUE-GREEN-RED-IR","819933","721081","906424","2.896584","0.823572","0.000000","791879","907618","764274","0.941395","0.199073","0.000000","888289","911563","815640","0.623440","0.074863","0.000000","871804","927638","861599","0.456839","0.007927","0.000000","745922","857482","956549","0.460437","0.082427","0.000000","9106","8849","9106","3768","2976","3768","2808","1741","2808","2623","1338","2623","3273","2749","3273",""
"MA200-0416","30987","91","1","1.10","1.4","2023-05-29T09:28:00","120","2023/05/29","09:28:00","-15.799835860729218","35.02798532694578","0.0","10","30","64","89","-25120","-324","-2200","5","150","149.59","115.88","33.71","24.91","45.3","12.25","90172","24.75","DUALSPOT-UV-BLUE-GREEN-RED-IR","819445","721124","906733","2.961924","0.841659","0.000000","787542","902921","760379","0.972479","0.205696","0.000000","888460","911908","816004","0.645697","0.077801","0.000000","873182","929266","863130","0.471740","0.007682","0.000000","742349","853517","952129","0.474485","0.083146","0.000000","3311","3151","3311","1988","1456","1988","1594","723","1594","1290","-72","1290","1693","297","1693",""
"MA200-0416","30988","91","1","1.10","1.4","2023-05-29T09:28:30","120","2023/05/29","09:28:30","-15.799835503101349","35.0279818251729","0.1","12","30","64","88","-25228","-448","-2208","5","150","150.09","116.09","33.99","24.98","45.1","12.26","90176","24.75","DUALSPOT-UV-BLUE-GREEN-RED-IR","821417","723445","909957","3.103920","0.881341","-0.021929","789152","905166","762365","1.031846","0.218402","0.000000","888786","912613","816688","0.689542","0.085967","0.000000","873475","929889","863727","0.505185","0.011044","0.000000","742352","853700","952392","0.500926","0.088797","0.000000","7184","6856","6726","3790","2770","3790","3135","1994","3135","2890","992","2890","3181","2322","3181",""
"MA200-0416","30989","91","1","1.10","1.4","2023-05-29T09:29:00","120","2023/05/29","09:29:00","-15.799814343452454","35.02798116020858","0.0","12","30","64","89","-25232","-536","-2368","5","150","150.01","115.93","34.07","25.05","45.1","12.30","90176","24.81","DUALSPOT-UV-BLUE-GREEN-RED-IR","822535","724588","911457","3.138087","0.889390","-0.122026","789833","906209","763278","1.068431","0.225008","0.000000","889389","913442","817442","0.718701","0.089221","0.000000","876130","932878","866504","0.527906","0.011545","0.000000","743032","854602","953447","0.523363","0.093984","0.000000","1731","1387","1251","2339","1437","2339","2088","793","2088","1966","147","1966","2703","2126","2703",""
"MA200-0416","30990","91","1","1.10","1.4","2023-05-29T09:29:30","120","2023/05/29","09:29:30","-15.79980719089508","35.02797966264188","0.0","12","30","64","88","-25296","-672","-2176","5","150","150.43","115.75","34.68","25.14","45.0","12.35","90176","24.88","DUALSPOT-UV-BLUE-GREEN-RED-IR","817611","720378","906197","3.158892","0.894491","-0.107479","791072","907778","764645","1.088398","0.228141","0.000000","885765","909862","814238","0.736147","0.089883","0.000000","871248","927802","861772","0.540196","0.009804","0.000000","743947","855746","954721","0.535629","0.096045","0.000000","1055","863","788","1278","669","1278","1251","158","1251","1065","-503","1065","1480","830","1480",""
"MA200-0416","30991","91","1","1.10","1.4","2023-05-29T09:30:00","120","2023/05/29","09:30:00","-15.799796998500824","35.02798782847822","0.0","13","30","64","88","-25224","-488","-2340","5","150","150.09","115.75","34.34","25.21","44.9","12.39","90164","24.94","DUALSPOT-UV-BLUE-GREEN-RED-IR","816692","720777","907299","3.390157","0.961286","-0.011330","786638","903134","760831","1.156431","0.243293","0.000000","886380","910813","815177","0.781834","0.098371","0.000000","872929","929867","863738","0.573861","0.014770","0.000000","744505","856603","955776","0.566701","0.102922","0.000000","11735","11424","11300","4357","3270","4357","3276","2051","3276","2917","1450","2917","3749","2797","3749",""
"MA200-0416","30992","91","1","1.10","1.4","2023-05-29T09:30:30","120","2023/05/29","09:30:30","-15.799809396266937","35.02798832766712","0.0","13","30","64","88","-25152","-460","-2316","5","150","149.45","115.79","33.65","25.29","44.8","12.43","90176","25.00","DUALSPOT-UV-BLUE-GREEN-RED-IR","819907","723936","911471","3.465165","0.985132","0.033449","788337","905348","762730","1.187235","0.249099","0.000000","887514","912157","816418","0.804638","0.100910","0.000000","874596","931770","865523","0.590509","0.013923","0.000000","740311","851892","950533","0.584228","0.106366","0.000000","3804","4161","4303","1972","1278","1972","1635","626","1635","1442","-252","1442","2114","1429","2114",""
"MA200-0416","30993","91","1","1.10","1.4","2023-05-29T09:31:00","120","2023/05/29","09:31:00","-15.799822509288788","35.02798515930772","0.1","14","30","64","88","-25252","-500","-2172","5","150","149.63","115.39","34.24","25.39","44.6","12.44","90168","25.00","DUALSPOT-UV-BLUE-GREEN-RED-IR","814921","719728","906250","3.498461","0.993766","-0.061035","790080","907491","764582","1.207238","0.251991","0.000000","887700","912484","816739","0.820076","0.101267","0.000000","875190","932500","866197","0.601160","0.013554","0.000000","740336","852011","950694","0.597164","0.108160","0.000000","1694","1481","1396","1285","626","1285","1110","86","1110","926","-108","926","1565","732","1565",""
"MA200-0416","30994","91","1","1.10","1.4","2023-05-29T09:31:30","120","2023/05/29","09:31:30","-15.799826562404633","35.02797966264188","0.0","14","30","64","88","-25136","-488","-2336","5","150","149.53","115.69","33.83","25.47","44.4","12.46","90160","25.06","DUALSPOT-UV-BLUE-GREEN-RED-IR","815945","720974","907952","3.551369","1.008296","-0.026148","790608","908374","765374","1.240986","0.259351","0.000000","888470","913536","817687","0.846183","0.104665","0.000000","869994","927175","861225","0.618720","0.013458","0.000000","740833","852706","951492","0.613647","0.110636","0.000000","2686","2522","2457","2162","1612","2162","1873","833","1873","1522","-28","1522","1990","1022","1990",""
"MA200-0416","30995","91","1","1.10","1.4","2023-05-29T09:32:00","120","2023/05/29","09:32:00","-15.799819529056549","35.02798299305141","0.0","14","30","64","88","-25215","-523","-2276","5","150","150.36","115.83","34.53","25.52","44.2","12.44","90156","25.13","DUALSPOT-UV-BLUE-GREEN-RED-IR","815056","720615","907733","3.637662","1.030984","-0.054171","790178","908267","765380","1.293110","0.270807","0.000000","888327","913701","817866","0.886256","0.113117","0.000000","871580","929117","863079","0.649648","0.017934","0.000000","741409","853541","952459","0.637950","0.114759","0.000000","4375","3859","3655","3335","2459","3335","2872","2032","2872","2678","1300","2678","2931","1668","2931",""
"MA200-0416","30996","91","1","1.10","1.4","2023-05-29T09:32:30","120","2023/05/29","09:32:30","-15.799829185009003","35.02798432856798","0.0","15","30","64","88","-25192","-520","-2324","5","150","150.08","115.92","34.16","25.58","44.1","12.45","90160","25.19","DUALSPOT-UV-BLUE-GREEN-RED-IR","815059","720786","908053","3.679115","1.042591","-0.020306","789835","908043","765243","1.324838","0.278770","0.000000","882839","908194","812957","0.910824","0.116913","0.000000","869327","926864","860991","0.667059","0.019407","0.000000","740026","852042","950808","0.653507","0.117448","0.000000","2100","1995","1954","2029","1728","2029","1759","922","1759","1506","432","1506","1874","1099","1874",""
"MA200-0416","30997","91","1","1.10","1.4","2023-05-29T09:33:00","120","2023/05/29","09:33:00","-15.799819350242615","35.02799032814801","0.1","15","30","64","88","-25232","-504","-2392","5","150","150.16","115.67","34.49","25.62","43.9","12.44","90164","25.25","DUALSPOT-UV-BLUE-GREEN-RED-IR","817112","722725","910549","3.702335","1.047277","-0.221459","786601","904463","762243","1.345438","0.281269","0.000000","884174","909679","814343","0.928575","0.119339","0.000000","872372","930231","864107","0.679320","0.018697","0.000000","741512","853833","952795","0.662517","0.117273","0.000000","1179","798","647","1320","537","1320","1274","584","1274","1063","-206","1063","1088","-71","1088",""
"MA200-0416","30998","91","1","1.10","1.4","2023-05-29T09:33:30","120","2023/05/29","09:33:30","-15.799842536449432","35.02799132838845","0.1","15","30","64","88","-25292","-424","-2312","5","150","150.36","115.55","34.81","25.64","43.8","12.41","90156","25.25","DUALSPOT-UV-BLUE-GREEN-RED-IR","812094","718413","905141","3.725649","1.053434","-0.055700","787128","905220","762920","1.365864","0.285762","0.000000","884827","910497","815056","0.943244","0.121080","0.000000","874010","932050","865815","0.690555","0.019913","0.000000","742277","854807","953875","0.673576","0.119457","0.000000","1185","1039","981","1310","957","1310","1053","415","1053","975","350","975","1336","876","1336",""
"MA200-0416","30999","91","1","1.10","1.4","2023-05-29T09:34:00","120","2023/05/29","09:34:00","-15.79984599351883","35.027988493442535","0.0","16","30","64","88","-25076","-404","-2340","5","150","149.87","115.84","34.03","25.66","43.7","12.40","90160","25.31","DUALSPOT-UV-BLUE-GREEN-RED-IR","812815","719222","906279","3.753144","1.061573","0.002769","788237","906627","764150","1.385045","0.290966","0.000000","884871","910633","815261","0.960755","0.125151","0.000000","873893","932047","865818","0.703310","0.021374","0.000000","742283","854852","953992","0.682231","0.121944","0.000000","1394","1404","1408","1227","1133","1227","1255","993","1255","1104","430","1104","1043","1020","1043",""
"MA200-0416","31000","91","1","1.10","1.4","2023-05-29T09:34:30","120","2023/05/29","09:34:30","-15.79983365535736","35.027985993772745","0.0","16","30","64","87","-25160","-404","-2340","5","150","150.09","115.59","34.50","25.68","43.7","12.41","90156","25.38","DUALSPOT-UV-BLUE-GREEN-RED-IR","810218","717045","903538","3.776978","1.067447","-0.084911","786807","905079","762898","1.405829","0.296878","0.000000","884209","910085","814766","0.977099","0.129395","0.000000","866524","924264","858585","0.714546","0.022304","0.000000","741553","854113","953129","0.690597","0.121145","0.000000","1211","1000","916","1332","1270","1332","1173","1021","1173","975","270","975","1010","-323","1010",""
"MA200-0416","31001","91","1","1.10","1.4","2023-05-29T09:35:00","120","2023/05/29","09:35:00","-15.79982602596283","35.027984496206045","0.0","17","30","64","87","-25296","-620","-2248","5","150","149.83","115.35","34.48","25.71","43.7","12.42","90164","25.44","DUALSPOT-UV-BLUE-GREEN-RED-IR","815162","721545","909314","3.802212","1.074150","-0.048279","785163","903363","761453","1.425713","0.300365","0.000000","886401","912478","816935","0.993001","0.132262","0.000000","869854","927892","861992","0.725609","0.023066","0.000000","743219","856068","955357","0.699806","0.123446","0.000000","1284","1141","1085","1277","749","1277","1144","690","1144","962","222","962","1115","932","1115",""
"MA200-0416","31002","91","1","1.10","1.4","2023-05-29T09:35:30","120","2023/05/29","09:35:30","-15.799827992916107","35.027987660840154","0.0","17","30","64","87","-25104","-460","-2172","5","150","150.23","115.20","35.03","25.72","43.7","12.44","90160","25.44","DUALSPOT-UV-BLUE-GREEN-RED-IR","814016","720927","908687","3.869784","1.092386","-0.048057","785212","903679","761793","1.459729","0.308269","0.000000","886105","912382","816900","1.018888","0.136590","0.000000","870909","929198","863247","0.746262","0.027745","0.000000","743689","856728","956131","0.714271","0.126455","0.000000","3445","3057","2905","2189","1672","2189","1865","1025","1865","1798","1339","1798","1754","1199","1754",""
"MA200-0416","31003","91","1","1.10","1.4","2023-05-29T09:36:00","120","2023/05/29","09:36:00","-15.799831509590149","35.0279928278178","0.1","17","30","64","86","-25273","-492","-2211","5","150","150.49","116.63","33.86","25.73","43.7","12.46","90156","25.44","DUALSPOT-UV-BLUE-GREEN-RED-IR","813526","720721","908589","3.914732","1.105306","-0.003616","784719","903346","761597","1.494062","0.317377","0.000000","881193","907521","812590","1.045620","0.142037","0.000000","870145","928550","862652","0.766533","0.031483","0.000000","738778","851190","949960","0.728723","0.129646","0.000000","2263","2240","2232","2182","1993","2182","1902","1335","1902","1743","1107","1743","1731","1316","1731",""
"MA200-0416","31004","91","1","1.10","1.4","2023-05-29T09:36:30","120","2023/05/29","09:36:30","-15.799832463264465","35.02799366042018","0.0","17","30","64","87","-25260","-284","-2128","5","150","150.03","115.75","34.28","25.74","43.7","12.44","90152","25.44","DUALSPOT-UV-BLUE-GREEN-RED-IR","809629","717592","904705","3.977371","1.121677","-0.049152","786439","905572","763531","1.533586","0.326078","0.000000","882795","909368","814252","1.075810","0.147914","0.000000","872845","931585","865519","0.789898","0.034790","0.000000","739969","852651","951625","0.746723","0.133769","0.000000","3178","2805","2658","2531","1881","2531","2165","1423","2165","2025","968","2025","2172","1680","2172",""
"MA200-0416","31005","91","1","1.10","1.4","2023-05-29T09:37:00","120","2023/05/29","09:37:00","-15.799822807312012","35.02799349464476","0.0","17","30","64","87","-25116","-376","-2172","5","150","149.94","115.34","34.60","25.74","43.6","12.41","0","0.00","DUALSPOT-UV-BLUE-GREEN-RED-IR","809051","717387","904606","4.033853","1.139232","0.011844","786302","905596","763600","1.561081","0.333374","0.000000","882151","908847","813854","1.098531","0.153868","0.000000","873618","932557","866456","0.808292","0.037801","0.000000","740013","852802","951826","0.761318","0.136604","0.000000","2876","2979","3020","1767","1563","1767","1635","1428","1635","1600","872","1600","1767","1144","1767",""
"MA200-0416","31006","91","1","1.10","1.4","2023-05-29T09:37:30","120","2023/05/29","09:37:30","-15.799825370311737","35.02799032814801","0.0","17","30","64","86","-25222","-363","-2230","5","150","150.36","115.55","34.81","25.73","43.5","12.37","0","0.00","DUALSPOT-UV-BLUE-GREEN-RED-IR","808114","716892","904214","4.095233","1.156595","-0.022636","784941","904264","762540","1.591861","0.340497","0.000000","881360","908219","813341","1.122593","0.158715","0.000000","871266","930180","864272","0.825226","0.041210","0.000000","738811","851542","950470","0.776096","0.139384","0.000000","3119","2930","2855","1974","1517","1974","1728","1156","1728","1470","982","1470","1786","1115","1786",""
"MA200-0416","31007","91","1","1.10","1.4","2023-05-29T09:38:00","120","2023/05/29","09:38:00","-15.79981803894043","35.02797749452293","0.0","17","30","64","88","-25188","-407","-2246","5","150","150.41","115.60","34.81","25.72","43.5","12.36","90156","25.38","DUALSPOT-UV-BLUE-GREEN-RED-IR","803599","713095","899502","4.147872","1.172563","0.002478","786431","906137","764159","1.618683","0.347370","0.000000","882965","910009","814983","1.142376","0.163173","0.000000","867638","926448","860813","0.841957","0.044357","0.000000","740471","853456","952639","0.786268","0.141702","0.000000","2674","2694","2702","1720","1463","1720","1420","1063","1420","1452","907","1452","1229","930","1229",""
"MA200-0416","31008","91","1","1.10","1.4","2023-05-29T09:38:30","120","2023/05/29","09:38:30","-15.799823641777039","35.02798249386251","0.0","17","30","64","86","-25276","-420","-2088","5","150","149.90","115.12","34.78","25.72","43.4","12.35","90168","25.38","DUALSPOT-UV-BLUE-GREEN-RED-IR","808656","717785","905542","4.188938","1.182821","-0.075981","785678","905434","763622","1.644379","0.354301","0.000000","882526","909662","814716","1.162434","0.168215","0.000000","867215","926027","860509","0.856387","0.048947","0.000000","740086","853130","952271","0.797388","0.144375","0.000000","2095","1732","1589","1654","1477","1654","1446","1203","1446","1257","1323","1257","1349","1073","1349",""
"MA200-0416","31009","91","1","1.10","1.4","2023-05-29T09:39:00","120","2023/05/29","09:39:00","-15.799826979637146","35.02798166126013","0.1","17","30","64","86","-25264","-392","-2408","5","150","150.43","115.91","34.51","25.71","43.3","12.30","90156","25.31","DUALSPOT-UV-BLUE-GREEN-RED-IR","803609","714977","902913","4.487782","1.275125","0.011038","783600","903604","762262","1.724893","0.377708","0.000000","880371","907777","813146","1.207906","0.181882","0.000000","870399","929666","863917","0.885641","0.056743","0.000000","738189","851074","950067","0.819562","0.149698","0.000000","15143","15708","15932","5149","5027","5149","3257","3287","3257","2532","2266","2532","2672","2154","2672",""
"MA200-0416","31010","91","1","1.10","1.4","2023-05-29T09:39:30","120","2023/05/29","09:39:30","-15.799824357032776","35.027993995696306","0.0","17","30","64","86","-25364","-437","-2175","5","150","150.21","115.59","34.63","25.69","43.3","12.27","90160","25.31","DUALSPOT-UV-BLUE-GREEN-RED-IR","803688","715930","904639","4.651621","1.324678","0.002828","784218","904687","763303","1.776456","0.392383","0.000000","881015","908647","813986","1.238514","0.190656","0.000000","871805","931333","865520","0.907301","0.062417","0.000000","738938","852044","951156","0.833177","0.154008","0.000000","8325","8405","8436","3307","3141","3307","2198","2103","2198","1880","1644","1880","1645","1738","1645",""
"MA200-0416","31011","91","1","1.10","1.4","2023-05-29T09:40:00","120","2023/05/29","09:40:00","-15.799822688102722","35.0279959961772","0.1","17","30","64","86","-25132","-488","-2452","5","150","149.57","115.67","33.89","25.68","43.3","12.29","90160","25.31","DUALSPOT-UV-BLUE-GREEN-RED-IR","801737","714261","902552","4.718118","1.344183","0.000307","782758","903110","762031","1.806974","0.400697","0.000000","879678","907367","812852","1.257765","0.193816","0.000000","869747","929230","863588","0.921809","0.064974","0.000000","737568","850471","949427","0.841405","0.155367","0.000000","3376","3380","3381","1955","1818","1955","1381","773","1381","1258","756","1258","993","560","993",""
"MA200-0416","31012","91","1","1.10","1.4","2023-05-29T09:40:30","120","2023/05/29","09:40:30","-15.79982316493988","35.027985993772745","0.0","17","30","64","86","-25244","-444","-2188","5","150","149.53","115.34","34.19","25.68","43.4","12.32","90156","25.25","DUALSPOT-UV-BLUE-GREEN-RED-IR","805131","717474","906734","4.747096","1.352302","-0.017471","784872","905809","764356","1.836562","0.407547","0.000000","881284","909217","814579","1.282447","0.200503","0.000000","871800","931577","865796","0.939220","0.069212","0.000000","739278","852528","951773","0.852787","0.158123","0.000000","1475","1394","1362","1901","1485","1901","1776","1623","1776","1514","1243","1514","1378","1125","1378",""
"MA200-0416","31013","91","1","1.10","1.4","2023-05-29T09:41:00","120","2023/05/29","09:41:00","-15.799823641777039","35.027976328507066","0.1","17","30","64","86","-25160","-456","-2176","5","150","149.51","115.16","34.35","25.67","43.5","12.32","90160","25.31","DUALSPOT-UV-BLUE-GREEN-RED-IR","802575","715918","905131","4.872831","1.391641","0.013142","783150","904328","763243","1.904946","0.425910","0.000000","880503","908849","814375","1.336718","0.214391","0.000000","872724","932864","867107","0.981575","0.079143","0.000000","739144","852622","951914","0.882949","0.165972","0.000000","6413","6726","6852","4402","3963","4402","3912","3356","3912","3690","2900","3690","3659","3192","3659",""
"MA200-0416","31014","91","1","1.10","1.4","2023-05-29T09:41:30","120","2023/05/29","09:41:30","-15.799812853336334","35.027988160029054","0.0","17","30","64","86","-25296","-524","-2043","5","150","149.85","115.42","34.43","25.67","43.5","12.35","90156","25.31","DUALSPOT-UV-BLUE-GREEN-RED-IR","801384","715299","904563","4.976148","1.420824","-0.016138","783023","904533","763537","1.965743","0.443040","0.000000","880163","908775","814430","1.387375","0.228911","0.000000","872053","932411","866751","1.019781","0.089824","0.000000","738962","852526","951849","0.907173","0.171830","0.000000","5257","4978","4866","3904","3688","3904","3643","3501","3643","3320","3112","3320","2931","2376","2931",""
"MA200-0416","31015","91","1","1.10","1.4","2023-05-29T09:42:00","120","2023/05/29","09:42:00","-15.79981118440628","35.02798582799733","0.0","17","30","64","86","-25048","-304","-2196","5","150","149.57","115.63","33.93","25.67","43.5","12.35","90156","25.31","DUALSPOT-UV-BLUE-GREEN-RED-IR","801113","715506","905112","5.060487","1.447208","0.016734","782897","904740","763816","2.016812","0.455999","0.000000","879541","908407","814178","1.426846","0.238466","0.000000","871058","931583","866068","1.052093","0.097352","0.000000","738617","852269","951654","0.930931","0.178232","0.000000","4284","4567","4680","3274","2831","3274","2833","2337","2833","2803","2225","2803","2870","2635","2870",""
"MA200-0416","31016","91","1","1.10","1.4","2023-05-29T09:42:30","120","2023/05/29","09:42:30","-15.799827516078949","35.027989495545626","0.0","17","30","64","86","-25224","-352","-2172","5","150","150.18","115.50","34.68","25.68","43.6","12.38","90156","25.31","DUALSPOT-UV-BLUE-GREEN-RED-IR","797914","713543","903089","5.223001","1.495319","-0.003818","781070","903127","762623","2.090120","0.475704","0.000000","877473","906624","812723","1.482654","0.253360","0.000000","868643","929319","864054","1.095062","0.108617","0.000000","741272","855552","955402","0.960746","0.185248","0.000000","8264","8148","8102","4705","4212","4705","4011","3565","4011","3732","3259","3732","3606","2826","3606",""
"MA200-0416","31017","91","1","1.10","1.4","2023-05-29T09:43:00","120","2023/05/29","09:43:00","-15.79981917142868","35.02798616141081","0.0","17","30","64","86","-25196","-475","-2272","5","150","149.90","115.16","34.74","25.69","43.7","12.42","90160","25.31","DUALSPOT-UV-BLUE-GREEN-RED-IR","799912","715844","906313","5.342492","1.532405","0.007265","782038","904566","763946","2.142858","0.491178","0.000000","879437","908944","814841","1.521462","0.262778","0.000000","865220","925810","860857","1.124370","0.116133","0.000000","738563","852536","952074","0.982448","0.191038","0.000000","6094","6270","6340","3395","3302","3395","2797","2250","2797","2553","2170","2553","2632","2328","2632",""
"MA200-0416","31018","91","1","1.10","1.4","2023-05-29T09:43:30","120","2023/05/29","09:43:30","-15.799814879894257","35.02797782793641","0.0","17","30","64","86","-25160","-475","-2280","5","150","149.66","115.29","34.37","25.71","43.8","12.47","90164","25.31","DUALSPOT-UV-BLUE-GREEN-RED-IR","800351","717115","908426","5.489682","1.579095","0.015058","783178","906298","765545","2.201140","0.507247","0.000000","879792","909591","815542","1.564050","0.273835","0.000000","864973","925804","860937","1.157218","0.124150","0.000000","738940","853159","952824","1.004037","0.197189","0.000000","7498","7979","8174","3747","3466","3747","3066","2671","3066","2858","2340","2858","2615","2500","2615",""
"MA200-0416","31019","91","1","1.10","1.4","2023-05-29T09:44:00","120","2023/05/29","09:44:00","-15.799818873405457","35.02798015810549","0.0","17","30","64","86","-25268","-384","-2356","5","150","149.90","115.12","34.78","25.73","44.0","12.54","90160","25.38","DUALSPOT-UV-BLUE-GREEN-RED-IR","797446","715087","906174","5.642071","1.626709","0.008111","781011","904191","763878","2.265960","0.524562","0.000000","878649","908738","814856","1.614177","0.286238","0.000000","864878","925946","861111","1.194602","0.132995","0.000000","738275","852506","952154","1.029567","0.204671","0.000000","7775","8040","8148","4174","3690","4174","3615","2960","3615","3258","2551","3258","3098","3005","3098",""
"MA200-0416","31020","91","1","1.10","1.4","2023-05-29T09:44:30","120","2023/05/29","09:44:30","-15.799818694591522","35.027978993952274","0.0","17","30","64","86","-25232","-620","-2224","5","150","149.40","115.17","34.23","25.75","43.9","12.54","90160","25.38","DUALSPOT-UV-BLUE-GREEN-RED-IR","800209","717840","909837","5.716687","1.649658","0.008151","778462","901418","761602","2.303350","0.535726","0.000000","879759","910051","816086","1.641619","0.294023","0.000000","867222","928570","863603","1.215589","0.138681","0.000000","739665","854184","954094","1.045631","0.208171","0.000000","3805","3937","3991","2406","2417","2406","1978","1888","1978","1828","1666","1828","1948","1428","1948",""
"MA200-0416","31021","91","1","1.10","1.4","2023-05-29T09:45:00","120","2023/05/29","09:45:00","-15.799818217754364","35.02799132838845","0.0","17","30","64","86","-25152","-528","-2384","5","150","149.53","115.29","34.23","25.76","43.8","12.50","90160","25.44","DUALSPOT-UV-BLUE-GREEN-RED-IR","801048","718909","911397","5.780520","1.670410","0.020378","778568","901790","761982","2.337968","0.545782","0.000000","880011","910487","816533","1.668788","0.301009","0.000000","867563","929085","864140","1.237714","0.144326","0.000000","739806","854455","954397","1.060977","0.212606","0.000000","3251","3560","3686","2225","2177","2225","1956","1694","1956","1925","1654","1925","1859","1809","1859",""
"MA200-0416","31022","91","1","1.10","1.4","2023-05-29T09:45:30","120","2023/05/29","09:45:30","-15.79982054233551","35.02798932790756","0.0","17","30","64","86","-25426","-711","-2157","5","150","149.64","115.24","34.40","25.77","43.8","12.51","90160","25.44","DUALSPOT-UV-BLUE-GREEN-RED-IR","798512","717116","909347","5.870143","1.696027","-0.010803","778083","901479","761800","2.376431","0.554632","0.000000","879713","910387","816493","1.697838","0.309055","0.000000","867725","929434","864490","1.259112","0.149112","0.000000","739639","854393","954365","1.077823","0.216801","0.000000","4568","4374","4295","2474","1907","2474","2093","1942","2093","1862","1395","1862","2042","1703","2042",""
"MA200-0416","31023","91","1","1.10","1.4","2023-05-29T09:46:00","120","2023/05/29","09:46:00","-15.799821972846985","35.027993995696306","0.0","17","30","64","86","-25238","-523","-2457","5","150","149.90","115.59","34.30","25.79","43.8","12.54","90160","25.44","DUALSPOT-UV-BLUE-GREEN-RED-IR","794782","713992","905479","5.912370","1.708618","0.001113","779170","902993","763161","2.410775","0.563329","0.000000","880236","911112","817218","1.724881","0.315033","0.000000","867554","929408","864513","1.279807","0.153559","0.000000","740148","855058","955164","1.090126","0.219464","0.000000","2145","2155","2159","2202","1879","2202","1942","1446","1942","1796","1300","1796","1486","1084","1486",""
"MA200-0416","31024","91","1","1.10","1.4","2023-05-29T09:46:30","120","2023/05/29","09:46:30","-15.800035119056702","35.02787166275084","1.3","17","30","64","86","-23864","492","-5548","5","150","150.08","115.25","34.82","25.83","43.9","12.60","90160","25.44","DUALSPOT-UV-BLUE-GREEN-RED-IR","794270","713645","905114","5.939264","1.716978","0.006555","779421","903422","763587","2.436024","0.569248","0.000000","880411","911461","817559","1.745999","0.318628","0.000000","868630","930669","865704","1.294791","0.155812","0.000000","739956","854901","955007","1.100481","0.221594","0.000000","1370","1410","1426","1624","1259","1624","1521","856","1521","1304","649","1304","1255","854","1255",""
"MA200-0416","31025","91","1","1.10","1.4","2023-05-29T09:47:00","120","2023/05/29","09:47:00","-15.80025988817215","35.0278638266027","0.0","17","30","64","85","-24984","2384","-3507","5","150","150.01","115.46","34.55","25.87","43.9","12.63","90156","25.50","DUALSPOT-UV-BLUE-GREEN-RED-IR","795008","714355","906100","5.954740","1.721983","0.017151","779834","904060","764130","2.454895","0.573915","0.000000","875992","907004","813570","1.762384","0.321286","0.000000","869771","931940","866908","1.305776","0.157052","0.000000","740685","855795","956004","1.107898","0.224404","0.000000","787","850","876","1211","1001","1211","1178","638","1178","954","360","954","897","1136","897",""
"MA200-0416","31026","91","1","1.10","1.4","2023-05-29T09:47:30","120","2023/05/29","09:47:30","-15.800268232822418","35.027873827144504","0.0","16","30","64","85","-24944","2292","-3892","5","150","149.53","115.25","34.27","25.94","43.9","12.73","90156","25.50","DUALSPOT-UV-BLUE-GREEN-RED-IR","795850","715211","907142","5.968283","1.723934","-0.441514","780359","904798","764749","2.471387","0.575851","0.000000","875540","906612","813220","1.775366","0.322591","0.000000","869141","931336","866354","1.316016","0.158464","0.000000","739935","854956","955114","1.116886","0.228693","0.000000","690","334","189","1060","418","1060","935","316","935","891","413","891","1089","1748","1089",""
"MA200-0416","31027","91","1","1.10","1.4","2023-05-29T09:48:00","120","2023/05/29","09:48:00","-15.80026489496231","35.02784282900393","0.2","16","30","64","85","-18360","-14712","-12160","5","150","149.73","115.52","34.21","26.06","44.2","12.93","90156","25.63","DUALSPOT-UV-BLUE-GREEN-RED-IR","794115","713726","905344","5.983599","1.728063","-0.024057","778613","902880","763161","2.488064","0.577079","0.000000","874880","906078","812715","1.787013","0.321197","0.000000","861875","923673","859221","1.323980","0.156497","0.000000","739422","854454","954550","1.125501","0.229385","0.000000","778","709","680","1070","266","1070","837","-338","837","691","-576","691","1041","282","1041",""
"MA200-0416","31028","91","1","1.10","1.4","2023-05-29T09:48:30","120","2023/05/29","09:48:30","-15.800269484519958","35.02789616212249","0.6","16","30","64","85","-16156","-14631","-15348","5","150","150.49","115.75","34.74","26.18","44.3","13.08","0","0.00","DUALSPOT-UV-BLUE-GREEN-RED-IR","793197","713067","904586","6.010268","1.737739","0.037795","777913","902309","762711","2.514016","0.582515","0.000000","877593","909049","815451","1.808232","0.324647","0.000000","866524","928794","863971","1.339191","0.156605","0.000000","737275","852014","951891","1.138641","0.233287","0.000000","1353","1635","1750","1662","1160","1662","1521","824","1521","1318","30","1318","1585","1569","1585",""
"MA200-0416","31029","91","1","1.10","1.4","2023-05-29T09:49:00","120","2023/05/29","09:49:00","-15.800301909446716","35.02785249426961","0.7","16","30","64","86","-17884","-5992","-17968","5","150","149.83","115.43","34.40","26.27","44.3","13.14","0","0.00","DUALSPOT-UV-BLUE-GREEN-RED-IR","792955","712964","904505","6.039037","1.744922","-0.048888","778233","902754","763178","2.539491","0.586008","0.000000","876894","908442","814907","1.827365","0.323349","0.000000","867943","930485","865524","1.357686","0.151455","0.000000","736424","851181","950972","1.159423","0.233940","0.000000","1463","1226","1130","1636","752","1636","1376","-313","1376","1607","-1502","1607","2515","264","2515",""
"MA200-0416","31030","91","1","1.10","1.4","2023-05-29T09:49:30","120","2023/05/29","09:49:30","-15.800251722335815","35.027810994535685","0.2","16","30","64","85","-4456","6996","-25508","5","150","150.14","115.09","35.06","26.40","44.2","13.22","90168","26.00","DUALSPOT-UV-BLUE-GREEN-RED-IR","792801","712913","904546","6.061369","1.753894","0.051099","778163","902870","763246","2.553963","0.589687","0.000000","875389","907047","813626","1.836944","0.323187","0.000000","866781","929288","864393","1.362222","0.153451","0.000000","739201","854444","954660","1.169908","0.240893","0.000000","1139","1503","1651","932","777","932","691","-38","691","395","571","395","1272","2770","1272",""
"MA200-0416","31031","91","1","1.10","1.4","2023-05-29T09:50:00","120","2023/05/29","09:50:00","-15.800272524356842","35.02781349234283","0.2","16","30","64","85","-5300","1284","-26761","5","150","150.09","115.39","34.70","26.57","44.3","13.43","90172","26.31","DUALSPOT-UV-BLUE-GREEN-RED-IR","795212","715445","907912","6.126564","1.772255","-0.016012","779655","904934","765004","2.598804","0.596612","0.000000","876424","908384","814845","1.869727","0.325720","0.000000","864336","926928","862168","1.383060","0.150942","0.000000","735311","850096","949907","1.192709","0.245887","0.000000","3318","3107","3022","2880","1479","2880","2358","606","2358","1811","-725","1811","2760","2010","2760",""
"MA200-0416","31032","91","1","1.10","1.4","2023-05-29T09:50:30","120","2023/05/29","09:50:30","-15.800254166126251","35.02780949510634","0.0","16","30","64","85","-5160","959","-26516","5","150","149.80","115.21","34.59","26.78","44.5","13.67","90168","26.69","DUALSPOT-UV-BLUE-GREEN-RED-IR","793708","714270","906497","6.157834","1.779005","-0.106078","778644","903966","764243","2.620422","0.596660","0.000000","878005","910217","816464","1.883930","0.321370","0.000000","867711","930700","865630","1.392567","0.145065","0.000000","736367","851425","951385","1.209049","0.248871","0.000000","1594","1146","964","1391","10","1391","1023","-1044","1023","827","-1704","827","1981","1205","1981",""
"MA200-0416","31033","91","1","1.10","1.4","2023-05-29T09:51:00","120","2023/05/29","09:51:00","-15.800205886363983","35.0277876611799","0.0","16","30","64","85","-5068","944","-25980","5","150","149.96","115.27","34.69","26.99","44.4","13.83","90160","27.06","DUALSPOT-UV-BLUE-GREEN-RED-IR","791809","712733","904615","6.190958","1.789112","0.003123","776738","901952","762522","2.641541","0.597143","0.000000","879211","911643","817701","1.898634","0.316452","0.000000","865717","928718","863707","1.401537","0.137716","0.000000","736923","852204","952284","1.226627","0.252254","0.000000","1687","1711","1721","1358","103","1358","1059","-1176","1059","780","-2125","780","2130","1362","2130",""
"MA200-0416","31034","91","1","1.10","1.4","2023-05-29T09:51:30","120","2023/05/29","09:51:30","-15.800220549106598","35.027819661423564","0.1","16","30","64","85","-5072","1008","-25763","5","150","149.59","115.17","34.42","27.24","44.3","14.03","90152","27.38","DUALSPOT-UV-BLUE-GREEN-RED-IR","794443","715374","908123","6.241090","1.802955","-0.019196","778745","904622","764789","2.677929","0.599437","0.000000","874810","907347","813812","1.923889","0.312948","0.000000","868511","931971","866668","1.418399","0.130182","0.000000","736705","852204","952344","1.255878","0.259634","0.000000","2556","2362","2283","2342","494","2342","1820","-845","1820","1468","-2195","1468","3548","2995","3548",""
"MA200-0416","31035","91","1","1.10","1.4","2023-05-29T09:52:00","120","2023/05/29","09:52:00","-15.800227224826813","35.02781615965068","0.1","16","30","64","85","-520","2604","-26016","5","150","150.49","115.63","34.86","27.47","44.3","14.22","90152","27.69","DUALSPOT-UV-BLUE-GREEN-RED-IR","795369","716530","909706","6.297460","1.817119","-0.048517","779376","905662","765684","2.716219","0.601387","0.000000","874643","907468","813874","1.953042","0.309658","0.000000","864280","927681","862650","1.440882","0.123589","0.000000","736498","852153","952351","1.286994","0.265537","0.000000","2863","2386","2193","2454","414","2454","2093","-783","2093","1950","-1897","1950","3759","2365","3759",""
"MA200-0416","31036","91","1","1.10","1.4","2023-05-29T09:52:30","120","2023/05/29","09:52:30","-15.800304114818573","35.02779283002019","0.0","16","30","64","85","-1332","2116","-26163","5","150","150.24","115.18","35.06","27.73","44.2","14.43","90164","28.06","DUALSPOT-UV-BLUE-GREEN-RED-IR","793125","714788","907632","6.354315","1.830652","-0.069441","777546","903914","764199","2.755040","0.600868","0.000000","874677","907839","814177","1.984203","0.302701","0.000000","866865","930788","865430","1.463776","0.113147","0.000000","736108","851952","952150","1.322912","0.272304","0.000000","2899","2267","2011","2498","-109","2498","2246","-1647","2246","1994","-2988","1994","4356","2696","4356",""
"MA200-0416","31037","91","1","1.10","1.4","2023-05-29T09:53:00","120","2023/05/29","09:53:00","-15.800300419330597","35.027781492099166","0.0","16","30","64","85","-2224","80","-26363","5","150","149.34","115.59","33.75","28.01","44.1","14.64","90164","28.44","DUALSPOT-UV-BLUE-GREEN-RED-IR","790426","712661","905026","6.409153","1.843050","-0.072387","775776","902167","762718","2.792215","0.599025","0.000000","875599","909118","815222","2.011716","0.296115","0.000000","864106","928071","862777","1.481181","0.100779","0.000000","736319","852400","952734","1.354574","0.277327","0.000000","2786","2157","1903","2384","-404","2384","1976","-1620","1976","1510","-3676","1510","3826","2078","3826",""
"MA200-0416","31038","91","1","1.10","1.4","2023-05-29T09:53:30","120","2023/05/29","09:53:30","-15.800296425819397","35.027822161093354","0.0","16","30","64","85","-2069","138","-25961","5","150","149.87","115.38","34.49","28.33","43.5","14.73","90172","29.44","DUALSPOT-UV-BLUE-GREEN-RED-IR","794000","716132","909562","6.455078","1.854795","-0.039388","777592","904547","764732","2.818894","0.596231","0.000000","875690","909472","815502","2.029473","0.286680","0.000000","867994","932475","866778","1.494711","0.087583","0.000000","735164","851217","951488","1.382631","0.284854","0.000000","2337","2000","1864","1714","-600","1714","1277","-2271","1277","1176","-3838","1176","3397","3048","3397",""
"MA200-0416","31039","91","1","1.10","1.4","2023-05-29T09:54:00","120","2023/05/29","09:54:00","-15.800299406051636","35.02781432680786","0.0","16","30","64","85","-2003","80","-25775","5","150","149.94","115.42","34.52","28.73","43.0","14.93","90152","30.44","DUALSPOT-UV-BLUE-GREEN-RED-IR","794125","716530","910179","6.509051","1.867273","-0.071730","776471","903566","763872","2.851796","0.593889","0.000000","874819","908860","814862","2.052713","0.276642","0.000000","865865","930498","864805","1.509583","0.074589","0.000000","738063","854871","955585","1.416536","0.290584","0.000000","2746","2123","1872","2113","-503","2113","1671","-2414","1671","1292","-3776","1292","4103","2318","4103",""
"MA200-0416","31040","91","1","1.10","1.4","2023-05-29T09:54:30","120","2023/05/29","09:54:30","-15.800297439098358","35.02780499495566","0.1","16","30","64","84","-2120","128","-25963","5","150","149.94","115.75","34.18","29.16","42.7","15.19","90172","31.19","DUALSPOT-UV-BLUE-GREEN-RED-IR","792313","715222","908615","6.563415","1.878330","-0.117848","777651","905281","765260","2.882468","0.588464","0.000000","877341","911787","817381","2.074772","0.263863","0.000000","859355","923795","858439","1.524323","0.056660","0.000000","734730","851263","951619","1.451358","0.295382","0.000000","2758","1899","1555","1964","-1176","1964","1582","-3103","1582","1277","-5261","1277","4202","1960","4202",""
"MA200-0416","31041","91","1","1.10","1.4","2023-05-29T09:55:00","120","2023/05/29","09:55:00","-15.800302743911743","35.02783399634063","0.0","16","30","64","84","-2069","153","-25965","5","150","150.49","115.21","35.28","29.64","42.4","15.49","90180","31.75","DUALSPOT-UV-BLUE-GREEN-RED-IR","785815","709712","901714","6.622814","1.890262","-0.140161","775346","902952","763275","2.917063","0.582748","0.000000","876131","910853","816462","2.100098","0.253742","0.000000","860275","925068","859482","1.538711","0.040280","0.000000","733178","849716","949985","1.489704","0.301512","0.000000","3028","1986","1570","2226","-1201","2226","1825","-2381","1825","1252","-4657","1252","4649","2427","4649",""
"MA200-0416","31042","91","1","1.10","1.4","2023-05-29T09:55:30","120","2023/05/29","09:55:30","-15.800336420536041","35.02782399393618","0.3","16","30","64","85","-1876","28","-26003","5","150","150.11","115.07","35.04","30.13","42.1","15.85","90180","32.19","DUALSPOT-UV-BLUE-GREEN-RED-IR","793107","716614","910588","6.683904","1.900985","-0.217121","777091","905397","765266","2.955621","0.576883","0.000000","874699","909774","815350","2.127267","0.239449","0.000000","867875","933561","867227","1.557827","0.023156","0.000000","735721","852972","953648","1.529615","0.305897","0.000000","3118","1797","1272","2484","-1240","2484","1960","-3386","1960","1666","-4902","1666","4845","1747","4845",""
"MA200-0416","31043","91","1","1.10","1.4","2023-05-29T09:56:00","120","2023/05/29","09:56:00","-15.80030244588852","35.0285458303988","2.2","16","30","64","85","-15569","-7500","-19265","5","150","149.98","115.19","34.79","30.63","42.0","16.25","90156","32.56","DUALSPOT-UV-BLUE-GREEN-RED-IR","787337","711801","904563","6.744400","1.912149","-0.176168","772999","900987","761496","2.989465","0.568420","0.000000","872070","907359","813103","2.152068","0.225561","0.000000","863631","929339","863107","1.573705","0.003516","0.000000","736290","853950","954779","1.569150","0.307696","0.000000","3084","1884","1409","2178","-1803","2178","1787","-3314","1787","1383","-5663","1383","4794","722","4794",""
"MA200-0416","31044","91","1","1.10","1.4","2023-05-29T09:56:30","120","2023/05/29","09:56:30","-15.800827383995056","35.02863216213882","0.3","16","30","64","85","-16772","-10988","-17432","5","150","149.87","115.13","34.74","31.06","41.5","16.45","90116","32.75","DUALSPOT-UV-BLUE-GREEN-RED-IR","785951","710895","903523","6.810043","1.925754","-0.113810","777498","906615","766238","3.025681","0.566185","1.016421","874616","910350","815682","2.177865","0.215184","0.000000","861523","927373","861154","1.590269","-0.012785","0.000000","733064","850600","951063","1.615409","0.311336","0.000000","3349","2300","1886","2332","-477","-1123","1860","-2479","1860","1443","-4707","1443","5613","1463","5613",""
"MA200-0416","31045","91","1","1.10","1.4","2023-05-29T09:57:00","120","2023/05/29","09:57:00","-15.800937831401825","35.02894299663603","0.0","16","30","64","85","-14964","-9700","-19608","5","150","150.03","114.84","35.19","31.42","41.0","16.59","90104","32.81","DUALSPOT-UV-BLUE-GREEN-RED-IR","789251","714402","908181","6.895861","1.943103","-0.130571","774286","903384","763504","3.078526","0.564025","1.163009","875201","911429","816612","2.218998","0.206547","0.000000","864131","930625","864042","1.617825","-0.029146","0.000000","732741","850631","951163","1.668804","0.316307","0.000000","4389","2895","2309","3411","-454","-1322","2973","-2037","2973","2407","-4664","2407","6495","1973","6495",""
"MA200-0416","31046","91","1","1.10","1.4","2023-05-29T09:57:30","120","2023/05/29","09:57:30","-15.801006078720093","35.02919749356806","1.4","16","30","64","84","-15080","-13136","-17848","5","150","149.34","114.09","35.25","31.72","40.6","16.70","90092","32.88","DUALSPOT-UV-BLUE-GREEN-RED-IR","779429","708101","901512","7.252761","2.046444","-0.013248","771077","902718","763860","3.388655","0.640493","-0.097907","867997","906673","813124","2.481115","0.263935","0.000000","855743","923994","858481","1.831432","0.007927","0.000000","731206","850578","951674","1.851766","0.357022","0.000000","18374","17218","16763","20152","16080","15131","19074","13515","19074","18784","10551","18784","22403","16134","22403",""
"MA200-0416","31047","91","1","1.10","1.4","2023-05-29T09:58:00","120","2023/05/29","09:58:00","-15.801523625850677","35.02836532704532","1.8","16","30","64","85","-14536","-7768","-20516","5","150","149.90","114.52","35.38","32.01","40.2","16.81","0","0.00","DUALSPOT-UV-BLUE-GREEN-RED-IR","780018","711504","907396","7.945963","2.252107","-0.007359","765960","900152","762680","4.011654","0.806474","-0.051842","865724","907473","814716","3.041279","0.403898","-0.092982","857301","928456","863370","2.306115","0.116813","0.000000","730050","851236","953137","2.223772","0.448768","0.000000","35553","34146","33589","40329","34781","33385","40610","32846","31657","41585","30879","41585","45378","36228","45378",""
"MA200-0416","31048","91","1","1.10","1.4","2023-05-29T09:58:30","120","2023/05/29","09:58:30","-15.80253118276596","35.02833383157849","4.3","16","30","64","85","-14656","-8372","-20452","5","150","149.80","114.42","35.38","32.24","39.7","16.82","0","0.00","DUALSPOT-UV-BLUE-GREEN-RED-IR","773411","707214","902837","8.303004","2.353393","-0.015685","766156","902345","765107","4.311746","0.879652","-0.083858","861484","904799","812771","3.303498","0.461363","-0.154926","858566","931437","866432","2.520807","0.154739","0.000000","729939","852235","954575","2.397886","0.487147","0.000000","18328","16815","16216","19443","15333","14279","19026","13485","12585","18825","10754","18825","21257","15153","21257",""
"MA200-0416","31049","91","1","1.10","1.4","2023-05-29T09:59:00","120","2023/05/29","09:59:00","-15.803016722202301","35.028201162815094","2.5","16","30","64","85","-15523","-7757","-19946","5","150","149.66","113.92","35.74","32.45","39.4","16.88","90136","33.13","DUALSPOT-UV-BLUE-GREEN-RED-IR","775087","710086","907167","8.566796","2.428255","-0.017942","761946","898800","762480","4.526811","0.931776","-0.088690","861082","905621","813842","3.486324","0.500648","-0.166989","852691","926168","861762","2.668415","0.178682","0.000000","729957","853016","955739","2.520980","0.515709","0.000000","13600","12302","11788","13995","10811","9986","13324","9125","8421","12999","6721","12999","15094","11163","15094",""
"MA200-0416","31050","91","1","1.10","1.4","2023-05-29T09:59:30","120","2023/05/29","09:59:30","-15.803024172782898","35.02728966251016","2.4","16","30","64","84","-14900","-9216","-19736","5","150","149.73","114.42","35.31","32.64","39.1","16.91","90180","33.19","DUALSPOT-UV-BLUE-GREEN-RED-IR","774210","710584","908489","8.836629","2.504587","-0.014897","760925","899008","763067","4.746163","0.986385","-0.068005","859976","905700","814239","3.671259","0.541460","-0.136735","852590","927149","862854","2.815155","0.203829","0.000000","724216","847064","949307","2.639446","0.541477","0.000000","13851","12696","12240","14211","11464","10743","13418","9595","8934","12866","7144","12866","14463","10193","14463",""
"MA200-0416","31051","91","1","1.10","1.4","2023-05-29T10:00:00","120","2023/05/29","10:00:00","-15.803350567817688","35.027347495779395","2.6","16","30","64","84","-14416","-11984","-19400","5","150","149.66","114.38","35.28","32.81","38.7","16.90","90184","33.31","DUALSPOT-UV-BLUE-GREEN-RED-IR","769660","707612","905249","9.067905","2.569683","-0.015353","757292","895876","760737","4.922311","1.030229","-0.065653","862000","908841","817320","3.815615","0.573617","-0.127361","849818","924965","860998","2.924102","0.220936","0.000000","726034","849777","952530","2.728948","0.561517","0.000000","11876","10836","10425","11416","9212","8628","10478","7566","7051","9556","4864","9556","10931","7934","10931",""
"MA200-0416","31052","91","1","1.10","1.4","2023-05-29T10:00:30","120","2023/05/29","10:00:30","-15.803693532943726","35.027766328305006","1.2","16","30","64","85","-15384","-8688","-19620","5","150","149.99","114.08","35.91","32.97","38.4","16.92","90192","33.38","DUALSPOT-UV-BLUE-GREEN-RED-IR","771432","710169","909060","9.259928","2.626115","-0.011015","758391","898160","762910","5.065567","1.067691","-0.053863","857302","904693","813789","3.929478","0.599300","-0.127833","852222","928194","864085","3.006443","0.233793","-0.400695","726129","850314","953250","2.794092","0.576285","0.000000","9886","9231","8971","9309","7734","7313","8286","5938","5515","7241","3592","3284","7977","5745","7977",""
"MA200-0416","31053","91","1","1.10","1.4","2023-05-29T10:01:00","120","2023/05/29","10:01:00","-15.803719639778137","35.02776699513197","0.3","16","30","64","84","-9150","-11720","-22187","5","150","149.49","113.74","35.75","33.11","38.2","16.96","90196","33.44","DUALSPOT-UV-BLUE-GREEN-RED-IR","765530","706028","904340","9.493486","2.691928","-0.017799","759251","900405","765169","5.238688","1.110279","-0.072726","858076","906533","815714","4.065645","0.629329","-0.134238","854488","931505","867328","3.102558","0.248789","-0.390037","726957","851781","955093","2.869150","0.594273","0.000000","12061","10812","10318","11284","8830","8170","9939","6973","6430","8478","4208","3836","9218","7028","9218",""
"MA200-0416","31054","91","1","1.10","1.4","2023-05-29T10:01:30","120","2023/05/29","10:01:30","-15.803768277168274","35.027748327702284","0.8","16","30","64","84","-5980","-10660","-23932","5","150","150.21","114.42","35.80","33.26","37.7","16.89","90192","33.50","DUALSPOT-UV-BLUE-GREEN-RED-IR","767685","708406","907608","9.611835","2.724269","-0.022305","755710","896551","762036","5.320656","1.130527","-0.068507","858743","907546","816682","4.130489","0.641506","-0.217519","848579","925331","861596","3.151600","0.255453","-0.508043","727111","852176","955583","2.909656","0.600648","0.000000","6075","5306","5002","5310","4193","3892","4705","2824","2478","4300","1867","1653","4945","2488","4945",""
"MA200-0416","31055","91","1","1.10","1.4","2023-05-29T10:02:00","120","2023/05/29","10:02:00","-15.803960025310516","35.02783949486911","0.9","16","30","64","84","-2048","-12592","-23608","5","150","149.61","113.89","35.72","33.42","37.2","16.81","90192","33.50","DUALSPOT-UV-BLUE-GREEN-RED-IR","766471","707679","906860","9.680914","2.744232","-0.012721","754623","895628","761359","5.368675","1.142501","-0.065540","857246","906261","815590","4.168111","0.648801","-0.197927","847906","924885","861167","3.180627","0.255060","2.657843","725798","850813","954120","2.937671","0.607320","0.000000","3562","3282","3171","3125","2485","2312","2742","1695","1502","2557","-110","-343","3436","2609","3436",""
"MA200-0416","31056","91","1","1.10","1.4","2023-05-29T10:02:30","120","2023/05/29","10:02:30","-15.804033517837524","35.02784532867372","0.1","16","30","64","84","-1884","-12760","-22920","5","150","150.62","114.20","36.42","33.49","36.8","16.72","90192","33.38","DUALSPOT-UV-BLUE-GREEN-RED-IR","761292","703338","901478","9.766029","2.767011","-0.029633","756083","897762","763255","5.426873","1.154434","-0.152992","854607","903840","813471","4.215694","0.656223","-0.363562","849974","927416","863532","3.215234","0.255173","4.453322","722516","847183","950130","2.969579","0.614484","0.000000","4377","3673","3395","3777","2428","2064","3459","1691","1365","3040","31","-228","3903","2747","3903",""
"MA200-0416","31057","91","1","1.10","1.4","2023-05-29T10:03:00","120","2023/05/29","10:03:00","-15.80401462316513","35.0278451628983","0.6","16","30","64","84","-3271","-10220","-25192","5","150","149.73","114.00","35.73","33.55","36.5","16.64","90192","33.31","DUALSPOT-UV-BLUE-GREEN-RED-IR","761831","704107","902628","9.825979","2.783178","-0.024595","756472","898509","763946","5.470153","1.162893","-0.167353","853762","903219","812919","4.252136","0.660019","-0.885920","850651","928424","864474","3.240972","0.253790","1.447271","726364","851904","955446","3.000070","0.619498","-0.497966","3088","2657","2487","2814","1755","1469","2653","882","556","2265","-388","-613","3736","1960","1498",""
"MA200-0416","31058","91","1","1.10","1.4","2023-05-29T10:03:30","120","2023/05/29","10:03:30","-15.803906977176666","35.02777166105807","0.4","16","30","64","84","-4252","-14020","-22720","5","150","150.63","113.84","36.79","33.57","36.2","16.54","90184","33.25","DUALSPOT-UV-BLUE-GREEN-RED-IR","766996","709233","909397","9.895287","2.803918","-0.011664","755284","897439","763133","5.518666","1.174997","-0.073934","857631","907596","816951","4.292095","0.669604","-0.102533","848474","926297","862479","3.269893","0.257182","-0.685653","725051","850578","954022","3.030243","0.625982","-0.241323","3576","3310","3206","3159","2438","2243","2914","2162","2023","2548","924","786","3702","2461","2138",""
"MA200-0416","31059","91","1","1.10","1.4","2023-05-29T10:04:00","120","2023/05/29","10:04:00","-15.803891122341156","35.027722327038646","0.1","16","30","64","84","-475","-14268","-22588","5","150","150.43","113.80","36.62","33.58","36.0","16.43","90192","33.19","DUALSPOT-UV-BLUE-GREEN-RED-IR","765687","708244","908241","9.942247","2.816801","-0.026075","754210","896412","762300","5.554431","1.182758","-0.127072","855471","905499","815084","4.322183","0.675117","-0.241102","847175","925091","861405","3.292979","0.258731","-1.848245","723485","848909","952181","3.052881","0.630595","-0.281599","2423","2066","1924","2329","1571","1365","2195","1249","1074","2035","424","287","2778","1759","1494",""
"MA200-0416","31060","91","1","1.10","1.4","2023-05-29T10:04:30","120","2023/05/29","10:04:30","-15.803918838500977","35.027703661471605","0.2","16","30","64","84","-6111","-14203","-22373","5","150","150.69","113.60","37.09","33.62","35.8","16.38","90188","33.19","DUALSPOT-UV-BLUE-GREEN-RED-IR","763672","706702","906424","10.008131","2.834692","-0.030622","752771","895027","761203","5.601466","1.192462","-0.156712","854936","905232","814893","4.360635","0.680249","-0.536169","846486","924537","860923","3.320387","0.259459","-88.251251","722833","848241","951494","3.075161","0.636532","-0.097980","3406","2833","2607","3069","1939","1634","2810","1148","841","2420","196","8","2739","2236","2105",""
"MA200-0416","31061","91","1","1.10","1.4","2023-05-29T10:05:00","120","2023/05/29","10:05:00","-15.803973853588104","35.02773232571781","0.4","16","30","64","84","-5452","-13948","-22388","5","150","149.76","113.96","35.80","33.65","35.5","16.31","90184","33.13","DUALSPOT-UV-BLUE-GREEN-RED-IR","763393","706709","906548","10.052099","2.846801","-0.020665","757616","901050","766404","5.636055","1.200187","-0.103006","855095","905622","815326","4.388023","0.686460","-0.112084","845907","924108","860499","3.339883","0.259989","-31.329550","722510","847980","951256","3.093879","0.640798","-0.171239","2266","1986","1876","2250","1599","1423","1995","1440","1337","1716","148","16","2294","1664","1499",""
"MA200-0416","31062","91","1","1.10","1.4","2023-05-29T10:05:30","120","2023/05/29","10:05:30","-15.804012477397919","35.02777032740414","0.3","15","30","64","84","-4662","-11475","-24158","5","150","149.63","113.60","36.03","33.70","35.3","16.24","90184","33.06","DUALSPOT-UV-BLUE-GREEN-RED-IR","761711","705365","904958","10.101908","2.861724","-0.008266","756670","900152","765670","5.670547","1.208305","-0.085957","853039","903654","813601","4.419018","0.693052","-0.145062","851611","930477","866447","3.361724","0.263810","-0.281878","725221","851300","955048","3.116571","0.646175","-0.150268","2575","2432","2376","2250","1670","1513","2265","1519","1380","1928","1064","990","2790","2084","1900",""
"MA200-0416","31063","91","1","1.10","1.4","2023-05-29T10:06:00","120","2023/05/29","10:06:00","-15.804000735282898","35.02778282761574","0.0","15","30","64","84","-7675","-9496","-23684","5","150","150.56","114.09","36.47","33.66","35.2","16.16","90180","33.00","DUALSPOT-UV-BLUE-GREEN-RED-IR","760831","704917","904556","10.175776","2.884241","-0.006835","756448","900257","765910","5.725723","1.222604","-0.055402","856433","907572","817223","4.461748","0.701820","-0.165695","850549","929596","865676","3.394282","0.268834","-0.377729","724351","850491","954165","3.144916","0.652285","-0.221889","3803","3625","3555","3585","2906","2721","3109","1995","1787","2863","1382","1254","3470","2340","2044",""
"MA200-0416","31064","91","1","1.10","1.4","2023-05-29T10:06:30","120","2023/05/29","10:06:30","-15.803905189037323","35.02764949388802","1.0","15","30","64","84","-2364","-10964","-23144","5","150","150.43","114.08","36.35","33.62","34.9","16.02","90200","32.94","DUALSPOT-UV-BLUE-GREEN-RED-IR","757687","702209","901187","10.219095","2.896766","-0.014517","752931","896240","762558","5.756853","1.232259","-0.006096","854702","905872","815736","4.487980","0.709730","-0.015179","847536","926400","862757","3.414060","0.273507","-0.114475","722692","848659","952142","3.163900","0.654962","-0.748037","2230","2023","1942","2022","1969","1954","1909","1806","1787","1739","1289","1250","2324","1028","690",""
"MA200-0416","31065","91","1","1.10","1.4","2023-05-29T10:07:00","120","2023/05/29","10:07:00","-15.803855836391449","35.02733316086233","1.1","15","30","64","84","-1560","-4384","-26719","5","150","149.33","114.04","35.28","33.57","34.8","15.89","90224","32.88","DUALSPOT-UV-BLUE-GREEN-RED-IR","762780","707055","907502","10.243784","2.904539","0.002331","751515","894691","761261","5.776944","1.238161","-0.011924","853511","904714","814736","4.507297","0.716101","0.016152","845702","924514","861003","3.427058","0.275433","-0.381691","721488","847368","950705","3.178089","0.656553","-1.288023","1271","1293","1302","1306","1239","1221","1406","1499","1516","1143","547","495","1738","629","341",""
"MA200-0416","31066","91","1","1.10","1.4","2023-05-29T10:07:30","120","2023/05/29","10:07:30","-15.803816258907318","35.02708015963435","0.7","15","30","64","84","-3271","-716","-27003","5","150","150.36","113.74","36.63","33.52","34.6","15.77","90224","32.88","DUALSPOT-UV-BLUE-GREEN-RED-IR","759005","703662","903186","10.266363","2.912542","0.011996","754342","898199","764299","5.798995","1.246547","0.032301","851568","902761","813016","4.524100","0.721829","0.014378","849903","929195","865420","3.440518","0.279998","0.015922","723912","850272","953984","3.188770","0.658051","-0.772374","1166","1283","1329","1437","1697","1768","1226","1298","1311","1187","1250","1256","1311","571","378",""
"MA200-0416","31067","91","1","1.10","1.4","2023-05-29T10:08:00","120","2023/05/29","10:08:00","-15.803963840007782","35.02681982703507","0.8","15","30","64","84","-2096","16","-26647","5","150","149.94","113.63","36.31","33.49","34.4","15.68","90240","32.81","DUALSPOT-UV-BLUE-GREEN-RED-IR","761476","706289","906765","10.327011","2.931886","-0.000251","750285","893657","760555","5.842267","1.258653","-0.032288","852944","904490","814647","4.557294","0.731926","-0.013321","845231","924269","860861","3.463097","0.286006","-0.064403","721302","847298","950722","3.202673","0.663921","0.090049","3135","3129","3126","2823","2471","2375","2425","2308","2286","1993","1660","1630","1709","2258","2401",""
"MA200-0416","31068","91","1","1.10","1.4","2023-05-29T10:08:30","120","2023/05/29","10:08:30","-15.803992867469788","35.02656632848084","1.2","15","30","64","84","-1580","-5664","-25732","5","150","149.70","113.37","36.33","33.43","34.3","15.58","90252","32.69","DUALSPOT-UV-BLUE-GREEN-RED-IR","760410","705585","906112","10.397238","2.957904","0.017219","750107","893658","760691","5.888966","1.275009","0.017986","852205","903881","814225","4.593861","0.744115","0.009934","850430","930133","866380","3.490224","0.294089","-0.023823","724724","851428","955388","3.220871","0.670651","0.050544","3638","4206","4431","3053","3337","3415","2678","2785","2806","2400","2231","2216","2242","2587","2678",""
"MA200-0416","31069","91","1","1.10","1.4","2023-05-29T10:09:00","120","2023/05/29","10:09:00","-15.804058194160461","35.02624649554491","0.9","15","30","64","84","-528","-6264","-25504","5","150","149.45","113.60","35.84","33.38","34.3","15.50","90268","32.63","DUALSPOT-UV-BLUE-GREEN-RED-IR","763597","708718","910218","10.436886","2.968898","-0.019517","752659","896934","763491","5.919447","1.283485","-0.030130","853700","905628","815851","4.619902","0.751292","-0.038518","847043","926529","863089","3.508673","0.298887","-0.067736","722426","848768","952455","3.233215","0.674636","0.008859","2049","1801","1703","1988","1753","1687","1903","1662","1615","1629","1343","1316","1517","1553","1562",""
"MA200-0416","31070","91","1","1.10","1.4","2023-05-29T10:09:30","120","2023/05/29","10:09:30","-15.804068982601166","35.025976330041885","0.8","15","30","64","84","929","-7079","-26116","5","150","149.66","113.96","35.70","33.35","34.2","15.44","90292","32.50","DUALSPOT-UV-BLUE-GREEN-RED-IR","760512","705999","906852","10.469433","2.979660","0.006873","750017","893945","761028","5.948133","1.292688","0.005020","852519","904549","814936","4.643166","0.760190","0.045029","845004","924375","861174","3.527185","0.305598","0.041651","721286","847456","951028","3.242731","0.677660","0.005546","1677","1770","1807","1866","1911","1923","1694","2069","2142","1629","1886","1910","1166","1183","1187",""
"MA200-0416","31071","91","1","1.10","1.4","2023-05-29T10:10:00","120","2023/05/29","10:10:00","-15.80393898487091","35.02562349662185","0.2","15","30","64","84","1262","945","-26350","5","150","149.72","113.74","35.98","33.31","34.2","15.39","90292","32.38","DUALSPOT-UV-BLUE-GREEN-RED-IR","756210","702171","901983","10.498205","2.989168","0.005616","751860","896306","763119","5.974421","1.299631","-0.044721","854708","906947","817164","4.665709","0.767236","-0.003071","847012","926720","863375","3.543879","0.309949","-0.067397","723356","850040","953882","3.254705","0.679666","-0.450686","1485","1552","1578","1713","1430","1352","1645","1625","1622","1472","1213","1188","1470","778","596",""
"MA200-0416","31072","91","1","1.10","1.4","2023-05-29T10:10:30","120","2023/05/29","10:10:30","-15.803650557994843","35.02562416344881","1.1","15","30","64","84","967","-5564","-26363","5","150","149.61","113.32","36.29","33.26","34.0","15.29","90280","32.25","DUALSPOT-UV-BLUE-GREEN-RED-IR","760153","705964","906961","10.528509","3.000608","0.019007","749916","894108","761324","5.999493","1.311832","0.066578","852587","904826","815324","4.687613","0.777721","0.079421","845211","924793","861712","3.561839","0.321114","0.142747","721993","848454","952172","3.262647","0.682825","0.071797","1570","1851","1963","1640","2492","2731","1604","2398","2556","1590","3086","3234","979","1215","1278",""
"MA200-0416","31073","91","1","1.10","1.4","2023-05-29T10:11:00","120","2023/05/29","10:11:00","-15.803327798843384","35.025643829256296","0.7","15","30","64","84","1500","-8608","-26396","5","150","149.95","114.04","35.91","33.20","34.1","15.27","90268","32.13","DUALSPOT-UV-BLUE-GREEN-RED-IR","758022","704123","904676","10.559616","3.010948","0.006841","753836","898939","765523","6.027416","1.322286","0.032347","851032","903301","814017","4.709214","0.785094","0.019452","850327","930506","867046","3.579328","0.328439","0.074494","724820","851845","955958","3.271322","0.684845","-0.150189","1602","1691","1726","1815","2158","2254","1572","1704","1731","1538","2046","2098","1062","785","712",""
"MA200-0416","31074","91","1","1.10","1.4","2023-05-29T10:11:30","120","2023/05/29","10:11:30","-15.803296983242035","35.025486996397376","0.0","15","30","64","84","3668","-8240","-25120","5","150","150.36","114.00","36.36","33.16","34.1","15.25","90268","32.06","DUALSPOT-UV-BLUE-GREEN-RED-IR","756011","702355","902460","10.581728","3.017473","-0.011027","752420","897410","764236","6.050177","1.330167","0.016369","850161","902481","813349","4.729325","0.793664","0.060862","848340","928427","865148","3.593028","0.333273","0.029228","723720","850582","954604","3.280523","0.687091","-0.128386","1139","1054","1020","1480","1607","1642","1464","1957","2056","1205","1334","1347","1127","863","793",""
"MA200-0416","31075","91","1","1.10","1.4","2023-05-29T10:12:00","120","2023/05/29","10:12:00","-15.803299307823181","35.02544166520238","0.1","15","30","64","84","4644","3012","-25875","5","150","149.96","113.52","36.44","33.13","34.0","15.17","90272","32.06","DUALSPOT-UV-BLUE-GREEN-RED-IR","756300","702751","903102","10.611145","3.028349","0.016518","752633","897809","764642","6.072882","1.337331","-0.003659","854930","907726","818106","4.749763","0.800626","0.014445","846934","926966","863855","3.609940","0.339329","0.031365","723671","850566","954645","3.289646","0.692163","0.146246","1521","1753","1845","1482","1457","1450","1494","1586","1604","1494","1667","1685","1122","1944","2163",""
"MA200-0416","31076","91","1","1.10","1.4","2023-05-29T10:12:30","120","2023/05/29","10:12:30","-15.80330353975296","35.02541266568005","0.1","15","30","64","84","-24136","-3264","-8364","5","150","149.42","113.53","35.89","33.12","34.1","15.20","90280","32.13","DUALSPOT-UV-BLUE-GREEN-RED-IR","762709","708830","911063","10.643265","3.042642","0.034150","751662","896804","763892","6.102316","1.347744","0.021726","849551","902107","813148","4.774684","0.809717","0.032756","847107","927257","864218","3.630065","0.346696","0.040977","723477","850394","954518","3.302726","0.700565","0.171693","1661","2339","2610","1921","2150","2215","1822","2103","2160","1778","2059","2089","1609","3270","3717",""
"MA200-0416","31077","91","1","1.10","1.4","2023-05-29T10:13:00","120","2023/05/29","10:13:00","-15.803300321102142","35.025390496477485","0.0","15","30","64","84","-23448","-5136","-9496","5","150","149.61","114.08","35.53","33.09","34.2","15.24","90284","32.13","DUALSPOT-UV-BLUE-GREEN-RED-IR","756243","702993","903660","10.679323","3.055296","0.014121","752570","898075","765090","6.135284","1.359081","0.019240","854072","907085","817703","4.803360","0.820606","0.043545","847130","927470","864442","3.654353","0.355291","0.035888","723693","850676","954913","3.313816","0.704565","0.050472","1856","2091","2186","2142","2365","2429","2086","2544","2638","2136","2427","2458","1357","1572","1630",""
"MA200-0416","31078","91","1","1.10","1.4","2023-05-29T10:13:30","120","2023/05/29","10:13:30","-15.803326964378357","35.025238662958145","1.2","15","30","64","83","-23784","-3612","-2680","5","150","150.49","113.13","37.36","33.08","34.4","15.30","90284","32.06","DUALSPOT-UV-BLUE-GREEN-RED-IR","753110","700598","900814","10.729801","3.070224","-0.015993","749915","895389","762936","6.180120","1.371925","-0.033262","848584","901616","812926","4.840702","0.830674","-0.058858","844241","924599","861885","3.683149","0.363588","-0.044795","723035","850065","954286","3.329092","0.710680","0.063818","2620","2346","2236","2938","2548","2437","2740","2237","2132","2553","2227","2192","1886","2286","2395",""
"MA200-0416","31079","91","1","1.10","1.4","2023-05-29T10:14:00","120","2023/05/29","10:14:00","-15.80336582660675","35.025241665542126","0.1","15","30","64","84","-24768","-4732","-4476","5","150","150.21","114.17","36.05","33.08","34.6","15.39","90288","32.00","DUALSPOT-UV-BLUE-GREEN-RED-IR","751060","701941","904616","11.397091","3.287330","0.003609","749283","897460","765672","6.603154","1.493543","-0.019784","847066","902342","814378","5.175913","0.923132","-0.035114","845370","927728","865472","3.947316","0.435346","-0.047155","719212","846669","950956","3.496769","0.756764","-0.056617","34329","35377","35802","27468","25012","24294","24376","21296","20627","23214","19972","19571","20516","17859","17126",""
"MA200-0416","31080","91","1","1.10","1.4","2023-05-29T10:14:30","120","2023/05/29","10:14:30","-15.803374648094177","35.02525849826634","0.0","15","30","64","83","-24752","-4688","-4368","5","150","150.19","113.97","36.22","33.15","34.8","15.53","90284","32.00","DUALSPOT-UV-BLUE-GREEN-RED-IR","749455","701878","905527","11.749702","3.408859","0.009041","742294","890393","760168","6.843843","1.568138","-0.004878","846850","903166","815603","5.372393","0.982475","-0.012065","838898","921505","860053","4.105538","0.482266","-0.020001","719754","847808","952497","3.597997","0.788580","-0.004014","18172","19706","20332","15656","15266","15150","14313","13601","13442","13928","12995","12871","12408","12270","12231",""
"MA200-0416","31081","91","1","1.10","1.4","2023-05-29T10:15:00","120","2023/05/29","10:15:00","-15.803370356559753","35.02525816299021","0.1","15","30","64","84","-24744","-4696","-3780","5","150","149.67","113.36","36.31","33.26","34.9","15.67","90288","32.06","DUALSPOT-UV-BLUE-GREEN-RED-IR","747501","701993","906915","11.977583","3.486101","0.006323","741672","891201","761409","6.988682","1.610523","-0.018123","844834","902237","815135","5.481959","1.012253","-0.041661","837710","921171","860056","4.190424","0.504338","-0.065011","718552","846941","951824","3.654581","0.807573","0.015810","11807","12493","12775","9472","8652","8407","8024","6808","6532","7512","6098","5904","6973","7306","7400",""
"MA200-0416","31082","91","1","1.10","1.4","2023-05-29T10:15:30","120","2023/05/29","10:15:30","-15.803364872932434","35.025252997875214","0.1","15","30","64","84","-24762","-4612","-4379","5","150","149.40","114.09","35.31","33.38","35.0","15.83","90292","32.06","DUALSPOT-UV-BLUE-GREEN-RED-IR","716961","691618","906995","16.273203","5.013979","0.010892","722766","883818","761366","9.622232","2.449602","0.003929","827862","896746","815235","7.562101","1.644468","-0.003139","825064","917759","860949","5.841134","0.986546","-0.012437","710897","844552","952126","4.771074","1.128262","-0.021853","221156","254120","268800","171128","176141","177853","151377","148631","147867","145164","136993","135333","136712","126856","123803",""
"MA200-0416","31083","91","1","1.10","1.4","2023-05-29T10:16:00","120","2023/05/29","10:16:00","-15.803353548049927","35.02525532990694","0.0","15","30","64","83","-25004","-4864","-3720","5","150","150.21","114.29","35.92","33.49","34.9","15.87","90288","32.13","DUALSPOT-UV-BLUE-GREEN-RED-IR","718609","693240","909112","16.383001","5.055544","0.013934","723845","885305","762691","9.709457","2.475721","-0.006971","828218","897296","815749","7.634986","1.663398","-0.037355","825942","918884","861964","5.900619","0.998830","-0.119119","710845","844621","952260","4.820961","1.141204","-0.061482","5642","6796","7311","5657","5390","5298","5294","4375","4119","5221","3431","3066","6097","5033","4703",""
"MA200-0416","31084","91","1","1.10","1.4","2023-05-29T10:16:30","120","2023/05/29","10:16:30","-15.803348004817963","35.0252496637404","0.0","15","30","64","83","-24792","-3876","-4828","5","150","149.67","114.04","35.63","33.62","34.7","15.90","90292","32.19","DUALSPOT-UV-BLUE-GREEN-RED-IR","710166","690539","909719","17.590090","5.493385","0.010785","719388","883970","763178","10.370376","2.685928","0.002290","824153","896078","815871","8.128107","1.809459","-0.008808","823030","918192","862292","6.278464","1.105779","-0.020518","709005","844083","952362","5.083099","1.215433","-0.027611","62170","72180","76726","42963","43738","44008","35899","34035","33501","33241","30115","29447","32111","29103","28158",""
"MA200-0416","31085","91","1","1.10","1.4","2023-05-29T10:17:00","120","2023/05/29","10:17:00","-15.803348243236542","35.02523699589074","0.0","15","30","64","83","-24762","-3904","-4295","5","150","150.03","114.20","35.83","33.75","34.5","15.91","90292","32.25","DUALSPOT-UV-BLUE-GREEN-RED-IR","709440","689911","908918","17.656968","5.517332","0.009659","718277","882748","762136","10.418871","2.696550","-0.065960","823728","895819","815618","8.165569","1.814668","-0.308547","821363","916506","860660","6.305290","1.104986","0.644107","708075","843107","951291","5.115061","1.223004","-0.092795","3439","3925","4146","3148","2197","1865","2723","1207","773","2356","-221","-769","3909","2952","2651",""
"MA200-0416","31086","91","1","1.10","1.4","2023-05-29T10:17:30","120","2023/05/29","10:17:30","-15.803348660469055","35.025234665721655","0.0","15","30","64","83","-24824","-3948","-4168","5","150","150.56","114.20","36.36","33.85","34.1","15.84","90288","32.25","DUALSPOT-UV-BLUE-GREEN-RED-IR","703320","684949","903058","17.749118","5.549015","0.005872","718350","883928","763533","10.498198","2.717662","-0.027066","819643","892284","812688","8.224959","1.825940","-0.131230","824120","920346","864471","6.350193","1.110964","-0.376642","708752","844507","953080","5.160713","1.232459","-0.164464","4739","5118","5291","5149","4304","4010","4317","2573","2076","3944","1649","1163","5584","3632","3020",""
"MA200-0416","31087","91","1","1.10","1.4","2023-05-29T10:18:00","120","2023/05/29","10:18:00","-15.80335009098053","35.02523383125663","0.0","15","30","64","83","-24876","-3436","-4352","5","150","149.76","114.48","35.28","33.93","33.8","15.75","90292","32.25","DUALSPOT-UV-BLUE-GREEN-RED-IR","703523","685416","903893","17.942068","5.615869","0.008532","718598","884653","764247","10.651906","2.761613","-0.010148","823446","896835","816918","8.360911","1.860743","-0.033327","824444","921091","865202","6.461173","1.134824","-0.089694","708530","844544","953202","5.252674","1.253447","-0.098441","9899","11128","11688","9953","9234","8982","9859","8189","7710","9726","6784","6157","11221","8309","7396",""
"MA200-0416","31088","91","1","1.10","1.4","2023-05-29T10:18:30","120","2023/05/29","10:18:30","-15.8033407330513","35.025241665542126","0.0","15","30","64","83","-24880","-3239","-4292","5","150","149.63","114.48","35.15","34.02","33.4","15.68","90292","32.31","DUALSPOT-UV-BLUE-GREEN-RED-IR","702951","685649","904690","17.952114","5.619123","0.004119","718039","884613","764454","10.668909","2.764005","-0.255491","823023","896862","817044","8.370704","1.858210","0.206791","824159","921120","865302","6.466065","1.130264","0.194404","707945","844103","952816","5.270141","1.256784","-0.186874","515","543","556","1101","504","295","710","-598","-971","428","-1301","-1667","2131","1326","1073",""
"MA200-0416","31089","91","1","1.10","1.4","2023-05-29T10:19:00","120","2023/05/29","10:19:00","-15.803343415260315","35.0252371635288","0.0","15","30","64","83","-25196","-3764","-2636","5","150","149.47","114.67","34.80","34.09","33.1","15.60","90288","32.31","DUALSPOT-UV-BLUE-GREEN-RED-IR","698723","684479","905524","18.804896","5.934400","0.012853","716055","884173","764924","11.093806","2.901161","0.007146","821785","897047","817858","8.677597","1.951830","0.000760","823366","921470","866093","6.695141","1.193994","-0.016862","707534","844502","953602","5.436384","1.301047","-0.035382","43680","53209","57602","27468","29215","29834","22219","22333","22366","20042","18371","18009","20252","17766","16984",""
"MA200-0416","31090","91","1","1.10","1.4","2023-05-29T10:19:30","120","2023/05/29","10:19:30","-15.803347826004028","35.02524349652231","0.0","15","30","64","83","-24920","-3468","-4240","5","150","149.39","114.32","35.07","34.17","32.8","15.53","90292","32.38","DUALSPOT-UV-BLUE-GREEN-RED-IR","699225","684865","905971","18.785912","5.926105","0.020377","716475","884747","765400","11.095639","2.897358","0.099608","817111","891955","813221","8.679665","1.948475","0.131419","823688","921899","866409","6.694463","1.188307","0.144857","706906","843845","952890","5.447170","1.300900","0.676985","-975","-1389","-1580","118","-803","-1129","150","-794","-1067","-59","-1626","-1965","1318","-58","-490",""
"MA200-0416","31091","91","1","1.10","1.4","2023-05-29T10:20:00","120","2023/05/29","10:20:00","-15.803338348865509","35.02525416389108","0.1","15","30","64","83","-24852","-3236","-4376","5","150","149.63","115.16","34.48","34.24","32.7","15.53","90288","32.38","DUALSPOT-UV-BLUE-GREEN-RED-IR","683144","679211","906981","21.225542","6.869495","0.014194","709236","882540","766522","12.257230","3.294002","0.013153","814552","894118","817390","9.506775","2.218752","0.011213","818783","920341","866652","7.315189","1.382815","0.007437","703624","842441","952545","5.877771","1.433715","0.006544","124435","160723","178087","74779","85289","89152","59631","65086","66747","54079","56603","57191","52236","53816","54325",""
"MA200-0416","31092","91","1","1.10","1.4","2023-05-29T10:20:30","120","2023/05/29","10:20:30","-15.803341627120972","35.02525566332042","0.1","15","30","64","83","-24912","-3492","-4340","5","150","150.05","114.95","35.10","34.31","32.5","15.50","90288","32.38","DUALSPOT-UV-BLUE-GREEN-RED-IR","679968","677683","906409","21.522296","6.989059","0.014930","701506","874111","759716","12.413796","3.346824","0.010131","809049","888971","813030","9.614653","2.252131","0.001798","810757","911966","859007","7.390078","1.402312","-0.030058","702747","841809","952059","5.934997","1.450779","-0.005361","15162","20010","22341","10096","11157","11549","7791","7896","7928","6536","5573","5348","6954","6792","6739",""
"MA200-0416","31093","91","1","1.10","1.4","2023-05-29T10:21:00","120","2023/05/29","10:21:00","-15.803339064121246","35.025253497064114","0.0","15","30","64","83","-24880","-3255","-4540","5","150","149.96","114.80","35.16","34.38","32.4","15.52","90288","32.44","DUALSPOT-UV-BLUE-GREEN-RED-IR","680921","679839","910233","21.908190","7.135793","0.012031","702859","876762","762378","12.620688","3.412933","0.004422","809683","890415","814603","9.760729","2.293645","-0.010680","812928","914983","862056","7.498514","1.430898","-0.027752","703871","843550","954157","6.015455","1.472851","-0.026679","19744","24509","26811","13360","13936","14150","10564","9801","9567","9476","8155","7844","9790","8768","8436",""
"MA200-0416","31094","91","1","1.10","1.4","2023-05-29T10:21:30","120","2023/05/29","10:21:30","-15.803341627120972","35.02525049820542","0.0","15","30","64","83","-25004","-3444","-4364","5","150","149.46","114.75","34.71","34.45","32.3","15.52","90284","32.44","DUALSPOT-UV-BLUE-GREEN-RED-IR","669655","671859","902307","22.249302","7.265178","0.012308","700248","876071","762975","12.825119","3.480541","0.008855","807516","889983","815094","9.909517","2.339684","0.002943","811873","915383","863062","7.606704","1.461649","-0.010615","702965","843490","954661","6.097358","1.498488","0.007234","17459","21894","24043","13206","14439","14898","10764","11011","11088","9458","8888","8752","9970","10317","10430",""
"MA200-0416","31095","91","1","1.10","1.4","2023-05-29T10:22:00","120","2023/05/29","10:22:00","-15.803341925144196","35.025245163589716","0.1","15","30","64","83","-24940","-3287","-4172","5","150","149.39","114.92","34.47","34.53","32.3","15.57","90284","32.50","DUALSPOT-UV-BLUE-GREEN-RED-IR","666164","671487","904555","23.457482","7.740618","0.013543","698572","876248","764182","13.460984","3.703476","0.014037","806640","890841","816723","10.391026","2.500599","0.012577","811505","916437","864739","7.980621","1.581460","0.009831","698433","839056","950136","6.362846","1.582483","0.010682","61752","81016","90503","41019","47946","50576","34787","38758","40016","32644","34873","35423","32273","34041","34626",""
"MA200-0416","31096","91","1","1.10","1.4","2023-05-29T10:22:30","120","2023/05/29","10:22:30","-15.803339183330536","35.025240330025554","0.0","15","30","64","83","-24988","-3148","-4584","5","150","149.92","114.46","35.46","34.61","32.2","15.61","90284","32.56","DUALSPOT-UV-BLUE-GREEN-RED-IR","663246","671383","906865","24.110128","7.998089","0.012038","692832","870887","760344","13.759434","3.804708","0.008417","800458","885328","812213","10.594994","2.567594","0.006940","811327","917259","865904","8.130626","1.628196","0.000852","697758","838894","950311","6.472399","1.617440","0.005917","33491","42643","47186","19330","21161","21861","14794","15684","15968","13148","13221","13240","13370","13770","13903",""
"MA200-0416","31097","91","1","1.10","1.4","2023-05-29T10:23:00","120","2023/05/29","10:23:00","-15.8033407330513","35.02523633092642","0.0","15","30","64","83","-25104","-3096","-3955","5","150","149.80","114.54","35.25","34.67","32.1","15.62","90280","32.56","DUALSPOT-UV-BLUE-GREEN-RED-IR","662117","671625","908477","24.519422","8.159582","0.012115","692485","871437","761239","13.956407","3.871030","0.008246","799665","885168","812331","10.728474","2.609926","0.003599","811379","917866","866700","8.227532","1.656258","-0.009719","697369","838774","950345","6.545135","1.639802","-0.000222","20987","26905","29857","12748","13946","14406","9674","9968","10063","8487","7985","7859","8870","8861","8857",""
"MA200-0416","31098","91","1","1.10","1.4","2023-05-29T10:23:30","120","2023/05/29","10:23:30","-15.803347408771515","35.02523549646139","0.1","15","30","64","82","-24844","-2736","-4580","5","150","150.43","115.16","35.27","34.74","32.1","15.65","90284","32.63","DUALSPOT-UV-BLUE-GREEN-RED-IR","661460","670982","907588","24.505288","8.153677","0.014403","691630","870535","760497","13.978136","3.874607","-0.127212","804158","890325","817136","10.750165","2.611678","-3.298651","804205","909893","859137","8.239579","1.653045","0.211918","697360","838892","950513","6.558719","1.641383","-0.729848","-720","-983","-1114","1398","751","503","1563","412","42","1049","-913","-1406","1647","625","284",""
"MA200-0416","31099","91","1","1.10","1.4","2023-05-29T10:24:00","120","2023/05/29","10:24:00","-15.803342044353485","35.02524499967694","0.0","15","30","64","83","-24966","-2633","-4300","5","150","150.21","114.25","35.96","34.79","31.9","15.61","90276","32.63","DUALSPOT-UV-BLUE-GREEN-RED-IR","664262","673732","911266","24.499402","8.149399","0.027036","693978","873604","763205","13.998336","3.878385","-0.091368","800980","886922","813996","10.768795","2.614086","-0.325976","806499","912562","861668","8.252735","1.653778","4.282790","697875","839562","951285","6.571398","1.642964","-0.628372","-302","-698","-896","1310","778","575","1353","555","300","1155","204","-33","1550","614","302",""
"MA200-0416","31100","91","1","1.10","1.4","2023-05-29T10:24:30","120","2023/05/29","10:24:30","-15.803350746631622","35.02524599805474","0.0","15","30","64","83","-24932","-3132","-4240","5","150","149.45","114.52","34.93","34.82","31.7","15.56","90276","32.69","DUALSPOT-UV-BLUE-GREEN-RED-IR","664051","673459","910786","24.478812","8.138702","0.020960","693495","873100","762765","14.009965","3.878904","0.466627","800525","886484","813586","10.778075","2.612488","0.179907","807064","913294","862335","8.257690","1.649969","0.156723","697985","839809","951592","6.581264","1.644545","-0.261655","-1056","-1798","-2168","752","110","-135","672","-379","-716","434","-1094","-1475","1203","632","442",""
"MA200-0416","31101","91","1","1.10","1.4","2023-05-29T10:25:00","120","2023/05/29","10:25:00","-15.803360342979431","35.025249829515815","0.0","15","30","64","82","-24952","-3216","-4556","5","150","149.70","114.32","35.38","34.88","31.6","15.55","90276","32.75","DUALSPOT-UV-BLUE-GREEN-RED-IR","659495","668776","904371","24.462312","8.130708","0.018750","694082","873948","763465","14.019773","3.879398","0.525361","801925","888160","815121","10.788544","2.612912","0.722739","808382","914866","863774","8.263395","1.647436","0.180311","698890","840976","952874","6.588947","1.643843","0.360880","-847","-1327","-1565","635","103","-99","760","99","-111","500","-718","-1021","938","-277","-681",""
"MA200-0416","31102","91","1","1.10","1.4","2023-05-29T10:25:30","120","2023/05/29","10:25:30","-15.803361177444458","35.02525666542351","0.0","15","30","64","82","-24816","-3287","-4120","5","150","150.62","114.56","36.06","34.93","31.6","15.57","90272","32.75","DUALSPOT-UV-BLUE-GREEN-RED-IR","660464","670067","906366","24.518814","8.152118","0.009535","695450","875944","765352","14.061952","3.890932","-0.015797","801456","887886","814954","10.819508","2.618783","-0.102042","808986","915754","864640","8.286161","1.649385","-1.205909","698542","840660","952586","6.607118","1.648476","-0.051348","2896","3486","3780","2729","2370","2233","2243","1351","1066","1993","542","181","2215","1794","1654",""
"MA200-0416","31103","91","1","1.10","1.4","2023-05-29T10:26:00","120","2023/05/29","10:26:00","-15.803353548049927","35.025255830958486","0.0","15","30","64","82","-25026","-3250","-4288","5","150","149.62","114.31","35.31","35.01","31.5","15.62","90272","32.88","DUALSPOT-UV-BLUE-GREEN-RED-IR","657928","669027","906307","24.899674","8.300993","0.011437","689009","869006","759828","14.267262","3.959047","0.006515","801098","888401","815791","10.970427","2.665853","0.001152","808005","915364","864560","8.397029","1.681423","-0.010449","698412","840956","953173","6.685873","1.674387","0.011948","19569","24764","27362","13315","14300","14679","10961","11067","11101","9730","9103","8945","9624","10250","10460",""
"MA200-0416","31104","91","1","1.10","1.4","2023-05-29T10:26:30","120","2023/05/29","10:26:30","-15.803359568119049","35.02525249682367","0.0","15","30","64","82","-24983","-3145","-4675","5","150","150.13","114.39","35.74","35.12","31.5","15.68","90264","32.94","DUALSPOT-UV-BLUE-GREEN-RED-IR","652970","665759","903429","25.248016","8.437346","0.010896","690534","872082","763034","14.432950","4.013670","0.004906","797755","885503","813497","11.084514","2.700424","-0.003760","805273","912920","862481","8.477277","1.704162","-0.015573","699845","843118","955843","6.748237","1.694547","0.006535","17887","22406","24675","10738","11329","11556","8280","8030","7949","7038","6382","6217","7616","7879","7967",""
"MA200-0416","31105","91","1","1.10","1.4","2023-05-29T10:27:00","120","2023/05/29","10:27:00","-15.803346872329712","35.025260331109166","0.0","15","30","64","82","-24973","-3142","-4676","5","150","150.23","114.48","35.75","35.24","31.6","15.85","90264","33.06","DUALSPOT-UV-BLUE-GREEN-RED-IR","651429","666720","907006","25.793266","8.654928","0.011435","690637","874201","765791","14.717798","4.110664","0.007580","797964","887270","815744","11.285275","2.763211","0.000183","805966","914885","864799","8.622994","1.745277","-0.015943","696048","839223","951837","6.849210","1.729083","0.016513","27975","35750","39677","18445","20115","20761","14559","14582","14589","12770","11539","11226","12321","13495","13892",""
"MA200-0416","31106","91","1","1.10","1.4","2023-05-29T10:27:30","120","2023/05/29","10:27:30","-15.803350865840912","35.02526399679482","0.0","15","30","64","82","-25052","-3284","-4572","5","150","149.80","114.42","35.38","35.38","31.7","16.04","90252","33.19","DUALSPOT-UV-BLUE-GREEN-RED-IR","651027","668073","910444","26.386146","8.892345","0.011672","685755","869396","762201","15.043803","4.221683","0.008207","797165","887476","816395","11.527395","2.839899","0.002713","801428","910601","861101","8.803447","1.799040","-0.005456","696834","840684","953781","6.971174","1.767199","0.002029","30435","39415","43979","21122","23262","24097","17568","17995","18135","15822","15245","15097","14890","15050","15104",""
"MA200-0416","31107","91","1","1.10","1.4","2023-05-29T10:28:00","120","2023/05/29","10:28:00","-15.803353369235992","35.025260331109166","0.0","15","30","64","82","-24808","-3108","-4896","5","150","150.08","114.38","35.70","35.52","31.7","16.12","90256","33.31","DUALSPOT-UV-BLUE-GREEN-RED-IR","645284","663551","905630","26.592064","8.977861","0.012520","686799","871809","764778","15.163448","4.261028","0.004577","793851","884544","814038","11.609093","2.863543","-0.009203","802564","912462","863044","8.856430","1.810711","-0.066280","697628","842047","955489","7.015594","1.781010","-0.000733","10574","14070","15852","7754","8170","8333","5930","5498","5357","4647","3279","2928","5425","5404","5397",""
"MA200-0416","31108","91","1","1.10","1.4","2023-05-29T10:28:30","120","2023/05/29","10:28:30","-15.803349077701569","35.025254828855395","0.0","15","30","64","82","-25032","-2924","-4592","5","150","150.03","114.16","35.87","35.67","31.6","16.22","90256","33.44","DUALSPOT-UV-BLUE-GREEN-RED-IR","643920","663295","906401","27.072972","9.178509","0.012250","681168","865547","759674","15.399642","4.342853","0.008124","793895","885301","814969","11.773531","2.914434","-0.001721","804059","914680","865256","8.970961","1.841205","-0.026479","693394","837216","950189","7.097992","1.807388","0.003490","24742","32858","37020","15337","16912","17530","11958","11779","11721","10065","8529","8133","10082","10273","10338",""
"MA200-0416","31109","91","1","1.10","1.4","2023-05-29T10:29:00","120","2023/05/29","10:29:00","-15.80334585905075","35.025254828855395","0.0","15","30","64","82","-24848","-3260","-4984","5","150","150.01","114.63","35.38","35.81","31.4","16.27","90256","33.56","DUALSPOT-UV-BLUE-GREEN-RED-IR","642088","661788","904700","27.168786","9.216827","0.011381","684273","869940","763673","15.464821","4.360748","-0.011764","795714","887666","817223","11.820201","2.923875","-0.071431","801697","912249","863030","9.003228","1.844298","-0.723778","695316","839794","953206","7.132023","1.815303","-0.069222","4909","6361","7107","4215","3749","3566","3380","2215","1832","2824","877","375","4147","3125","2776",""
"MA200-0416","31110","91","1","1.10","1.4","2023-05-29T10:29:30","120","2023/05/29","10:29:30","-15.803352892398834","35.0252591650933","0.0","15","30","64","82","-24820","-3004","-4572","5","150","150.68","114.23","36.45","35.94","31.4","16.35","90256","33.69","DUALSPOT-UV-BLUE-GREEN-RED-IR","645440","665296","909485","27.175540","9.216145","0.073875","682032","867230","761317","15.487890","4.362274","0.688180","793767","885671","815369","11.837869","2.921652","0.183716","804557","915685","866202","9.014675","1.837640","0.154508","696953","841898","955588","7.149460","1.817979","-0.320302","347","-110","-344","1497","310","-155","1284","-506","-1093","1005","-1832","-2559","2132","1025","648",""
"MA200-0416","31111","91","1","1.10","1.4","2023-05-29T10:30:00","120","2023/05/29","10:30:00","-15.803357362747192","35.02524699643254","0.0","15","30","64","82","-24879","-3208","-4287","5","150","149.86","114.19","35.67","36.04","31.1","16.29","90256","33.75","DUALSPOT-UV-BLUE-GREEN-RED-IR","641460","661276","904019","27.190876","9.219927","-0.017167","683755","869633","763439","15.511685","4.367113","-0.060822","793977","886069","815767","11.857413","2.922177","0.480246","799963","910611","861395","9.027946","1.833790","0.188742","693231","837508","950634","7.168976","1.819401","5.213573","788","622","537","1544","1005","794","1420","122","-302","1166","-1083","-1656","2387","556","-65",""
"MA200-0416","31112","91","1","1.10","1.4","2023-05-29T10:30:30","120","2023/05/29","10:30:30","-15.803359568119049","35.02525166422129","0.0","15","30","64","82","-24922","-3182","-4442","5","150","150.10","114.12","35.98","36.12","30.8","16.20","90260","33.81","DUALSPOT-UV-BLUE-GREEN-RED-IR","643529","663403","906891","27.190384","9.216763","0.035565","685091","871496","765083","15.533623","4.369270","-1.448865","794912","887262","816855","11.878150","2.923464","1.373651","801785","912782","863430","9.042477","1.832318","0.278900","693922","838513","951779","7.186632","1.820674","4.322580","-25","-516","-768","1425","444","60","1508","297","-98","1277","-410","-839","2161","493","-71",""
"MA200-0416","31113","91","1","1.10","1.4","2023-05-29T10:31:00","120","2023/05/29","10:31:00","-15.803366601467133","35.025257498025894","0.0","15","30","64","82","-24968","-3044","-4392","5","150","149.24","114.16","35.08","36.19","30.5","16.12","90256","33.88","DUALSPOT-UV-BLUE-GREEN-RED-IR","642856","662673","905812","27.177846","9.208420","0.023472","684330","870591","764337","15.542889","4.367840","0.123390","790625","882598","812528","11.888317","2.922355","0.189718","802357","913548","864081","9.045944","1.826250","0.125512","693813","838466","951721","7.196346","1.820077","0.368352","-645","-1396","-1781","601","-302","-655","739","-262","-589","304","-1735","-2251","1188","-237","-720",""
"MA200-0416","31114","91","1","1.10","1.4","2023-05-29T10:31:30","120","2023/05/29","10:31:30","-15.803367555141449","35.02525616437197","0.0","15","30","64","82","-24828","-3216","-4460","5","150","149.53","113.96","35.56","36.25","30.3","16.06","90264","33.94","DUALSPOT-UV-BLUE-GREEN-RED-IR","646185","666224","910714","27.192372","9.210686","-0.114171","681489","867165","761370","15.569507","4.373514","-0.050611","792391","884739","814552","11.909991","2.924000","27.638239","798148","908953","859721","9.062198","1.825338","0.341483","695098","840134","953656","7.212438","1.821595","-1.952347","748","374","182","1731","1182","968","1579","384","-4","1430","-257","-683","1972","595","130",""
"MA200-0416","31115","91","1","1.10","1.4","2023-05-29T10:32:00","120","2023/05/29","10:32:00","-15.803362429141998","35.025259332731366","0.0","15","30","64","82","-24900","-2973","-4876","5","150","149.63","113.80","35.83","36.25","30.0","15.91","90260","33.94","DUALSPOT-UV-BLUE-GREEN-RED-IR","635321","658024","902307","27.659062","9.397743","0.010580","678843","866417","761892","15.866178","4.474962","0.006753","789807","883934","814731","12.145919","3.000670","0.003379","796544","908809","860361","9.251060","1.883030","-0.004190","693829","839767","953783","7.349922","1.862576","-0.010436","24086","30665","34051","19325","20990","21644","17211","17766","17948","16649","16155","16028","16876","15978","15674",""
"MA200-0416","31116","91","1","1.10","1.4","2023-05-29T10:32:30","120","2023/05/29","10:32:30","-15.803360044956207","35.025261333212256","0.1","15","30","64","82","-24900","-2692","-4892","5","150","149.73","113.96","35.77","36.31","29.8","15.88","90260","33.94","DUALSPOT-UV-BLUE-GREEN-RED-IR","634788","658104","903095","28.135476","9.596485","0.011840","678586","866635","762378","16.132629","4.571188","0.010768","789114","883688","814768","12.352060","3.069990","0.007028","796735","909523","861177","9.412212","1.931893","-0.004733","693357","839540","953684","7.467727","1.897820","-0.008960","24553","32636","36819","17332","19943","20976","15017","16090","16445","14186","13706","13581","14440","13764","13534",""
"MA200-0416","31117","91","1","1.10","1.4","2023-05-29T10:33:00","120","2023/05/29","10:33:00","-15.803362548351288","35.0252643302083","0.0","15","30","64","82","-24803","-3119","-4961","5","150","150.28","114.04","36.24","36.27","29.5","15.67","90264","34.00","DUALSPOT-UV-BLUE-GREEN-RED-IR","635767","659090","904357","28.125298","9.590626","0.019624","679086","867355","763076","16.151981","4.577577","0.003200","789955","884753","815806","12.369502","3.075414","-0.002359","796435","909277","861019","9.424571","1.935022","-0.036455","693702","840056","954260","7.479547","1.898604","2.344401","-524","-949","-1169","1257","1307","1326","1269","1242","1233","1087","866","809","1447","302","-87",""
"MA200-0416","31118","91","1","1.10","1.4","2023-05-29T10:33:30","120","2023/05/29","10:33:30","-15.803363680839539","35.025254828855395","0.1","15","30","64","82","-24732","-3084","-4688","5","150","149.87","113.75","36.12","36.25","29.3","15.52","90260","33.94","DUALSPOT-UV-BLUE-GREEN-RED-IR","635550","658868","904012","28.121876","9.587160","0.027334","678689","866998","762805","16.172480","4.583597","-0.007214","789658","884524","815628","12.390332","3.082227","0.003119","797239","910269","861970","9.441790","1.939540","-0.029597","693886","840391","954647","7.488552","1.896464","0.233076","-176","-563","-763","1335","1235","1196","1520","1566","1581","1518","1255","1186","1105","-827","-1483",""
"MA200-0416","31119","91","1","1.10","1.4","2023-05-29T10:34:00","120","2023/05/29","10:34:00","-15.803358614444733","35.02525049820542","0.0","15","30","64","82","-24752","-2868","-4536","5","150","149.72","114.00","35.72","36.19","29.0","15.34","90260","33.94","DUALSPOT-UV-BLUE-GREEN-RED-IR","634475","658288","903795","28.250366","9.639080","0.010811","677659","866123","762279","16.251305","4.613643","0.014289","789357","884582","815863","12.451742","3.104519","0.014007","796160","909345","861268","9.487373","1.956248","0.018573","693647","840278","954584","7.519706","1.905145","-0.023134","6620","8537","9530","5125","6236","6676","4472","5181","5417","4011","4692","4869","3817","3395","3251",""
"MA200-0416","31120","91","1","1.10","1.4","2023-05-29T10:34:30","120","2023/05/29","10:34:30","-15.80336320400238","35.02525566332042","0.0","15","30","64","82","-25004","-3076","-4164","5","150","150.09","114.20","35.89","36.15","29.0","15.28","90260","33.88","DUALSPOT-UV-BLUE-GREEN-RED-IR","637779","662715","910803","28.396606","9.699400","0.011331","676594","865498","762097","16.337690","4.643720","0.008009","787434","882955","814645","12.515199","3.128558","0.017169","800999","915304","867079","9.533895","1.972395","0.012188","692095","838624","952862","7.543735","1.913948","0.024066","7521","9870","11089","5607","6212","6451","4613","5560","5875","4087","4513","4624","2939","3425","3591",""
"MA200-0416","31121","91","1","1.10","1.4","2023-05-29T10:35:00","120","2023/05/29","10:35:00","-15.803364515304565","35.02524999901652","0.0","15","30","64","82","-24968","-3020","-4472","5","150","150.49","114.04","36.45","36.13","28.9","15.24","90260","33.88","DUALSPOT-UV-BLUE-GREEN-RED-IR","631164","656417","902755","28.655002","9.810249","0.011947","676314","865576","762421","16.467936","4.695230","0.015142","787486","883245","815121","12.600767","3.159910","0.012977","800919","915408","867322","9.595258","1.996344","0.022756","692857","839626","954080","7.577659","1.926719","0.025429","13308","17863","20235","8466","10477","11278","6229","7141","7447","5398","6592","6906","4155","4895","5147",""
"MA200-0416","31122","91","1","1.10","1.4","2023-05-29T10:35:30","120","2023/05/29","10:35:30","-15.803357005119324","35.0252418294549","0.1","15","30","64","81","-24884","-2892","-4292","5","150","149.45","113.64","35.80","36.14","29.0","15.27","90260","33.88","DUALSPOT-UV-BLUE-GREEN-RED-IR","635496","660870","908856","28.662944","9.812355","-0.011069","674644","863539","760644","16.490730","4.701603","-0.011348","785892","881526","813584","12.618511","3.167193","0.022821","791985","905251","857715","9.607496","2.000427","0.007228","691217","837590","951798","7.579233","1.929795","0.115410","410","345","311","1486","1319","1252","1296","1688","1820","1080","1144","1161","193","1200","1543",""
"MA200-0416","31123","91","1","1.10","1.4","2023-05-29T10:36:00","120","2023/05/29","10:36:00","-15.803375542163849","35.02525566332042","0.1","15","30","64","82","-24800","-2956","-4368","5","150","149.63","114.12","35.51","36.14","29.0","15.27","90260","33.88","DUALSPOT-UV-BLUE-GREEN-RED-IR","631320","656519","902816","28.654290","9.807856","0.017619","676105","865497","762397","16.504642","4.706514","0.009599","787443","883385","815296","12.632284","3.170334","-0.043848","793784","907387","859769","9.617722","2.002763","-0.052498","692671","839356","953795","7.581188","1.931528","0.094007","-445","-744","-899","903","1025","1073","1001","734","644","898","660","597","239","681","832",""
"MA200-0416","31124","91","1","1.10","1.4","2023-05-29T10:36:30","120","2023/05/29","10:36:30","-15.803378701210022","35.02526399679482","0.1","15","30","64","81","-24979","-2566","-3858","5","150","150.14","114.17","35.98","36.16","28.9","15.27","90256","33.88","DUALSPOT-UV-BLUE-GREEN-RED-IR","636515","661961","910325","28.654950","9.808428","0.025371","675442","864798","761826","16.521633","4.711664","-0.003415","787299","883344","815310","12.647072","3.174584","-0.010527","794398","908128","860536","9.628373","2.005380","-0.040096","692769","839507","954036","7.586754","1.936351","0.092466","33","93","124","1103","1061","1044","1075","980","948","936","729","675","681","1873","2281",""
"MA200-0416","31125","91","1","1.10","1.4","2023-05-29T10:37:00","120","2023/05/29","10:37:00","-15.803377032279968","35.02526249922812","0.1","15","30","64","82","-24800","-2679","-4475","5","150","150.14","114.21","35.93","36.15","28.8","15.19","90256","33.81","DUALSPOT-UV-BLUE-GREEN-RED-IR","635912","661277","909404","28.656044","9.809917","0.029133","674629","863782","760975","16.537138","4.716558","0.000280","786266","882233","814313","12.659997","3.178215","-0.013197","793653","907323","859790","9.636367","2.007234","-0.051582","692220","838866","953328","7.593059","1.939509","0.058309","56","243","340","1006","1009","1011","939","838","805","702","517","469","771","1227","1384",""
"MA200-0416","31126","91","1","1.10","1.4","2023-05-29T10:37:30","120","2023/05/29","10:37:30","-15.803290784358978","35.02538449689746","0.3","15","30","64","82","-24736","-6036","-6228","5","150","149.73","113.93","35.81","36.13","28.6","15.09","90244","33.81","DUALSPOT-UV-BLUE-GREEN-RED-IR","635908","661284","909368","28.648404","9.804916","0.021713","674874","864162","761355","16.547924","4.719961","0.000316","785219","881134","813288","12.669047","3.180378","-0.037133","798855","913349","865445","9.641273","2.007782","-0.453632","691100","837537","951782","7.598453","1.939374","0.424090","-393","-820","-1042","701","704","705","659","501","448","432","153","80","661","-52","-297",""
"MA200-0416","31127","91","1","1.10","1.4","2023-05-29T10:38:00","120","2023/05/29","10:38:00","-15.803335905075073","35.0254878308624","0.8","15","30","64","81","-24048","-4344","-3639","5","150","150.08","114.13","35.95","36.06","28.5","14.93","90232","33.75","DUALSPOT-UV-BLUE-GREEN-RED-IR","632574","658867","907150","28.789456","9.866543","0.012874","677064","867800","764969","16.628565","4.750562","0.013398","788156","885003","817211","12.727725","3.203612","0.020092","797763","912515","864949","9.682972","2.023666","0.021615","690518","837143","951511","7.627109","1.946269","-0.060851","7259","10069","11534","5238","6310","6739","4268","5366","5735","3665","4433","4635","3507","2679","2395",""
"MA200-0416","31128","91","1","1.10","1.4","2023-05-29T10:38:30","120","2023/05/29","10:38:30","-15.803224623203278","35.02570449747145","0.8","15","30","64","81","-23600","-2652","-5800","5","150","149.45","113.76","35.68","35.96","28.3","14.78","90220","33.75","DUALSPOT-UV-BLUE-GREEN-RED-IR","629990","656309","903766","28.966748","9.943274","0.012651","675042","865343","762899","16.726608","4.789697","0.016527","786938","883771","816174","12.801297","3.232752","0.020321","794126","908428","861158","9.736281","2.045190","0.027389","693324","840620","955469","7.660930","1.954670","-0.050594","9153","12630","14448","6388","8130","8829","5369","6780","7256","4701","6051","6410","4153","3288","2992",""
"MA200-0416","31129","91","1","1.10","1.4","2023-05-29T10:39:00","120","2023/05/29","10:39:00","-15.803156852722168","35.02604216337204","1.3","15","30","64","81","-3268","9524","-25188","5","150","150.03","113.92","36.11","35.83","28.2","14.60","90208","33.69","DUALSPOT-UV-BLUE-GREEN-RED-IR","634352","660866","910079","28.970990","9.946260","0.022450","673323","863196","761137","16.749729","4.803920","0.033959","785304","881988","814631","12.823367","3.246390","0.043653","799588","914729","867226","9.752996","2.056973","0.062349","692277","839414","954087","7.666137","1.952527","0.193037","218","485","625","1504","2920","3489","1608","3135","3653","1472","3274","3756","638","-829","-1330",""
"MA200-0416","31130","91","1","1.10","1.4","2023-05-29T10:39:30","120","2023/05/29","10:39:30","-15.803248584270477","35.026395162567496","1.3","15","30","64","81","-2400","2003","-26036","5","150","150.15","113.85","36.30","35.72","28.2","14.50","90184","33.56","DUALSPOT-UV-BLUE-GREEN-RED-IR","629563","655854","903101","28.966388","9.942186","0.025208","674658","865043","762804","16.766413","4.810762","0.017089","786082","882940","815581","12.841497","3.257006","0.041150","793313","907599","860548","9.767970","2.066606","0.057679","689160","835641","949767","7.665516","1.951594","0.108601","-237","-659","-879","1086","1397","1522","1322","2427","2803","1319","2662","3022","-76","-358","-455",""
"MA200-0416","31131","91","1","1.10","1.4","2023-05-29T10:40:00","120","2023/05/29","10:40:00","-15.803378343582153","35.02675049751997","1.5","15","30","64","81","6123","-9323","-23853","5","150","150.63","114.09","36.54","35.67","28.4","14.54","90180","33.56","DUALSPOT-UV-BLUE-GREEN-RED-IR","629318","655627","902766","28.962028","9.938726","0.023901","674235","864559","762456","16.785406","4.819488","0.022553","786382","883397","816086","12.859446","3.265797","0.032270","794149","908618","861576","9.783255","2.076762","0.058978","690168","836828","951104","7.662967","1.949992","0.073549","-224","-556","-729","1234","1770","1986","1306","1997","2232","1344","2788","3177","-312","-612","-714",""
"MA200-0416","31132","91","1","1.10","1.4","2023-05-29T10:40:30","120","2023/05/29","10:40:30","-15.803484737873077","35.02712266333401","1.3","15","30","64","81","5168","-8488","-25124","5","150","149.83","113.76","36.07","35.59","28.5","14.54","90172","33.56","DUALSPOT-UV-BLUE-GREEN-RED-IR","634377","660894","910096","28.967876","9.940628","0.001300","673218","863398","761498","16.811224","4.830456","0.019210","786308","883395","816212","12.883398","3.278791","0.037895","793025","907384","860528","9.800043","2.087211","0.056156","690116","836772","951055","7.662708","1.952405","0.133788","301","309","313","1682","2254","2484","1748","2991","3415","1480","2906","3292","-31","934","1264",""
"MA200-0416","31133","91","1","1.10","1.4","2023-05-29T10:41:00","120","2023/05/29","10:41:00","-15.803527414798737","35.02755549363792","1.8","15","30","64","81","6708","-18156","-17536","5","150","150.69","114.16","36.53","35.51","28.5","14.48","90160","33.50","DUALSPOT-UV-BLUE-GREEN-RED-IR","632249","658764","907223","28.985130","9.948643","0.014060","671573","861417","759892","16.843536","4.843818","0.017279","783932","880865","813989","12.914051","3.293686","0.031784","796637","911621","864669","9.826434","2.101260","0.046584","688493","834751","948798","7.662887","1.958044","0.129508","887","1288","1498","2098","2711","2959","2229","3385","3781","2319","3858","4277","21","2156","2889",""
