"Serial number","Datum ID","Session ID","Data format version","Firmware version","App version","Date / time local","Timezone offset (mins)","Date local (yyyy/MM/dd)","Time local (hh:mm:ss)","GPS lat (ddmm.mmmmm)","GPS long (dddmm.mmmmm)","GPS speed (km/h)","GPS sat count","Timebase (s)","Status","Battery remaining (%)","Accel X","Accel Y","Accel Z","Tape position","Flow setpoint (mL/min)","Flow total (mL/min)","Flow1 (mL/min)","Flow2 (mL/min)","Sample temp (C)","Sample RH (%)","Sample dewpoint (C)","Internal pressure (Pa)","Internal temp (C)","Optical config","UV Sen1","UV Sen2","UV Ref","UV ATN1","UV ATN2","UV K","Blue Sen1","Blue Sen2","Blue Ref","Blue ATN1","Blue ATN2","Blue K","Green Sen1","Green Sen2","Green Ref","Green ATN1","Green ATN2","Green K","Red Sen1","Red Sen2","Red Ref","Red ATN1","Red ATN2","Red K","IR Sen1","IR Sen2","IR Ref","IR ATN1","IR ATN2","IR K","UV BC1","UV BC2","UV BCc","Blue BC1","Blue BC2","Blue BCc","Green BC1","Green BC2","Green BCc","Red BC1","Red BC2","Red BCc","IR BC1","IR BC2","IR BCc","Readable status"
"MA200-0420","52656","82","1","1.10","1.6","2023-08-21T08:05:00","120","2023/08/21","08:05:00","-15.795640528202057","35.002726666396484","0.1","9","300","66","97","376","-27096","-840","1","150","149.57","113.92","35.66","27.43","39.1","12.30","90236","27.94","DUALSPOT-UV-BLUE-GREEN-RED-IR","763676","688204","900354","0.000000","0.000000","0.000000","863285","877121","840452","0.000000","0.000000","0.000000","844969","855053","834405","0.000000","0.000000","0.000000","858320","855488","887579","0.000000","0.000000","0.000000","750831","878721","963803","0.000000","0.000000","0.000000","","","","","","","","","","","","","","","","Start up-DualSpot on"
"MA200-0420","52657","82","1","1.10","1.6","2023-08-21T08:10:00","120","2023/08/21","08:10:00","-15.795597314834595","35.002779166447","0.7","9","300","66","98","375","-27141","-1087","1","150","149.62","115.41","34.21","27.65","37.5","11.82","90228","28.13","DUALSPOT-UV-BLUE-GREEN-RED-IR","746238","684946","904435","0.000000","0.000000","0.000000","843536","868079","836938","0.000000","0.000000","0.000000","829314","848351","832146","0.000000","0.000000","0.000000","851142","855574","891224","0.000000","0.000000","0.000000","746673","878472","965785","0.000000","0.000000","0.000000","","","","","","","","","","","","","","","","Start up-DualSpot on"
"MA200-0420","52658","82","1","1.10","1.6","2023-08-21T08:15:00","120","2023/08/21","08:15:00","-15.79559600353241","35.00274383299984","0.1","10","300","64","97","380","-27108","-744","1","150","149.50","114.69","34.81","27.86","36.8","11.74","90220","28.38","DUALSPOT-UV-BLUE-GREEN-RED-IR","727461","679064","904903","0.000000","0.000000","0.000000","828515","863037","837301","0.000000","0.000000","0.000000","816283","843782","831954","0.000000","0.000000","0.000000","840578","851998","891113","0.000000","0.000000","0.000000","740223","875488","964789","0.000000","0.000000","0.000000","","","","","","","","","","","","","","","","DualSpot on"
"MA200-0420","52659","82","1","1.10","1.6","2023-08-21T08:20:00","120","2023/08/21","08:20:00","-15.79561597108841","35.00269416626543","0.2","12","300","64","98","325","-27225","-987","1","150","150.21","114.57","35.64","28.12","36.1","11.69","90236","28.63","DUALSPOT-UV-BLUE-GREEN-RED-IR","712539","674678","906638","2.267067","0.838834","0.000000","816840","859898","839023","1.629851","0.571733","0.000000","805749","840528","832778","1.398676","0.481909","0.000000","832513","850025","892428","1.113425","0.376618","0.000000","734964","873355","964618","0.697904","0.225018","0.000000","11622","13824","11622","10545","11892","10545","10135","11226","10135","9749","10602","9749","8509","8820","8509","DualSpot on"
"MA200-0420","52660","82","1","1.10","1.6","2023-08-21T08:25:00","120","2023/08/21","08:25:00","-15.795680284500122","35.002724666148424","0.1","12","300","64","97","392","-27072","-1056","1","150","149.69","114.73","34.96","28.37","35.4","11.59","90244","28.94","DUALSPOT-UV-BLUE-GREEN-RED-IR","699766","670712","908274","4.262243","1.608667","0.070282","806441","856959","840638","3.105393","1.107460","0.073868","795825","837023","833055","2.674391","0.932896","0.000000","824365","847426","892859","2.143366","0.732315","0.000000","729769","871032","964053","1.354549","0.436028","0.000000","10214","12933","14582","9534","11360","12372","9231","10710","9231","9006","10207","9006","7995","8431","7995","DualSpot on"
"MA200-0420","52661","82","1","1.10","1.6","2023-08-21T08:30:00","120","2023/08/21","08:30:00","-15.79564219713211","35.00273549952544","0.2","12","300","64","97","380","-27116","-936","1","150","149.32","115.84","33.48","28.65","34.8","11.59","90264","29.25","DUALSPOT-UV-BLUE-GREEN-RED-IR","686152","665465","908133","6.211445","2.379116","0.060107","788536","845653","834019","4.557493","1.641094","0.065362","785767","833169","832949","3.934645","1.384347","0.068557","809444","837680","885700","3.165883","1.088311","0.075074","724037","868105","962895","2.015996","0.648956","0.000000","9883","13516","15772","9293","11816","13235","9032","11195","12369","8856","10668","11617","7976","8884","7976","DualSpot on"
"MA200-0420","52662","82","1","1.10","1.6","2023-08-21T08:35:00","120","2023/08/21","08:35:00","-15.795664668083191","35.002724666148424","0.1","12","300","64","98","568","-27440","292","1","150","150.08","116.31","33.77","28.90","34.4","11.62","90268","29.44","DUALSPOT-UV-BLUE-GREEN-RED-IR","670799","658063","905126","8.146030","3.163717","0.048304","780510","844612","837519","6.002686","2.185160","0.052981","777662","831164","834746","5.191626","1.842686","0.054699","803854","837352","888607","4.189991","1.451525","0.060409","720107","867252","964057","2.684713","0.869306","0.000000","9769","13646","16107","9211","11943","13506","8972","11267","12530","8833","10790","11827","8031","9114","8031","DualSpot on"
"MA200-0420","52663","82","1","1.10","1.6","2023-08-21T08:40:00","120","2023/08/21","08:40:00","-15.795615792274475","35.00275049987249","0.2","12","300","64","97","376","-27128","-812","1","150","149.81","116.29","33.52","29.17","34.0","11.69","90264","29.75","DUALSPOT-UV-BLUE-GREEN-RED-IR","659970","653866","905880","9.857655","3.888073","0.044236","770817","840767","837863","7.295394","2.688902","0.049061","768298","826966","834074","6.321538","2.269605","0.051665","795225","833244","887242","5.115271","1.789747","0.057096","714104","863493","961835","3.290998","1.073249","0.060364","8645","12693","15330","8240","11141","12834","8066","10574","11979","7982","10123","11276","7283","8499","9088","DualSpot on"
"MA200-0420","52664","82","1","1.10","1.6","2023-08-21T08:45:00","120","2023/08/21","08:45:00","-15.795687794685364","35.00272149941884","0.1","11","300","64","98","431","-27191","-900","1","150","149.60","115.87","33.73","29.44","33.3","11.62","90276","30.00","DUALSPOT-UV-BLUE-GREEN-RED-IR","651815","651520","908841","11.429161","4.573997","0.039760","758579","833359","834534","8.501379","3.174564","0.044666","757989","821151","831636","7.378724","2.681355","0.047011","791076","833413","890311","5.986020","2.116664","0.051724","711334","863407","963643","3.868452","1.269802","0.052066","7965","11945","14600","7715","10675","12438","7574","10135","11597","7539","9724","10920","6961","8141","8717","DualSpot on"
"MA200-0420","52665","82","1","1.10","1.6","2023-08-21T08:50:00","120","2023/08/21","08:50:00","-15.795587360858917","35.00277516641654","0.1","11","300","64","97","404","-27268","-475","1","150","149.76","115.88","33.88","29.68","32.5","11.45","90276","30.31","DUALSPOT-UV-BLUE-GREEN-RED-IR","643707","648470","910392","12.851059","5.212921","0.036929","756457","836502","841554","9.614428","3.635923","0.041792","751088","818463","832214","8.359070","3.075558","0.044568","786022","832211","891815","6.796302","2.430076","0.049218","707087","861258","963078","4.407860","1.460996","0.054678","7207","11076","13717","7120","10095","11903","7024","9659","11194","7015","9280","10541","6502","7883","8567","DualSpot on"
"MA200-0420","52666","82","1","1.10","1.6","2023-08-21T08:55:00","120","2023/08/21","08:55:00","-15.795585691928864","35.00286166649312","0.3","11","300","64","97","341","-27316","366","1","150","149.47","115.42","34.05","29.90","32.1","11.46","90276","30.50","DUALSPOT-UV-BLUE-GREEN-RED-IR","632385","642491","908401","14.405930","5.919460","0.033208","745762","830427","839683","10.818279","4.139971","0.037387","742561","814293","831492","9.419103","3.503561","0.039268","778250","828413","890784","7.672888","2.771451","0.043504","705887","863060","967089","4.994392","1.667701","0.045269","7912","12187","15169","7732","10974","12983","7625","10435","12100","7619","10058","11437","7098","8480","9172","DualSpot on"
"MA200-0420","52667","82","1","1.10","1.6","2023-08-21T09:00:00","120","2023/08/21","09:00:00","-15.795612335205078","35.00274099945091","0.1","11","300","64","97","258","-26783","-1233","1","150","150.02","115.60","34.42","30.11","31.7","11.47","90268","30.69","DUALSPOT-UV-BLUE-GREEN-RED-IR","622562","637537","907694","15.899387","6.617523","0.031071","735933","824950","838270","11.977847","4.636312","0.034782","737969","814101","834803","10.440696","3.925188","0.036617","769776","823569","888579","8.520548","3.108376","0.040528","699898","858801","964290","5.558941","1.872521","0.044595","7588","11913","14996","7436","10691","12746","7337","10170","11878","7356","9821","11237","6822","8313","9070","DualSpot on"
"MA200-0420","52668","82","1","1.10","1.6","2023-08-21T09:05:00","120","2023/08/21","09:05:00","-15.795661985874176","35.00272866641171","0.2","11","300","64","98","376","-27047","-1012","1","150","150.21","115.05","35.17","30.28","30.8","11.15","90272","30.88","DUALSPOT-UV-BLUE-GREEN-RED-IR","614612","633293","906811","17.090298","7.194355","0.029394","728450","820818","837609","12.922348","5.056677","0.033142","730728","809955","833558","11.277719","4.285034","0.035106","768753","825867","893589","9.215999","3.394796","0.038495","699042","860308","967672","6.029812","2.048927","0.042232","6080","9633","12217","6086","8861","10645","6040","8495","9999","6064","8170","9399","5717","7007","7670","DualSpot on"
"MA200-0420","52669","82","1","1.10","1.6","2023-08-21T09:10:00","120","2023/08/21","09:10:00","-15.795560538768768","35.002807499375194","0.0","11","300","64","97","433","-27145","-454","1","150","149.67","115.34","34.33","30.47","30.3","11.08","90264","31.13","DUALSPOT-UV-BLUE-GREEN-RED-IR","607982","630095","907257","18.225116","7.751156","0.029085","721988","817604","837749","13.829885","5.464476","0.033060","724210","806464","832837","12.085558","4.633882","0.034940","762670","822564","892501","9.892482","3.673594","0.038363","694742","857439","966105","6.485904","2.220650","0.044264","5779","9525","12298","5833","8805","10746","5815","8435","10065","5884","8147","9483","5524","6987","7748","DualSpot on"
"MA200-0420","52670","82","1","1.10","1.6","2023-08-21T09:15:00","120","2023/08/21","09:15:00","-15.795572459697723","35.0027749997098","0.1","11","300","64","97","433","-27066","-925","1","150","150.02","115.17","34.85","30.65","29.9","11.06","90264","31.25","DUALSPOT-UV-BLUE-GREEN-RED-IR","599670","625211","905564","19.412682","8.336399","0.027000","713842","812557","836114","14.772344","5.887854","0.030201","717481","802757","832049","12.922160","4.994884","0.031711","755903","818624","890822","10.592953","3.964066","0.035095","689913","854020","963966","6.961780","2.397563","0.037122","6056","9863","12728","6066","9005","10953","6031","8599","10218","6102","8361","9713","5772","7091","7784","DualSpot on"
"MA200-0420","52671","82","1","1.10","1.6","2023-08-21T09:20:00","120","2023/08/21","09:20:00","-15.795565485954285","35.00277049955912","0.1","11","300","64","97","416","-27070","-1070","1","150","149.82","114.93","34.89","30.84","29.7","11.10","90272","31.50","DUALSPOT-UV-BLUE-GREEN-RED-IR","592396","620948","904387","20.506432","8.892097","0.026488","711907","814228","841235","15.651968","6.294729","0.029829","711256","799257","831304","13.706511","5.344423","0.031665","750550","815916","890359","11.253065","4.245561","0.034997","689908","856363","968291","7.413044","2.572069","0.039842","5589","9354","12236","5673","8644","10642","5666","8316","10011","5762","8093","9506","5485","6986","7784","DualSpot on"
"MA200-0420","52672","82","1","1.10","1.6","2023-08-21T09:25:00","120","2023/08/21","09:25:00","-15.795702815055847","35.00275899958797","0.1","11","300","64","98","412","-27070","-995","1","150","149.60","114.84","34.76","31.00","29.0","10.90","90276","31.56","DUALSPOT-UV-BLUE-GREEN-RED-IR","587315","618659","905717","21.510548","9.407509","0.025703","701322","805552","835402","16.460703","6.673012","0.029061","706549","797101","831760","14.428799","5.669821","0.030898","741000","808305","884356","11.859308","4.505327","0.033835","682757","849697","962298","7.831241","2.732974","0.037544","5135","8708","11486","5220","8067","10008","5221","7771","9422","5296","7497","8845","5087","6466","7205","DualSpot on"
"MA200-0420","52673","82","1","1.10","1.6","2023-08-21T09:30:00","120","2023/08/21","09:30:00","-15.795740127563477","35.00270316610113","0.0","11","300","64","98","375","-27187","-612","1","150","149.63","114.53","35.09","31.15","28.6","10.82","90276","31.81","DUALSPOT-UV-BLUE-GREEN-RED-IR","582316","616257","906789","22.487782","9.918362","0.024821","697172","804116","837054","17.252030","7.049368","0.027990","701991","795007","832259","15.135145","5.992589","0.029638","742798","812994","891819","12.454891","4.765143","0.032679","679771","848032","961945","8.236664","2.892216","0.036775","5011","8550","11342","5121","7950","9904","5120","7636","9285","5217","7428","8798","4944","6339","7093","DualSpot on"
"MA200-0420","52674","82","1","1.10","1.6","2023-08-21T09:35:00","120","2023/08/21","09:35:00","-15.795732915401459","35.00267899991013","0.1","12","300","64","98","412","-27129","-870","1","150","150.15","114.48","35.67","31.35","28.3","10.80","90276","32.00","DUALSPOT-UV-BLUE-GREEN-RED-IR","575755","612097","905258","23.454036","10.428528","0.023694","689764","798819","834668","18.030818","7.420494","0.026270","695997","791230","830941","15.831800","6.310293","0.027501","736269","808534","889203","13.042933","5.021779","0.030252","679352","849627","965336","8.643147","3.053936","0.034696","4957","8401","11158","5043","7713","9581","5052","7395","8948","5153","7218","8512","4960","6334","7084","DualSpot on"
"MA200-0420","52675","82","1","1.10","1.6","2023-08-21T09:40:00","120","2023/08/21","09:40:00","-15.795662522315979","35.002742832992226","0.0","12","300","64","97","445","-27204","-525","1","150","150.02","114.53","35.48","31.48","28.2","10.88","90276","32.13","DUALSPOT-UV-BLUE-GREEN-RED-IR","573565","612540","910553","24.415256","10.933655","0.022842","688637","800799","839818","18.810146","7.791304","0.025397","694091","792077","834477","16.529127","6.628884","0.026749","731088","805551","888165","13.631844","5.275673","0.028595","675050","846335","963109","9.050079","3.210978","0.030471","4929","8361","11144","5044","7747","9658","5054","7454","9061","5158","7178","8454","4963","6182","6853","DualSpot on"
"MA200-0420","52676","82","1","1.10","1.6","2023-08-21T09:45:00","120","2023/08/21","09:45:00","-15.795675039291382","35.00272849970497","0.1","12","300","64","97","308","-27187","-929","1","150","150.15","114.06","36.09","31.63","27.8","10.80","90272","32.31","DUALSPOT-UV-BLUE-GREEN-RED-IR","566196","607231","907228","25.346328","11.438583","0.022310","680967","794912","836758","19.565540","8.161937","0.024832","687404","787246","832072","17.206678","6.948152","0.026198","729795","806643","891629","14.202574","5.531149","0.028484","674134","847206","965614","9.447319","3.370239","0.031062","4794","8218","11034","4909","7613","9549","4931","7345","8979","5020","7102","8430","4865","6165","6885","DualSpot on"
"MA200-0420","52677","82","1","1.10","1.6","2023-08-21T09:50:00","120","2023/08/21","09:50:00","-15.795689463615417","35.002760333009064","0.0","12","300","64","98","416","-27175","-800","1","150","150.08","113.89","36.19","31.73","27.5","10.70","90268","32.31","DUALSPOT-UV-BLUE-GREEN-RED-IR","563111","606398","910429","26.244522","11.930126","0.021708","677880","794257","839133","20.301036","8.527980","0.024334","684836","786980","834373","17.866250","7.261405","0.025440","721712","800153","886732","14.764273","5.785429","0.027847","669009","842665","961957","9.833992","3.527874","0.031129","4632","7977","10765","4787","7498","9461","4808","7186","8814","4948","7049","8403","4742","6084","6835","DualSpot on"
"MA200-0420","52678","82","1","1.10","1.6","2023-08-21T09:55:00","120","2023/08/21","09:55:00","-15.795669198036194","35.002742499578744","0.1","12","300","64","97","337","-27225","-254","1","150","149.53","113.68","35.85","31.83","27.3","10.70","90268","32.50","DUALSPOT-UV-BLUE-GREEN-RED-IR","555513","600629","906329","27.149918","12.432716","0.021501","669628","787496","835098","21.044180","8.902421","0.024179","677489","781235","830997","18.535422","7.587190","0.025860","720778","801569","890623","15.332285","6.048621","0.028477","667823","843116","964040","10.225300","3.693145","0.033922","4677","8234","11238","4846","7742","9866","4887","7544","9386","5012","7365","8897","4808","6439","7362","DualSpot on"
"MA200-0420","52679","82","1","1.10","1.6","2023-08-21T10:00:00","120","2023/08/21","10:00:00","-15.795680701732635","35.00273033301346","0.2","12","300","64","97","454","-27129","-1112","1","150","150.60","114.54","36.06","31.96","27.2","10.72","90264","32.63","DUALSPOT-UV-BLUE-GREEN-RED-IR","552020","599215","908641","28.034764","12.925461","0.020973","666769","786967","837608","21.771924","9.269197","0.023490","674440","780344","832664","19.190424","7.903445","0.024795","712544","794802","885347","15.889767","6.303027","0.026878","666065","842844","965307","10.618832","3.854337","0.030236","4537","8027","11012","4709","7541","9640","4747","7282","9057","4882","7079","8523","4799","6245","7069","DualSpot on"
"MA200-0420","52680","82","1","1.10","1.6","2023-08-21T10:05:00","120","2023/08/21","10:05:00","-15.795756757259369","35.00257966644131","0.1","12","300","64","97","275","-27137","-358","1","150","149.96","114.03","35.93","32.03","26.8","10.57","90264","32.56","DUALSPOT-UV-BLUE-GREEN-RED-IR","545079","593955","905074","28.902816","13.413628","0.020557","664364","786863","840548","22.481510","9.632675","0.023243","671542","779600","834461","19.830354","8.216979","0.024531","709665","793890","886602","16.434778","6.555433","0.026687","664017","842140","966073","11.001308","4.013421","0.030444","4471","7979","11017","4613","7498","9662","4659","7244","9073","4795","7047","8541","4685","6184","7045","DualSpot on"
"MA200-0420","52681","82","1","1.10","1.6","2023-08-21T10:10:00","120","2023/08/21","10:10:00","-15.795690774917603","35.00265433290042","0.1","11","300","64","97","368","-27056","-796","1","150","149.48","113.10","36.37","32.07","26.7","10.55","90248","32.69","DUALSPOT-UV-BLUE-GREEN-RED-IR","539437","590040","903617","29.787632","13.915321","0.019769","658169","782257","838742","23.209558","10.005455","0.021976","666665","776505","833869","20.488184","8.539804","0.023147","706650","792913","887830","16.996688","6.816301","0.025036","661619","841000","966305","11.393803","4.178022","0.028473","4594","8101","11176","4771","7597","9739","4828","7368","9184","4984","7195","8676","4847","6321","7175","DualSpot on"
"MA200-0420","52682","82","1","1.10","1.6","2023-08-21T10:15:00","120","2023/08/21","10:15:00","-15.795724868774414","35.0027353328187","0.1","11","300","64","97","384","-27036","-1044","1","150","149.53","113.47","36.06","32.01","26.6","10.47","90248","32.38","DUALSPOT-UV-BLUE-GREEN-RED-IR","536244","588669","905964","30.642834","14.405567","0.019670","650546","775767","834876","23.913682","10.373062","0.022236","659606","770703","830266","21.122800","8.857693","0.023583","703224","791344","888311","17.537396","7.071290","0.025537","655972","835588","961638","11.767033","4.339448","0.030925","4426","7985","11143","4600","7557","9823","4643","7319","9252","4780","7094","8658","4594","6253","7223","DualSpot on"
"MA200-0420","52683","82","1","1.10","1.6","2023-08-21T10:20:00","120","2023/08/21","10:20:00","-15.795692682266235","35.00275433296338","0.1","11","300","64","98","341","-27075","-1287","1","150","150.47","115.05","35.43","32.01","26.7","10.53","90240","32.56","DUALSPOT-UV-BLUE-GREEN-RED-IR","533937","588213","909705","31.486084","14.892262","0.019816","648631","776121","838250","24.610948","10.736115","0.022375","657829","771039","833228","21.751462","9.172935","0.023943","697209","786803","885477","18.075350","7.325457","0.026183","655542","836813","964607","12.139393","4.498715","0.031468","4305","8069","11447","4493","7597","9999","4536","7387","9467","4691","7198","8906","4521","6280","7316","DualSpot on"
"MA200-0420","52684","82","1","1.10","1.6","2023-08-21T10:25:00","120","2023/08/21","10:25:00","-15.795666992664337","35.002736332826316","0.0","11","300","64","97","392","-26947","-772","1","150","150.33","114.97","35.36","32.20","27.2","10.95","90236","32.94","DUALSPOT-UV-BLUE-GREEN-RED-IR","526951","582601","905510","32.337284","15.391285","0.019592","645639","775159","840316","25.316722","11.104469","0.021876","651197","765697","830150","22.391426","9.491540","0.023124","696147","787923","889022","18.626610","7.586379","0.025566","654493","837370","966861","12.530674","4.665944","0.030562","4348","8288","11867","4550","7722","10199","4621","7480","9583","4810","7402","9183","4754","6606","7704","DualSpot on"
"MA200-0420","52685","82","1","1.10","1.6","2023-08-21T10:30:00","120","2023/08/21","10:30:00","-15.795692801475525","35.00271849962883","0.2","11","300","64","97","358","-27045","-916","1","150","149.44","115.26","34.17","32.47","27.3","11.25","90228","33.25","DUALSPOT-UV-BLUE-GREEN-RED-IR","524059","581466","908544","33.226562","15.919571","0.019814","638067","768666","836490","26.039034","11.488353","0.022524","648247","764706","831793","23.044468","9.823688","0.024084","693721","787422","890867","19.187586","7.856652","0.026798","648166","831225","961441","12.941177","4.840320","0.031586","4531","9080","13263","4645","8327","11234","4703","8069","10570","4882","7934","10050","4975","7128","8414","DualSpot on"
"MA200-0420","52686","82","1","1.10","1.6","2023-08-21T10:35:00","120","2023/08/21","10:35:00","-15.795584976673126","35.00278899958357","0.1","10","300","64","98","454","-27037","-695","1","150","149.38","116.67","32.71","32.68","26.7","11.09","90220","33.44","DUALSPOT-UV-BLUE-GREEN-RED-IR","519452","578366","908219","34.070744","16.417606","0.019977","633297","765383","835978","26.730278","11.856474","0.023112","643904","761941","831411","23.669008","10.139470","0.024685","688857","784111","889387","19.722952","8.111934","0.027553","648507","833535","965719","13.330196","5.003857","0.033328","4250","8942","13307","4392","8342","11491","4444","8014","10690","4603","7829","10083","4658","6984","8381","DualSpot on"
"MA200-0420","52687","82","1","1.10","1.6","2023-08-21T10:40:00","120","2023/08/21","10:40:00","-15.795600712299347","35.002749666105956","0.2","10","300","64","97","408","-27445","-366","1","150","149.76","115.88","33.88","32.83","27.1","11.41","90208","33.63","DUALSPOT-UV-BLUE-GREEN-RED-IR","511876","571979","902978","34.962352","16.950188","0.019145","629700","763607","837287","27.458156","12.245417","0.021815","640199","759976","832060","24.325254","10.474575","0.023321","681209","777657","884465","20.283720","8.382457","0.025910","646069","832303","965966","13.733810","5.177773","0.031452","4519","9233","13668","4656","8510","11612","4701","8211","10866","4855","8010","10233","4865","7170","8565","DualSpot on"
"MA200-0420","52688","82","1","1.10","1.6","2023-08-21T10:45:00","120","2023/08/21","10:45:00","-15.79571944475174","35.002704665996134","0.1","11","300","64","97","360","-27168","-680","1","150","149.44","115.95","33.48","32.98","27.4","11.69","90208","33.75","DUALSPOT-UV-BLUE-GREEN-RED-IR","510004","572060","908508","35.937340","17.544628","0.019053","623687","759004","835818","28.241306","12.671180","0.021796","634471","755725","830461","25.029472","10.840775","0.023394","680381","779091","888715","20.884574","8.676076","0.025962","641611","828568","963413","14.162029","5.363893","0.031669","4938","10427","15664","5006","9426","13023","5042","9080","12165","5198","8798","11356","5158","7765","9354","DualSpot on"
"MA200-0420","52689","82","1","1.10","1.6","2023-08-21T10:50:00","120","2023/08/21","10:50:00","-15.795660316944122","35.00273416633718","0.2","12","300","64","97","437","-27137","-837","1","150","149.87","116.54","33.34","33.13","27.4","11.87","90200","33.94","DUALSPOT-UV-BLUE-GREEN-RED-IR","504854","568409","908049","36.900868","18.139462","0.018832","618493","755334","835337","29.019478","13.099874","0.021637","630349","753308","830845","25.729342","11.208200","0.023193","676993","777553","889572","21.481624","8.971203","0.025861","638749","826851","963191","14.586525","5.551575","0.032104","4856","10480","15917","4950","9532","13303","4986","9150","12364","5140","8881","11564","5088","7864","9570","DualSpot on"
"MA200-0420","52690","82","1","1.10","1.6","2023-08-21T10:55:00","120","2023/08/21","10:55:00","-15.795624673366547","35.00272749969736","0.0","12","300","64","97","458","-27266","-879","1","150","149.89","116.07","33.81","33.30","27.6","12.11","90188","34.06","DUALSPOT-UV-BLUE-GREEN-RED-IR","499216","564083","906636","37.865896","18.746254","0.018393","617508","756705","840509","29.791934","13.534687","0.021173","628320","753327","833965","26.425716","11.581653","0.022688","670853","772787","886762","22.076802","9.271632","0.025284","637994","827799","966134","15.010944","5.741097","0.030859","4883","10540","16087","4933","9533","13362","4980","9169","12437","5144","8914","11643","5107","7829","9515","DualSpot on"
"MA200-0420","52691","82","1","1.10","1.6","2023-08-21T11:00:00","120","2023/08/21","11:00:00","-15.795723497867584","35.002731166314334","0.0","12","300","64","97","424","-27103","-528","1","150","150.28","115.58","34.70","33.42","27.8","12.31","90184","34.19","DUALSPOT-UV-BLUE-GREEN-RED-IR","496002","562465","909624","38.843560","19.363778","0.017703","609198","749111","835759","30.582170","13.975898","0.020042","621806","747982","831178","27.133952","11.959816","0.021449","668731","772692","889364","22.681160","9.574601","0.023671","636315","827565","967732","15.439629","5.933080","0.028761","4968","10453","15905","5068","9426","13094","5087","9048","12170","5245","8760","11327","5181","7729","9319","DualSpot on"
"MA200-0420","52692","82","1","1.10","1.6","2023-08-21T11:05:00","120","2023/08/21","11:05:00","-15.795669198036194","35.00278399977833","0.1","12","300","64","97","412","-27183","-729","1","150","150.01","116.00","34.01","33.51","27.6","12.31","90176","34.25","DUALSPOT-UV-BLUE-GREEN-RED-IR","487574","554766","902561","39.779588","19.962558","0.017684","604773","746076","836001","31.339336","14.410925","0.020416","617183","744734","830661","27.816020","12.330695","0.021768","664526","769989","888918","23.262590","9.873029","0.024329","629332","820328","961089","15.853821","6.122127","0.029997","4739","10340","15982","4838","9481","13434","4881","9053","12374","5028","8802","11585","4988","7764","9511","DualSpot on"
"MA200-0420","52693","82","1","1.10","1.6","2023-08-21T11:10:00","120","2023/08/21","11:10:00","-15.795702695846558","35.00276783318259","0.1","13","300","64","97","392","-27091","-808","1","150","150.08","115.44","34.64","33.59","27.6","12.35","90172","34.31","DUALSPOT-UV-BLUE-GREEN-RED-IR","486430","555287","908951","40.719436","20.574852","0.017265","604279","747861","841678","32.098686","14.851194","0.019763","615879","745427","834582","28.501892","12.710277","0.021185","659129","765915","886878","23.849422","10.176862","0.023421","629321","822110","965048","16.270386","6.317796","0.029522","4781","10382","16101","4876","9422","13336","4932","9097","12449","5100","8799","11553","5040","7890","9700","DualSpot on"
"MA200-0420","52694","82","1","1.10","1.6","2023-08-21T11:15:00","120","2023/08/21","11:15:00","-15.795621037483215","35.00281099951826","0.1","13","300","64","97","411","-27194","-900","1","150","150.15","115.42","34.73","33.65","27.6","12.38","90164","34.31","DUALSPOT-UV-BLUE-GREEN-RED-IR","482418","552358","909529","41.615660","21.162716","0.016964","595744","739544","835898","32.832554","15.279992","0.019430","608724","738894","830350","29.163608","13.080417","0.020883","656031","764366","887708","24.418498","10.475182","0.023146","626916","820829","965359","16.676434","6.507980","0.028618","4560","9942","15511","4713","9153","13018","4759","8848","12174","4946","8618","11376","4914","7650","9401","DualSpot on"
"MA200-0420","52695","82","1","1.10","1.6","2023-08-21T11:20:00","120","2023/08/21","11:20:00","-15.795656621456146","35.002764832926914","0.0","13","300","64","97","470","-27254","-750","1","150","150.01","115.42","34.59","33.68","27.6","12.43","90152","34.38","DUALSPOT-UV-BLUE-GREEN-RED-IR","477242","548105","907935","42.515504","21.762948","0.016822","590344","735012","834414","33.569920","15.716548","0.019278","607446","739542","834195","29.829926","13.454917","0.020603","651208","760765","886209","24.990842","10.776257","0.022824","623610","818175","964110","17.082126","6.700588","0.028690","4579","10191","16077","4736","9355","13422","4792","8988","12435","4975","8732","11580","4910","7778","9629","DualSpot on"
"MA200-0420","52696","82","1","1.10","1.6","2023-08-21T11:25:00","120","2023/08/21","11:25:00","-15.795625567436218","35.00278666638769","0.0","13","300","64","97","425","-27212","-741","1","150","149.95","114.93","35.02","33.71","27.3","12.26","90148","34.25","DUALSPOT-UV-BLUE-GREEN-RED-IR","473721","545518","908874","43.363532","22.338436","0.016529","586460","732166","834713","34.263676","16.140287","0.019117","603660","736868","834214","30.459630","13.821537","0.020520","647968","758925","886662","25.532372","11.071096","0.022771","621392","816866","964398","17.468730","6.889162","0.028504","4334","9651","15300","4474","8969","12971","4548","8690","12131","4727","8446","11292","4699","7521","9359","DualSpot on"
"MA200-0420","52697","82","1","1.10","1.6","2023-08-21T11:30:00","120","2023/08/21","11:30:00","-15.795831501483917","35.002700166311115","0.2","13","300","64","98","379","-27187","-795","1","150","150.21","114.69","35.52","33.73","27.3","12.32","90140","34.31","DUALSPOT-UV-BLUE-GREEN-RED-IR","470625","543451","910532","44.193472","22.901660","0.016112","583604","730617","836415","34.952844","16.554844","0.018356","600704","735208","835335","31.083572","14.179052","0.019620","645198","757507","887620","26.070112","11.360298","0.021719","619484","815968","965112","17.848504","7.072790","0.026992","4250","9313","14759","4454","8651","12428","4516","8356","11576","4703","8168","10844","4625","7221","8925","DualSpot on"
"MA200-0420","52698","82","1","1.10","1.6","2023-08-21T11:35:00","120","2023/08/21","11:35:00","-15.795628666877747","35.00275216624141","0.2","13","300","64","97","475","-27250","-925","1","150","149.38","115.17","34.21","33.71","27.9","12.62","90136","34.38","DUALSPOT-UV-BLUE-GREEN-RED-IR","465502","538972","908510","45.071196","23.507432","0.016295","582849","731769","841448","35.680160","16.996986","0.018679","596126","731633","834430","31.741752","14.560133","0.020062","641550","755217","887627","26.636348","11.667442","0.022342","616906","814217","964932","18.247838","7.269148","0.028569","4476","10400","16857","4681","9580","14037","4744","9247","13063","4932","9007","12183","4843","8017","10119","DualSpot on"
"MA200-0420","52699","82","1","1.10","1.6","2023-08-21T11:40:00","120","2023/08/21","11:40:00","-15.795679688453674","35.00279449974187","0.2","13","300","64","97","429","-27125","-795","1","150","150.42","115.29","35.12","33.78","27.6","12.52","90132","34.44","DUALSPOT-UV-BLUE-GREEN-RED-IR","459951","533867","904991","45.882620","24.071534","0.015899","576496","725624","837858","36.353176","17.413064","0.018264","590244","726237","831271","32.355312","14.919785","0.019522","639763","754894","889816","27.168308","11.957832","0.021562","615801","814346","966875","18.630832","7.456577","0.026984","4133","9433","15281","4327","8781","12876","4418","8500","11994","4629","8294","11176","4640","7454","9331","DualSpot on"
"MA200-0420","52700","82","1","1.10","1.6","2023-08-21T11:45:00","120","2023/08/21","11:45:00","-15.795644521713257","35.002765332814306","0.1","13","300","64","97","468","-27216","-996","1","150","149.63","114.26","35.37","33.90","27.4","12.52","90128","34.63","DUALSPOT-UV-BLUE-GREEN-RED-IR","457663","532418","907486","46.653868","24.614856","0.015642","569961","719168","833720","36.998364","17.814356","0.017855","588421","725767","833610","32.943364","15.266617","0.019059","634050","749882","886430","27.680698","12.241257","0.021141","611261","809888","963360","19.004508","7.638954","0.025830","3964","9022","14672","4186","8411","12334","4272","8141","11482","4499","8039","10846","4568","7203","8974","DualSpot on"
"MA200-0420","52701","82","1","1.10","1.6","2023-08-21T11:50:00","120","2023/08/21","11:50:00","-15.795706331729889","35.002749499399215","0.1","12","300","64","97","532","-27100","-712","1","150","150.15","114.43","35.72","34.01","27.3","12.52","90128","34.75","DUALSPOT-UV-BLUE-GREEN-RED-IR","454465","529883","908015","47.419188","25.153472","0.015345","570952","722183","840580","37.640228","18.214040","0.017492","584305","722392","832621","33.529972","15.613972","0.018689","634257","751855","891262","28.189896","12.522039","0.020562","611329","811561","967073","19.376342","7.819904","0.024967","3928","8856","14423","4158","8294","12173","4256","8073","11400","4464","7886","10620","4539","7076","8793","DualSpot on"
"MA200-0420","52702","82","1","1.10","1.6","2023-08-21T11:55:00","120","2023/08/21","11:55:00","-15.795748770236969","35.00276166643016","0.2","13","300","64","97","400","-27147","-1116","1","150","149.95","114.45","35.50","34.10","27.5","12.70","90124","34.88","DUALSPOT-UV-BLUE-GREEN-RED-IR","451345","527436","908889","48.199524","25.707164","0.015229","563363","714308","834796","38.296928","18.622880","0.017293","581920","721208","834222","34.131724","15.969608","0.018455","628369","746600","887589","28.713204","12.810204","0.020317","606604","806875","963319","19.763482","8.007387","0.024569","4004","9161","15056","4253","8538","12594","4365","8317","11793","4587","8144","11010","4725","7378","9185","DualSpot on"
"MA200-0420","52703","82","1","1.10","1.6","2023-08-21T12:00:00","120","2023/08/21","12:00:00","-15.795561134815216","35.00284349988215","0.1","13","300","64","97","383","-27158","-920","1","150","149.59","114.22","35.37","34.20","27.9","13.05","90124","34.81","DUALSPOT-UV-BLUE-GREEN-RED-IR","448380","525196","910406","49.022856","26.300312","0.015116","560400","712339","836158","38.982620","19.059968","0.017299","575161","714620","829708","34.758072","16.346691","0.018430","624694","744017","887223","29.257508","13.116140","0.020382","604033","805067","963068","20.162166","8.206243","0.025162","4234","9849","16349","4450","9160","13667","4552","8851","12667","4781","8677","11844","4876","7853","9897","DualSpot on"
"MA200-0420","52704","82","1","1.10","1.6","2023-08-21T12:05:00","120","2023/08/21","12:05:00","-15.795616567134857","35.002807499375194","0.0","13","300","64","98","375","-26941","-966","1","150","149.89","113.98","35.91","34.21","27.7","12.92","90124","34.75","DUALSPOT-UV-BLUE-GREEN-RED-IR","444205","521455","909168","49.823180","26.881614","0.014838","556118","708532","835286","39.648424","19.490136","0.016998","574906","715983","834379","35.363940","16.718630","0.018176","621717","742162","887695","29.786808","13.418684","0.020047","601711","803513","963081","20.548206","8.400955","0.024537","4124","9509","15818","4330","8881","13281","4413","8600","12354","4659","8453","11564","4731","7575","9542","DualSpot on"
"MA200-0420","52705","82","1","1.10","1.6","2023-08-21T12:10:00","120","2023/08/21","12:10:00","-15.795666992664337","35.0027923330199","0.1","13","300","64","97","429","-27154","-687","1","150","148.77","114.18","34.59","34.09","27.6","12.76","90112","34.63","DUALSPOT-UV-BLUE-GREEN-RED-IR","437819","515013","903020","50.598052","27.449338","0.014943","553019","706246","836146","40.302216","19.913508","0.017174","568075","709094","829413","35.961952","17.087388","0.018453","618217","739638","887286","30.307618","13.716526","0.020408","599642","802185","963368","20.923168","8.594412","0.026000","3986","9639","16343","4244","9073","13788","4348","8850","12926","4576","8638","11996","4587","7812","10060","DualSpot on"
"MA200-0420","52706","82","1","1.10","1.6","2023-08-21T12:15:00","120","2023/08/21","12:15:00","-15.795613586902618","35.0027778330259","0.1","13","300","68","97","440","-27132","-1044","2","150","149.82","113.47","36.35","34.11","28.2","13.11","90112","34.75","DUALSPOT-UV-BLUE-GREEN-RED-IR","760312","693248","910049","0.000000","0.000000","0.000000","862084","880011","840159","0.000000","0.000000","0.000000","843217","856029","831686","0.000000","0.000000","0.000000","859486","857614","885986","0.000000","0.000000","0.000000","753501","884564","966511","0.000000","0.000000","0.000000","","","","","","","","","","","","","","","","Tape advance-DualSpot on"
"MA200-0420","52707","82","1","1.10","1.6","2023-08-21T12:20:00","120","2023/08/21","12:20:00","-15.795684039592743","35.002758499700576","0.0","14","300","68","97","464","-27188","-736","2","150","149.95","113.94","36.01","34.05","28.2","13.05","90104","34.63","DUALSPOT-UV-BLUE-GREEN-RED-IR","722327","678968","907281","0.000000","0.000000","0.000000","834810","868123","837320","0.000000","0.000000","0.000000","825409","850778","833345","0.000000","0.000000","0.000000","845965","853819","887345","0.000000","0.000000","0.000000","742825","877794","962185","0.000000","0.000000","0.000000","","","","","","","","","","","","","","","","Tape advance-DualSpot on"
"MA200-0420","52708","82","1","1.10","1.6","2023-08-21T12:25:00","120","2023/08/21","12:25:00","-15.795605659484863","35.00277749961242","0.1","14","300","64","97","395","-26887","-375","2","150","150.31","113.45","36.85","34.01","27.8","12.79","90092","34.44","DUALSPOT-UV-BLUE-GREEN-RED-IR","703029","670044","903598","2.308786","0.920555","0.000000","818166","859364","833932","1.614350","0.612711","0.000000","812946","845105","832006","1.366884","0.508743","0.000000","836423","850006","886808","1.076583","0.389159","0.000000","737466","875315","961643","0.666465","0.227995","0.000000","11952","14672","11952","10548","12325","10548","10002","11461","10002","9520","10594","9520","8206","8642","8206","DualSpot on"
"MA200-0420","52709","82","1","1.10","1.6","2023-08-21T12:30:00","120","2023/08/21","12:30:00","-15.795629680156708","35.00280799949542","0.2","14","300","64","97","320","-27041","187","2","150","149.76","113.35","36.41","33.94","28.0","12.87","90088","34.50","DUALSPOT-UV-BLUE-GREEN-RED-IR","691008","666233","905920","4.296079","1.751447","0.078552","808305","856361","835748","3.044480","1.177167","0.089239","803762","841847","832748","2.590569","0.981992","0.000000","827918","846471","886345","2.046646","0.753026","0.000000","733204","873660","961899","1.273422","0.440617","0.000000","10297","13404","15543","9353","11493","12842","8962","10791","8962","8586","10027","8586","7480","8158","7480","DualSpot on"
"MA200-0420","52710","82","1","1.10","1.6","2023-08-21T12:35:00","120","2023/08/21","12:35:00","-15.795702159404755","35.0027296661865","0.3","13","300","64","97","379","-27145","-862","2","150","150.08","113.27","36.81","34.05","28.6","13.29","90088","34.75","DUALSPOT-UV-BLUE-GREEN-RED-IR","679682","662513","908191","6.199360","2.561010","0.055615","799686","854297","838295","4.422718","1.724523","0.060329","792274","835858","830597","3.774331","1.439803","0.062266","824595","848076","891155","2.992909","1.107487","0.000000","731342","874905","965268","1.875839","0.651850","0.000000","9869","12917","15062","9020","11023","12303","8676","10325","11342","8381","9660","8381","7429","8016","7429","DualSpot on"
"MA200-0420","52711","82","1","1.10","1.6","2023-08-21T12:40:00","120","2023/08/21","12:40:00","-15.795635759830475","35.00275249942206","0.1","13","300","64","97","96","-26208","-2656","2","150","150.34","113.62","36.72","34.25","28.5","13.39","90084","35.06","DUALSPOT-UV-BLUE-GREEN-RED-IR","665915","655557","905637","7.963880","3.335449","0.047881","787125","847332","835872","5.716847","2.251094","0.052386","785606","834440","832848","4.890765","1.880890","0.054318","812970","840805","886560","3.892475","1.449596","0.056490","728081","874316","966604","2.460888","0.855769","0.000000","9121","12388","14743","8443","10631","12053","8157","9973","11108","7942","9347","10181","7192","7758","7192","DualSpot on"
"MA200-0420","52712","82","1","1.10","1.6","2023-08-21T12:45:00","120","2023/08/21","12:45:00","-15.795631647109985","35.002675666473806","0.1","13","300","64","97","258","-27179","166","2","150","149.82","113.55","36.27","34.39","28.5","13.52","90080","35.06","DUALSPOT-UV-BLUE-GREEN-RED-IR","656257","652264","908300","9.716038","4.129257","0.043331","778778","844606","837703","7.001376","2.791732","0.049351","778452","832323","834514","6.003536","2.333943","0.051609","808165","840404","889258","4.790332","1.801947","0.055943","724818","873702","967964","3.050994","1.067155","0.051521","9063","12853","15654","8386","11048","12814","8136","10369","11789","7933","9745","10837","7260","8140","8614","DualSpot on"
"MA200-0420","52713","82","1","1.10","1.6","2023-08-21T12:50:00","120","2023/08/21","12:50:00","-15.79563969373703","35.002776499604806","0.1","13","300","64","97","387","-26966","-1037","2","150","150.15","114.18","35.97","34.40","28.3","13.40","90076","34.94","DUALSPOT-UV-BLUE-GREEN-RED-IR","642137","644004","903813","11.398170","4.910324","0.039861","765643","836270","833897","8.247813","3.328925","0.046273","767173","825428","831353","7.083681","2.785352","0.049397","796797","832906","884444","5.666562","2.153696","0.054132","717814","868353","964091","3.619596","1.278513","0.060136","8653","12754","15858","8092","11071","13087","7854","10419","12081","7699","9811","11106","6956","8208","8892","DualSpot on"
"MA200-0420","52714","82","1","1.10","1.6","2023-08-21T12:55:00","120","2023/08/21","12:55:00","-15.795659065246582","35.00276666646823","0.0","13","300","64","97","332","-27200","-652","2","150","149.60","113.52","36.08","34.31","27.7","13.02","90076","34.75","DUALSPOT-UV-BLUE-GREEN-RED-IR","634160","641282","906809","12.977329","5.663646","0.036252","759457","834967","836964","9.425659","3.853669","0.042911","761727","824356","833956","8.110117","3.228568","0.046015","794272","834347","888988","6.498817","2.496005","0.049703","712461","864736","962035","4.161121","1.484829","0.056683","8170","12261","15429","7692","10780","12916","7507","10197","11976","7355","9517","10865","6664","7987","8721","DualSpot on"
"MA200-0420","52715","82","1","1.10","1.6","2023-08-21T13:00:00","120","2023/08/21","13:00:00","-15.795661687850952","35.00274316617288","0.1","13","300","64","97","433","-27175","-945","2","150","149.96","113.95","36.01","34.16","27.7","12.90","90068","34.50","DUALSPOT-UV-BLUE-GREEN-RED-IR","623864","635834","905920","14.518440","6.418365","0.034185","749822","829639","836013","10.591734","4.379886","0.039836","753429","820059","833293","9.128345","3.673988","0.042881","785937","829609","887025","7.331613","2.842281","0.046412","708273","862532","961581","4.699894","1.693232","0.055195","7943","12310","15771","7586","10833","13123","7418","10269","12190","7332","9648","11114","6604","8084","8918","DualSpot on"
"MA200-0420","52716","82","1","1.10","1.6","2023-08-21T13:05:00","120","2023/08/21","13:05:00","-15.79567664861679","35.002787666162476","0.1","13","300","64","97","427","-27136","-764","2","150","149.60","114.38","35.22","33.99","27.7","12.73","90060","34.44","DUALSPOT-UV-BLUE-GREEN-RED-IR","616597","633161","908749","16.004574","7.155716","0.032815","744096","828390","839130","11.727941","4.900856","0.038940","743837","814097","830920","10.125352","4.117264","0.042277","777618","824741","884850","8.149035","3.187420","0.046496","707204","864014","965294","5.234985","1.903227","0.057591","7631","12298","16071","7363","10966","13553","7236","10450","12652","7169","9832","11543","6534","8330","9355","DualSpot on"
"MA200-0420","52717","82","1","1.10","1.6","2023-08-21T13:10:00","120","2023/08/21","13:10:00","-15.795626878738403","35.00272983289324","0.0","13","300","64","98","387","-27229","-475","2","150","149.56","115.92","33.65","33.97","27.9","12.85","90048","34.44","DUALSPOT-UV-BLUE-GREEN-RED-IR","604470","625618","905052","17.582726","7.944629","0.032334","737235","826233","841625","12.951738","5.460356","0.038494","737027","811555","832285","11.205336","4.592753","0.041668","771900","822906","886234","9.042427","3.563185","0.047074","704346","863714","967146","5.832382","2.134514","0.059141","7996","13772","18533","7826","12327","15608","7735","11733","14510","7732","11205","13463","7199","9603","10990","DualSpot on"
"MA200-0420","52718","82","1","1.10","1.6","2023-08-21T13:15:00","120","2023/08/21","13:15:00","-15.795601844787598","35.002733499743044","0.2","12","300","64","97","329","-26766","-1558","2","150","150.49","116.00","34.49","34.03","27.9","12.87","90048","34.63","DUALSPOT-UV-BLUE-GREEN-RED-IR","598043","623400","908910","19.079444","8.722950","0.030389","725922","818564","838486","14.122343","6.019144","0.036356","727719","805769","830319","12.241718","5.071496","0.039693","769132","823942","890717","9.904610","3.942469","0.044768","698148","859055","964269","6.416916","2.372935","0.057827","7578","13254","18035","7481","12010","15375","7417","11524","14428","7457","11033","13397","7039","9656","11192","DualSpot on"
"MA200-0420","52719","82","1","1.10","1.6","2023-08-21T13:20:00","120","2023/08/21","13:20:00","-15.795686960220337","35.00275299954228","0.1","12","300","64","98","392","-27196","20","2","150","149.69","115.92","33.78","34.16","27.9","13.02","90032","34.81","DUALSPOT-UV-BLUE-GREEN-RED-IR","588746","617902","907597","20.491780","9.462505","0.029130","716828","812871","837028","15.209233","6.538892","0.034804","723658","805476","833660","13.198956","5.509611","0.037494","760298","818130","887497","10.700120","4.288626","0.042203","692780","855269","962022","6.958206","2.585961","0.051475","7156","12861","17755","6951","11407","14769","6856","10769","13573","6885","10282","12554","6523","8810","10163","DualSpot on"
"MA200-0420","52720","82","1","1.10","1.6","2023-08-21T13:25:00","120","2023/08/21","13:25:00","-15.795655488967896","35.00277249957435","0.1","12","300","64","97","508","-27229","-479","2","150","149.41","116.00","33.41","34.24","27.4","12.79","90028","34.81","DUALSPOT-UV-BLUE-GREEN-RED-IR","579500","611963","905347","21.841084","10.189568","0.028394","708003","807066","835196","16.234240","7.042208","0.034162","716340","801128","832701","14.105539","5.936509","0.037079","754682","815456","887557","11.452248","4.623245","0.041689","688478","852577","960979","7.473243","2.792387","0.051482","6832","12783","17987","6550","11168","14707","6488","10609","13603","6505","10049","12448","6202","8631","10081","DualSpot on"
"MA200-0420","52721","82","1","1.10","1.6","2023-08-21T13:30:00","120","2023/08/21","13:30:00","-15.795686662197113","35.00275916629471","0.1","12","300","64","97","354","-27170","-704","2","150","150.49","115.63","34.86","34.27","27.4","12.81","90020","34.88","DUALSPOT-UV-BLUE-GREEN-RED-IR","574647","610307","909066","23.090702","10.863667","0.025917","704359","806916","839097","17.215618","7.523451","0.030592","708115","795571","830337","14.975879","6.345913","0.032914","751120","814917","889807","12.180048","4.945906","0.036287","686549","852742","963139","7.973835","2.992643","0.043074","6347","11357","15808","6292","10233","13293","6249","9749","12324","6315","9285","11316","6047","8024","9211","DualSpot on"
"MA200-0420","52722","82","1","1.10","1.6","2023-08-21T13:35:00","120","2023/08/21","13:35:00","-15.795583367347717","35.00272816629149","0.0","13","300","64","97","416","-27158","-595","2","150","150.02","115.68","34.34","34.29","27.0","12.62","90020","34.75","DUALSPOT-UV-BLUE-GREEN-RED-IR","566531","604917","906970","24.284974","11.525814","0.025649","695929","800969","836871","18.156526","7.998465","0.030625","705347","795920","834045","15.812428","6.750943","0.033144","745396","811764","889253","12.879978","5.267079","0.037276","682714","850340","962310","8.452892","3.189349","0.045074","6063","11326","16079","6029","10255","13582","6003","9792","12615","6070","9383","11676","5785","8002","9346","DualSpot on"
"MA200-0420","52723","82","1","1.10","1.6","2023-08-21T13:40:00","120","2023/08/21","13:40:00","-15.795714795589447","35.00272733299062","0.1","13","300","64","97","470","-27104","-795","2","150","149.41","115.20","34.21","34.20","26.7","12.37","90016","34.56","DUALSPOT-UV-BLUE-GREEN-RED-IR","562558","603404","910228","25.345032","12.129803","0.025169","692720","800526","840024","18.995854","8.435235","0.030272","697877","790455","831439","16.562185","7.126758","0.033026","742493","811266","891326","13.505251","5.562773","0.037158","681695","851173","964997","8.880432","3.375831","0.048488","5404","10369","14927","5401","9464","12710","5403","9120","11927","5445","8671","10931","5184","7614","9105","DualSpot on"
"MA200-0420","52724","82","1","1.10","1.6","2023-08-21T13:45:00","120","2023/08/21","13:45:00","-15.79564255475998","35.002769666258246","0.1","13","300","64","97","464","-27247","-688","2","150","150.15","115.56","34.59","33.99","26.4","12.00","90020","34.31","DUALSPOT-UV-BLUE-GREEN-RED-IR","555632","598461","907751","26.313274","12.683456","0.024223","685620","795227","837867","19.772822","8.842141","0.029111","695890","790890","834805","17.255662","7.475225","0.031584","737807","808634","890888","14.088968","5.837783","0.035137","678695","849270","964520","9.271328","3.546214","0.045836","4921","9402","13572","4984","8721","11744","4982","8364","10950","5067","7977","10035","4725","6881","8217","DualSpot on"
"MA200-0420","52725","82","1","1.10","1.6","2023-08-21T13:50:00","120","2023/08/21","13:50:00","-15.795633375644684","35.00275449943729","0.2","13","300","64","97","408","-27216","-812","2","150","150.56","115.42","35.14","33.83","26.5","11.91","90008","34.25","DUALSPOT-UV-BLUE-GREEN-RED-IR","549218","593893","905868","27.267684","13.239140","0.023452","678866","790267","836044","20.540184","9.248552","0.027929","689428","786174","832757","17.944058","7.826186","0.030358","730274","802779","886891","14.664602","6.115457","0.034141","674685","846066","962515","9.658947","3.717494","0.043824","4856","9288","13471","4928","8574","11560","4951","8292","10876","5003","7928","10020","4691","6809","8134","DualSpot on"
"MA200-0420","52726","82","1","1.10","1.6","2023-08-21T13:55:00","120","2023/08/21","13:55:00","-15.795700013637543","35.00267366645858","0.1","13","300","64","97","448","-27140","-988","2","150","150.45","115.55","34.89","33.83","26.6","12.00","90004","34.31","DUALSPOT-UV-BLUE-GREEN-RED-IR","544641","591293","907076","28.240188","13.814259","0.023100","674391","787857","836939","21.313284","9.662585","0.027493","685830","784720","834134","18.632598","8.179713","0.029800","728116","802794","889407","15.244284","6.396005","0.033419","673215","846115","964257","10.055126","3.891897","0.042526","4943","9681","14218","4959","8796","11979","4947","8412","11123","5033","8066","10259","4789","6982","8367","DualSpot on"
"MA200-0420","52727","82","1","1.10","1.6","2023-08-21T14:00:00","120","2023/08/21","14:00:00","-15.795684695243835","35.002704832702875","0.2","13","300","64","97","404","-27075","-787","2","150","149.65","114.93","34.71","33.99","26.8","12.25","89992","34.69","DUALSPOT-UV-BLUE-GREEN-RED-IR","540986","589531","909342","29.158386","14.358940","0.022466","670834","786366","838649","22.045624","10.055609","0.026680","682022","782848","834948","19.287806","8.515803","0.028806","724362","800922","889706","15.796608","6.664182","0.032437","670919","845092","964714","10.443562","4.058535","0.039010","4692","9215","13604","4723","8392","11470","4732","8037","10650","4821","7750","9887","4721","6705","7966","DualSpot on"
"MA200-0420","52728","82","1","1.10","1.6","2023-08-21T14:05:00","120","2023/08/21","14:05:00","-15.795682787895203","35.00273749954067","0.6","13","300","64","97","456","-27068","-580","2","150","149.71","114.74","34.97","34.20","26.6","12.33","89992","34.81","DUALSPOT-UV-BLUE-GREEN-RED-IR","534803","584806","906835","30.039666","14.890774","0.021982","664564","781511","836719","22.751932","10.440506","0.026062","676981","779416","834068","19.920388","8.845182","0.028131","720206","798527","889370","16.332348","6.926107","0.031352","667618","842794","963629","10.826675","4.221796","0.036491","4511","8933","13280","4563","8160","11210","4577","7820","10411","4684","7515","9599","4664","6522","7710","DualSpot on"
"MA200-0420","52729","82","1","1.10","1.6","2023-08-21T14:10:00","120","2023/08/21","14:10:00","-15.795627534389496","35.00273316609673","0.4","13","300","64","97","395","-27016","-741","2","150","149.89","114.89","35.00","34.21","26.3","12.17","89988","34.69","DUALSPOT-UV-BLUE-GREEN-RED-IR","528705","580188","904457","30.920848","15.422691","0.021409","658301","776631","834717","23.458340","10.829096","0.025555","670952","774821","831865","20.554482","9.178440","0.027595","713183","792902","885461","16.871254","7.191781","0.030746","666589","843312","965843","11.212212","4.389900","0.037000","4504","8927","13327","4558","8231","11380","4582","7905","10587","4706","7616","9778","4687","6710","8011","DualSpot on"
"MA200-0420","52730","82","1","1.10","1.6","2023-08-21T14:15:00","120","2023/08/21","14:15:00","-15.795593023300171","35.002744832774624","0.2","13","300","64","97","479","-27228","-855","2","150","149.76","115.05","34.71","34.21","26.4","12.21","89984","34.69","DUALSPOT-UV-BLUE-GREEN-RED-IR","524486","577485","905110","31.794796","15.960968","0.021278","653698","773613","834710","24.159136","11.218095","0.025273","667182","772770","832467","21.185648","9.513171","0.027332","710408","791915","886701","17.405718","7.458538","0.030668","664749","842765","966845","11.589779","4.558791","0.038231","4461","9108","13793","4515","8308","11596","4554","8006","10819","4660","7710","9997","4584","6797","8232","DualSpot on"
"MA200-0420","52731","82","1","1.10","1.6","2023-08-21T14:20:00","120","2023/08/21","14:20:00","-15.795658349990845","35.002641999628395","0.4","14","300","64","97","500","-27216","-796","2","150","150.49","114.63","35.85","34.23","26.5","12.30","89984","34.81","DUALSPOT-UV-BLUE-GREEN-RED-IR","519882","574170","904519","32.608990","16.469185","0.020484","649416","770740","834715","24.820402","11.591261","0.024231","662639","769624","831725","21.782336","9.834070","0.026048","706047","789055","885766","17.914634","7.714954","0.028892","661670","840496","965830","11.948692","4.719434","0.034816","4171","8325","12563","4276","7715","10728","4321","7430","9989","4454","7174","9232","4373","6258","7489","DualSpot on"
"MA200-0420","52732","82","1","1.10","1.6","2023-08-21T14:25:00","120","2023/08/21","14:25:00","-15.795632779598236","35.00270549952984","0.4","13","300","64","97","448","-26984","-880","2","150","149.86","114.53","35.33","34.22","26.3","12.13","89984","34.63","DUALSPOT-UV-BLUE-GREEN-RED-IR","515617","571310","904944","33.482894","17.018932","0.020272","649735","773459","840988","25.517882","11.985626","0.023940","658579","767090","831811","22.409864","10.173501","0.025869","702665","787319","886210","18.445504","7.985194","0.028952","659311","839254","966000","12.324596","4.889008","0.035193","4481","9138","13951","4514","8273","11603","4549","7975","10823","4650","7673","9980","4585","6704","8097","DualSpot on"
"MA200-0420","52733","82","1","1.10","1.6","2023-08-21T14:30:00","120","2023/08/21","14:30:00","-15.795685350894928","35.00275999982841","0.3","13","300","64","97","404","-27068","-920","2","150","149.89","114.38","35.51","34.16","26.3","12.11","89976","34.50","DUALSPOT-UV-BLUE-GREEN-RED-IR","513510","570661","908627","34.296404","17.535424","0.019866","643171","767816","838089","26.187930","12.370287","0.023550","656261","766478","833939","23.015120","10.507228","0.025553","700757","787173","888392","18.961356","8.250016","0.028287","654820","835141","962916","12.687389","5.058115","0.035835","4177","8542","13109","4342","8030","11331","4393","7802","10666","4524","7481","9759","4431","6652","8125","DualSpot on"
"MA200-0420","52734","82","1","1.10","1.6","2023-08-21T14:35:00","120","2023/08/21","14:35:00","-15.795631051063538","35.00283466652036","0.2","14","300","64","97","400","-27100","-1020","2","150","149.84","114.29","35.54","34.03","26.0","11.83","89984","34.31","DUALSPOT-UV-BLUE-GREEN-RED-IR","508670","566845","907103","35.077956","18.037960","0.019593","638482","764289","837342","26.831986","12.746441","0.023323","649059","760012","829573","23.598676","10.832066","0.025150","698405","786392","889841","19.459954","8.511534","0.028243","653515","834986","964338","13.037781","5.223486","0.035542","4016","8304","12843","4177","7845","11164","4239","7587","10428","4376","7381","9717","4282","6499","7981","DualSpot on"
"MA200-0420","52735","82","1","1.10","1.6","2023-08-21T14:40:00","120","2023/08/21","14:40:00","-15.795667707920074","35.00279983272776","0.1","14","300","64","98","416","-27075","-948","2","150","150.40","114.48","35.92","33.91","25.9","11.64","89984","34.19","DUALSPOT-UV-BLUE-GREEN-RED-IR","504880","564110","907114","35.824740","18.521874","0.019207","634485","761457","837267","27.452738","13.109910","0.022723","648521","761292","833599","24.163130","11.148577","0.024574","693611","782787","887985","19.943884","8.763717","0.027132","650543","832704","963231","13.375587","5.382706","0.034146","3831","7913","12283","4019","7502","10685","4093","7316","10077","4241","7044","9242","4122","6192","7587","DualSpot on"
"MA200-0420","52736","82","1","1.10","1.6","2023-08-21T14:45:00","120","2023/08/21","14:45:00","-15.79570072889328","35.00280383275822","0.1","14","300","64","97","427","-27156","-948","2","150","149.69","113.98","35.71","33.88","26.1","11.72","89980","34.25","DUALSPOT-UV-BLUE-GREEN-RED-IR","501212","561547","907640","36.609740","19.035964","0.018965","630445","758654","837372","28.099160","13.488388","0.022264","645639","759872","834739","24.747992","11.475010","0.023962","691550","782342","889839","20.447318","9.027452","0.026710","649427","832857","964997","13.731255","5.549473","0.033104","4045","8455","13233","4204","7857","11229","4260","7589","10467","4431","7409","9763","4359","6523","7991","DualSpot on"
"MA200-0420","52737","82","1","1.10","1.6","2023-08-21T14:50:00","120","2023/08/21","14:50:00","-15.795631647109985","35.00281833275221","0.3","14","300","64","97","408","-27154","-629","2","150","149.44","114.34","35.10","33.77","26.0","11.58","89972","34.00","DUALSPOT-UV-BLUE-GREEN-RED-IR","496446","558172","908167","37.621916","19.695912","0.018666","626726","756626","838914","28.877958","13.941828","0.021959","641241","757049","834906","25.450014","11.863244","0.023582","687515","780029","889938","21.043122","9.333370","0.026004","647025","831681","965498","14.154018","5.741134","0.031445","5199","11043","17463","5049","9576","13802","5097","9182","12749","5228","8743","11546","5165","7627","9308","DualSpot on"
"MA200-0420","52738","82","1","1.10","1.6","2023-08-21T14:55:00","120","2023/08/21","14:55:00","-15.795740127563477","35.00278866640292","0.1","13","300","64","97","435","-27144","-724","2","150","150.40","114.06","36.33","33.71","26.3","11.71","89976","34.13","DUALSPOT-UV-BLUE-GREEN-RED-IR","493490","556157","909182","38.335584","20.172928","0.018225","622976","753936","838940","29.479742","14.301319","0.021360","634944","751359","831222","25.996458","12.174283","0.022958","685380","779334","891375","21.514018","9.583436","0.025384","645611","831302","966615","14.489784","5.902747","0.031960","3674","7711","12195","3911","7335","10561","3977","7107","9864","4141","6905","9125","4112","6214","7658","DualSpot on"
"MA200-0420","52739","82","1","1.10","1.6","2023-08-21T15:00:00","120","2023/08/21","15:00:00","-15.795640528202057","35.00279749976471","0.7","13","300","64","97","416","-27020","-1008","2","150","151.02","113.99","37.03","33.72","26.3","11.69","89976","34.00","DUALSPOT-UV-BLUE-GREEN-RED-IR","488116","551430","905897","39.067372","20.664956","0.017771","617262","748773","836254","30.084112","14.665569","0.020785","633298","751199","833695","26.548740","12.492049","0.022333","680363","775345","889059","21.990788","9.839543","0.024641","642108","828325","964706","14.833538","6.065203","0.029314","3770","7804","12334","3930","7292","10489","4022","7124","9881","4196","6938","9159","4212","6128","7454","DualSpot on"
"MA200-0420","52740","82","1","1.10","1.6","2023-08-21T15:05:00","120","2023/08/21","15:05:00","-15.795676350593567","35.002785332966596","0.0","13","300","64","97","341","-26991","-762","2","150","149.91","114.03","35.87","33.51","26.2","11.50","89964","33.63","DUALSPOT-UV-BLUE-GREEN-RED-IR","483992","547992","904734","39.790972","21.159492","0.017959","612913","745251","835441","30.693020","15.042442","0.021335","629530","748425","833312","27.102264","12.817741","0.022980","676620","772734","888417","22.467400","10.100161","0.025496","639926","826858","964595","15.166065","6.230361","0.032674","3727","8096","13059","3958","7787","11468","4029","7537","10684","4193","7288","9816","4073","6431","8074","DualSpot on"
"MA200-0420","52741","82","1","1.10","1.6","2023-08-21T15:10:00","120","2023/08/21","15:10:00","-15.795675218105316","35.00276749976911","0.3","13","300","64","97","479","-27129","-900","2","150","149.76","113.86","35.89","33.28","26.6","11.51","89956","33.44","DUALSPOT-UV-BLUE-GREEN-RED-IR","480193","544941","904173","40.515412","21.657306","0.017699","609026","742236","835238","31.305822","15.419668","0.020842","625624","745496","832787","27.660218","13.147109","0.022577","672252","769409","886916","22.948462","10.363767","0.025003","638221","826020","965244","15.498520","6.398003","0.032598","3737","8146","13209","3989","7790","11480","4068","7618","10834","4238","7368","9945","4078","6524","8243","DualSpot on"
"MA200-0420","52742","82","1","1.10","1.6","2023-08-21T15:15:00","120","2023/08/21","15:15:00","-15.795682311058044","35.00276599940844","0.1","13","300","64","97","408","-27108","-754","2","150","149.69","113.66","36.03","33.07","27.0","11.55","89952","33.19","DUALSPOT-UV-BLUE-GREEN-RED-IR","477428","542991","905500","41.238168","22.161942","0.017514","606275","740585","836548","31.918084","15.803493","0.020662","622641","743588","833463","28.217302","13.481173","0.022352","669799","768244","887955","23.430740","10.633248","0.024873","637039","825811","966682","15.836872","6.570505","0.032191","3734","8227","13446","3993","7898","11727","4069","7698","11018","4256","7504","10203","4158","6688","8483","DualSpot on"
"MA200-0420","52743","82","1","1.10","1.6","2023-08-21T15:20:00","120","2023/08/21","15:20:00","-15.795602679252625","35.00282866624184","0.0","13","300","64","97","433","-26933","-1012","2","150","149.95","113.70","36.25","33.01","27.6","11.87","89952","33.31","DUALSPOT-UV-BLUE-GREEN-RED-IR","472425","538495","902666","41.979560","22.678882","0.017171","600522","735300","833819","32.541966","16.191538","0.020107","618730","740619","832948","28.788764","13.819531","0.021622","666589","766275","888083","23.925590","10.906166","0.023947","630980","819443","960921","16.192616","6.746885","0.030118","3829","8376","13719","4067","7936","11767","4172","7749","11052","4366","7553","10224","4370","6797","8531","DualSpot on"
"MA200-0420","52744","82","1","1.10","1.6","2023-08-21T15:25:00","120","2023/08/21","15:25:00","-15.795655846595764","35.00275199953467","0.0","13","300","64","97","437","-27116","-941","2","150","150.02","113.70","36.31","32.98","28.1","12.08","89952","33.19","DUALSPOT-UV-BLUE-GREEN-RED-IR","473050","540407","910592","42.723372","23.203278","0.016981","597707","733542","835109","33.165004","16.583254","0.019888","615526","738476","833349","29.358606","14.159657","0.021345","663322","764179","888121","24.421266","11.183113","0.023762","632708","823243","967063","16.552395","6.922987","0.028877","3842","8482","13997","4062","7997","11932","4160","7776","11144","4373","7651","10421","4420","6774","8467","DualSpot on"
"MA200-0420","52745","82","1","1.10","1.6","2023-08-21T15:30:00","120","2023/08/21","15:30:00","-15.795650064945221","35.00273733283393","0.1","14","300","64","97","468","-27100","-668","2","150","150.34","113.70","36.64","32.99","28.4","12.24","89948","33.25","DUALSPOT-UV-BLUE-GREEN-RED-IR","466069","533558","903744","43.454812","23.722310","0.016703","594013","730642","835034","33.775192","16.972126","0.019623","612148","736039","833436","29.916876","14.497748","0.021075","659773","761699","887671","24.908208","11.458068","0.023373","627054","817310","961812","16.910748","7.101940","0.028775","3778","8320","13781","3978","7868","11797","4076","7661","11031","4296","7529","10283","4402","6823","8575","DualSpot on"
"MA200-0420","52746","82","1","1.10","1.6","2023-08-21T15:35:00","120","2023/08/21","15:35:00","-15.795704960823059","35.00270316610113","0.3","14","300","64","97","400","-27125","-1191","2","150","150.64","113.38","37.26","32.89","28.2","12.09","89952","33.00","DUALSPOT-UV-BLUE-GREEN-RED-IR","463807","532068","905866","44.174628","24.237832","0.016372","591945","729661","837143","34.376924","17.359136","0.019173","609853","734875","834910","30.468606","14.834181","0.020516","659433","762885","891480","25.387728","11.730911","0.022697","626228","817703","963957","17.261108","7.276531","0.027325","3728","8126","13472","3934","7699","11541","4039","7496","10775","4242","7346","10012","4316","6545","8170","DualSpot on"
"MA200-0420","52747","82","1","1.10","1.6","2023-08-21T15:40:00","120","2023/08/21","15:40:00","-15.795621037483215","35.00280266604386","0.0","15","300","64","97","400","-27224","-784","2","150","150.21","113.43","36.78","32.82","28.1","11.95","89960","32.94","DUALSPOT-UV-BLUE-GREEN-RED-IR","459777","528453","904204","44.862952","24.735398","0.016329","587925","726164","836284","34.956668","17.736392","0.019207","605909","731624","833936","30.997962","15.162535","0.020684","654629","758813","889083","25.848966","11.996327","0.022864","623703","815754","963279","17.595582","7.446279","0.028121","3564","7944","13328","3789","7602","11531","3874","7411","10797","4079","7239","9975","4119","6446","8153","DualSpot on"
"MA200-0420","52748","82","1","1.10","1.6","2023-08-21T15:45:00","120","2023/08/21","15:45:00","-15.795703828334808","35.002716165967286","0.1","15","300","64","98","404","-27108","-844","2","150","149.87","113.27","36.61","32.72","27.4","11.50","89956","32.81","DUALSPOT-UV-BLUE-GREEN-RED-IR","459280","528740","908747","45.473276","25.177086","0.016168","587002","726360","839335","35.478156","18.075026","0.018968","601534","727630","831823","31.477638","15.459357","0.020412","654913","760488","893224","26.269938","12.238102","0.022560","624168","817573","966957","17.900898","7.603426","0.028347","3164","7087","11952","3413","6857","10435","3515","6731","9835","3728","6626","9153","3765","5996","7644","DualSpot on"
"MA200-0420","52749","82","1","1.10","1.6","2023-08-21T15:50:00","120","2023/08/21","15:50:00","-15.795643031597137","35.00279049971141","0.2","15","300","64","97","383","-27095","-854","2","150","150.34","113.51","36.84","32.64","27.2","11.32","89956","32.81","DUALSPOT-UV-BLUE-GREEN-RED-IR","455019","524689","905579","46.056952","25.601960","0.015997","582304","721807","836776","35.973988","18.399474","0.018774","597731","724291","830368","31.931488","15.741059","0.020132","650796","756958","891119","26.664188","12.467609","0.022448","621420","815089","965420","18.187306","7.750187","0.027614","3020","6774","11473","3238","6529","9975","3319","6349","9294","3484","6251","8680","3524","5565","7081","DualSpot on"
"MA200-0420","52750","82","1","1.10","1.6","2023-08-21T15:55:00","120","2023/08/21","15:55:00","-15.795661985874176","35.00274583301507","0.2","16","300","64","97","437","-27095","-754","2","150","149.74","113.18","36.55","32.66","27.0","11.22","89956","32.75","DUALSPOT-UV-BLUE-GREEN-RED-IR","453647","523870","907960","46.624008","26.019936","0.015951","581333","721720","839304","36.448424","18.713758","0.018755","595630","722891","831023","32.367280","16.015755","0.020183","648689","755711","891615","27.044608","12.689726","0.022316","620091","814470","966100","18.467206","7.893774","0.027447","2942","6716","11482","3107","6374","9821","3196","6239","9219","3372","6096","8505","3454","5487","7005","DualSpot on"
"MA200-0420","52751","82","1","1.10","1.6","2023-08-21T16:00:00","120","2023/08/21","16:00:00","-15.795686841011047","35.00275916629471","0.1","16","300","64","97","437","-27220","-1237","2","150","149.52","113.61","35.91","32.56","26.7","10.95","89956","32.63","DUALSPOT-UV-BLUE-GREEN-RED-IR","451828","522537","909398","47.183672","26.431972","0.015924","579572","720728","840849","36.929336","19.032458","0.018779","594853","723133","833639","32.808758","16.294935","0.020278","644056","751483","888608","27.430184","12.917110","0.022626","616797","811239","963674","18.749664","8.042011","0.028598","2893","6738","11637","3138","6578","10237","3226","6454","9639","3404","6352","8975","3473","5766","7488","DualSpot on"
"MA200-0420","52752","82","1","1.10","1.6","2023-08-21T16:05:00","120","2023/08/21","16:05:00","-15.795622825622559","35.00281683309004","0.1","15","300","64","97","370","-27141","-629","2","150","150.21","113.39","36.82","32.49","26.5","10.82","89960","32.69","DUALSPOT-UV-BLUE-GREEN-RED-IR","448533","519535","907927","47.751824","26.849152","0.015546","575883","717292","839503","37.411800","19.351250","0.018226","590926","719526","831822","33.254502","16.574743","0.019557","639660","747592","886013","27.821910","13.144819","0.021552","617750","813606","967936","19.035058","8.189930","0.026860","2942","6654","11421","3154","6418","9915","3263","6308","9334","3465","6204","8656","3515","5611","7194","DualSpot on"
"MA200-0420","52753","82","1","1.10","1.6","2023-08-21T16:10:00","120","2023/08/21","16:10:00","-15.795612752437592","35.002760499715805","0.0","15","300","64","97","404","-27068","-988","2","150","150.35","113.47","36.88","32.52","26.6","10.85","89960","33.00","DUALSPOT-UV-BLUE-GREEN-RED-IR","444824","515927","905328","48.299172","27.259404","0.015527","571638","713055","837113","37.866588","19.658620","0.018271","590513","720116","834750","33.671740","16.843952","0.019705","640862","750092","890936","28.185024","13.363604","0.021959","614757","810640","965829","19.304146","8.339756","0.028839","2833","6534","11329","2971","6179","9642","3052","6060","9071","3210","5952","8424","3312","5675","7473","DualSpot on"
"MA200-0420","52754","82","1","1.10","1.6","2023-08-21T16:15:00","120","2023/08/21","16:15:00","-15.795547366142273","35.002840666566044","0.2","15","300","64","97","341","-27183","-483","2","150","149.76","112.64","37.12","32.60","26.3","10.76","89956","33.25","DUALSPOT-UV-BLUE-GREEN-RED-IR","441985","513295","904142","48.805740","27.639092","0.015287","568254","709856","835692","38.290768","19.941232","0.017778","587798","717833","834137","34.062968","17.091444","0.019042","637816","747550","889722","28.526932","13.564617","0.021004","612289","808367","964432","19.560288","8.473129","0.025858","2641","6008","10404","2791","5644","8744","2883","5535","8206","3045","5433","7598","3176","5019","6427","DualSpot on"
"MA200-0420","52755","82","1","1.10","1.6","2023-08-21T16:20:00","120","2023/08/21","16:20:00","-15.795644402503967","35.002764832926914","0.0","14","300","64","97","337","-27095","-1100","2","150","150.69","113.27","37.42","32.86","25.9","10.79","89968","33.63","DUALSPOT-UV-BLUE-GREEN-RED-IR","440045","511748","905037","49.344980","28.038414","0.015035","566011","708090","836057","38.729208","20.231464","0.017494","582160","712040","829468","34.463844","17.341078","0.018581","635372","745805","889452","28.879406","13.768896","0.020442","609764","806158","963066","19.833244","8.606020","0.022965","2796","6267","10834","2869","5749","8898","2938","5537","8170","3122","5476","7621","3366","4960","6182","DualSpot on"
"MA200-0420","52756","82","1","1.10","1.6","2023-08-21T16:25:00","120","2023/08/21","16:25:00","-15.795676529407501","35.002733999630436","0.0","14","300","64","97","570","-27116","-741","2","150","149.53","112.52","37.01","33.02","25.2","10.51","89972","33.63","DUALSPOT-UV-BLUE-GREEN-RED-IR","440123","512473","909989","49.874664","28.440606","0.015093","566654","709896","840679","39.165672","20.526594","0.017600","582072","712929","832669","34.863804","17.597334","0.018840","631607","742401","887215","29.226428","13.974905","0.020758","609942","807465","965927","20.100316","8.740015","0.023968","2764","6382","11183","2875","5911","9255","2951","5748","8599","3094","5584","7866","3315","5057","6398","DualSpot on"
"MA200-0420","52757","82","1","1.10","1.6","2023-08-21T16:30:00","120","2023/08/21","16:30:00","-15.795518696308136","35.00276216631755","0.2","14","300","64","97","416","-27162","-1033","2","150","149.84","112.63","37.21","32.92","24.5","10.01","89968","33.25","DUALSPOT-UV-BLUE-GREEN-RED-IR","438038","510619","909731","50.321288","28.776966","0.014891","564476","708014","840606","39.543596","20.786108","0.017565","580307","711644","833046","35.211532","17.823926","0.018836","630176","741671","887971","29.531646","14.158773","0.020748","609351","807558","967151","20.327252","8.857656","0.024706","2329","5310","9291","2487","5170","8144","2563","5056","7611","2718","4958","7020","2814","4417","5654","DualSpot on"
"MA200-0420","52758","82","1","1.10","1.6","2023-08-21T16:35:00","120","2023/08/21","16:35:00","-15.79560101032257","35.00276416633278","0.4","14","300","68","97","350","-27241","-662","3","150","150.08","114.43","35.65","32.57","24.5","9.69","89972","32.50","DUALSPOT-UV-BLUE-GREEN-RED-IR","761370","686766","909685","0.000000","0.000000","0.000000","859790","873818","840180","0.000000","0.000000","0.000000","842270","852102","834023","0.000000","0.000000","0.000000","855754","851919","886794","0.000000","0.000000","0.000000","749166","876269","964652","0.000000","0.000000","0.000000","","","","","","","","","","","","","","","","Tape advance-DualSpot on"
"MA200-0420","52759","82","1","1.10","1.6","2023-08-21T16:40:00","120","2023/08/21","16:40:00","-15.795577466487885","35.0028243327979","0.2","14","300","68","97","388","-27091","-1048","3","150","149.56","114.65","34.91","32.16","24.8","9.50","89972","32.13","DUALSPOT-UV-BLUE-GREEN-RED-IR","747087","681578","908621","0.000000","0.000000","0.000000","848988","869236","839130","0.000000","0.000000","0.000000","834498","849420","834177","0.000000","0.000000","0.000000","850157","850325","887368","0.000000","0.000000","0.000000","747572","876650","966405","0.000000","0.000000","0.000000","","","","","","","","","","","","","","","","Tape advance-DualSpot on"
"MA200-0420","52760","82","1","1.10","1.6","2023-08-21T16:45:00","120","2023/08/21","16:45:00","-15.795602142810822","35.00273416633718","0.3","14","300","64","97","504","-27258","-416","3","150","149.47","115.79","33.68","31.87","25.0","9.38","89980","31.81","DUALSPOT-UV-BLUE-GREEN-RED-IR","732714","675330","905832","1.634292","0.614156","0.000000","838280","864129","837486","1.071995","0.390118","0.000000","825402","844933","832493","0.895654","0.324535","0.000000","848884","852817","892136","0.684379","0.243771","0.000000","744399","875080","966077","0.389741","0.141342","0.000000","8290","10711","8290","6863","8587","6863","6421","8000","6421","5929","7262","5929","4702","5862","4702","DualSpot on"
"MA200-0420","52761","82","1","1.10","1.6","2023-08-21T16:50:00","120","2023/08/21","16:50:00","-15.79557603597641","35.0028041661717","0.2","14","300","64","97","454","-26916","-1600","3","150","149.90","116.63","33.26","31.61","25.2","9.29","89980","31.56","DUALSPOT-UV-BLUE-GREEN-RED-IR","716424","668066","902627","3.518385","1.339866","0.102740","826633","858410","835449","2.223897","0.810903","0.000000","815427","839838","830329","1.848189","0.668621","0.000000","839748","847608","888962","1.407192","0.498362","0.000000","740189","872490","964612","0.804599","0.286798","0.000000","9488","12814","14859","7321","9377","7321","6780","8587","6780","6217","7678","6217","4968","6108","4968","DualSpot on"
"MA200-0420","52762","82","1","1.10","1.6","2023-08-21T16:55:00","120","2023/08/21","16:55:00","-15.795671045780182","35.002744666300714","0.2","14","300","64","97","408","-27170","-679","3","150","150.15","116.71","33.43","31.37","25.0","9.00","89984","31.25","DUALSPOT-UV-BLUE-GREEN-RED-IR","708653","668815","910856","5.530891","2.132305","0.068466","816865","855069","836108","3.499948","1.281547","0.089154","808014","837870","831546","2.913105","1.054126","0.000000","834006","846306","890113","2.229031","0.785079","0.000000","738329","873101","966880","1.290397","0.455078","0.000000","10128","13921","16300","8105","10435","11781","7575","9572","7575","7064","8603","7064","5814","7030","5814","DualSpot on"
"MA200-0420","52763","82","1","1.10","1.6","2023-08-21T17:00:00","120","2023/08/21","17:00:00","-15.795605957508087","35.002766833174974","0.1","14","300","64","97","348","-27000","-1000","3","150","149.69","116.63","33.06","31.11","25.0","8.73","89980","31.06","DUALSPOT-UV-BLUE-GREEN-RED-IR","694678","662789","909153","7.325599","2.853138","0.055375","805629","849730","834627","4.700489","1.729780","0.071053","799883","834834","831676","3.932214","1.428175","0.080441","828262","844868","891154","3.033672","1.069540","0.091020","731371","867668","962518","1.785448","0.626788","0.000000","9038","12804","15207","7631","10049","11457","7254","9392","10611","6921","8631","9562","5929","7254","5929","DualSpot on"
"MA200-0420","52764","82","1","1.10","1.6","2023-08-21T17:05:00","120","2023/08/21","17:05:00","-15.795574605464935","35.00281549943611","0.4","14","300","64","97","412","-26916","-975","3","150","150.15","116.94","33.20","30.81","25.0","8.48","89980","30.69","DUALSPOT-UV-BLUE-GREEN-RED-IR","680356","654776","903894","8.843876","3.493522","0.050341","799009","848206","836566","5.762369","2.144026","0.064770","793586","832880","832551","4.834889","1.772230","0.072568","818000","838185","886418","3.752792","1.331867","0.081601","730262","868721","965222","2.221994","0.786051","0.000000","7625","11327","13745","6731","9248","10740","6408","8602","9872","6169","7926","8892","5214","6700","5214","DualSpot on"
"MA200-0420","52765","82","1","1.10","1.6","2023-08-21T17:10:00","120","2023/08/21","17:10:00","-15.795624136924744","35.00274833291769","0.3","14","300","64","97","425","-27066","-895","3","150","149.77","116.90","32.88","30.55","25.1","8.35","89976","30.50","DUALSPOT-UV-BLUE-GREEN-RED-IR","671923","651715","904903","10.202724","4.072616","0.045254","792508","846259","837863","6.735746","2.528494","0.058352","788115","831386","833767","5.672018","2.095668","0.065622","813693","837303","887670","4.419385","1.578568","0.074570","724810","864434","961891","2.624036","0.932742","0.000000","6827","10346","12683","6172","8669","10170","5945","8168","9470","5721","7528","8533","4804","6233","4804","DualSpot on"
"MA200-0420","52766","82","1","1.10","1.6","2023-08-21T17:15:00","120","2023/08/21","17:15:00","-15.795600712299347","35.00277449958958","0.2","14","300","64","98","408","-27045","-891","3","150","150.28","116.90","33.37","30.34","25.2","8.25","89964","30.25","DUALSPOT-UV-BLUE-GREEN-RED-IR","663032","648159","905475","11.599459","4.684284","0.040733","786014","844361","839433","7.741216","2.937162","0.052411","781835","829065","834292","6.536192","2.436663","0.057927","808521","835546","888138","5.109956","1.840880","0.066666","722874","864474","963454","3.053037","1.090767","0.101907","7017","10764","13303","6376","9077","10729","6137","8482","9876","5926","7885","8988","5126","6614","7441","DualSpot on"
"MA200-0420","52767","82","1","1.10","1.6","2023-08-21T17:20:00","120","2023/08/21","17:20:00","-15.795582354068756","35.002865999471396","0.1","14","300","64","98","464","-26875","-1096","3","150","149.84","116.75","33.09","30.09","25.5","8.19","89960","29.94","DUALSPOT-UV-BLUE-GREEN-RED-IR","648540","640691","902453","13.468349","5.506313","0.035849","771659","836087","836104","9.183655","3.524500","0.045160","770599","823449","832842","7.805113","2.941326","0.050335","797498","829515","885228","6.153002","2.238964","0.057320","717217","861347","962399","3.726753","1.340698","0.087328","9402","14591","18180","9159","13158","15649","9023","12662","14863","8963","12070","13847","8061","10551","11950","DualSpot on"
"MA200-0420","52768","82","1","1.10","1.6","2023-08-21T17:25:00","120","2023/08/21","17:25:00","-15.795649886131287","35.00276583293453","0.2","14","300","64","97","441","-27170","-883","3","150","150.34","116.47","33.87","29.88","25.8","8.18","89960","29.81","DUALSPOT-UV-BLUE-GREEN-RED-IR","641544","638451","905041","14.842220","6.142704","0.033874","766063","834891","838539","10.208508","3.960090","0.042103","761225","817690","830037","8.693605","3.309685","0.046845","795115","830601","888967","6.871948","2.524191","0.053153","717096","863606","966611","4.180246","1.516940","0.082637","6928","11034","13934","6523","9532","11440","6333","9028","10684","6193","8447","9756","5439","7268","8309","DualSpot on"
"MA200-0420","52769","82","1","1.10","1.6","2023-08-21T17:30:00","120","2023/08/21","17:30:00","-15.795645356178284","35.0027618331369","0.0","14","300","64","98","400","-27154","-779","3","150","150.28","116.31","33.97","29.75","26.2","8.29","89968","29.69","DUALSPOT-UV-BLUE-GREEN-RED-IR","634687","636534","908308","16.274338","6.805027","0.030770","760080","833599","841104","11.295213","4.420531","0.037675","756383","817010","832659","9.644286","3.702156","0.041650","792557","831836","893000","7.649042","2.832586","0.047467","711931","860071","964490","4.683824","1.709144","0.069568","7232","11453","14486","6926","10049","12057","6786","9593","11341","6703","9109","10524","6048","7904","8971","DualSpot on"
"MA200-0420","52770","82","1","1.10","1.6","2023-08-21T17:35:00","120","2023/08/21","17:35:00","-15.79561460018158","35.00282199960202","0.1","14","300","64","97","376","-27068","-1108","3","150","149.53","116.29","33.24","29.62","26.7","8.47","89972","29.63","DUALSPOT-UV-BLUE-GREEN-RED-IR","624161","632653","910993","18.235000","7.705242","0.028082","745449","824900","837818","12.843393","5.073000","0.034211","743361","809567","829715","11.020180","4.264229","0.037355","780411","824872","889561","8.799622","3.283763","0.042299","704464","855283","961987","5.474376","2.004756","0.059737","9903","15904","20296","9869","14549","17604","9823","14036","16696","9926","13615","15812","9496","12421","14111","DualSpot on"
"MA200-0420","52771","82","1","1.10","1.6","2023-08-21T17:40:00","120","2023/08/21","17:40:00","-15.795638024806976","35.002684499602765","0.1","14","300","64","97","437","-26829","-1020","3","150","149.82","115.95","33.87","29.48","27.4","8.71","89976","29.44","DUALSPOT-UV-BLUE-GREEN-RED-IR","609255","623518","905634","20.070054","8.573956","0.025916","735763","820974","839051","14.299793","5.702473","0.031041","734973","806469","831016","12.318851","4.807318","0.033656","773641","823029","891447","9.887878","3.719849","0.037783","700436","854348","963685","6.223501","2.291549","0.052983","9295","15066","19371","9311","13779","16742","9298","13313","15883","9415","12918","15031","9024","11830","13464","DualSpot on"
"MA200-0420","52772","82","1","1.10","1.6","2023-08-21T17:45:00","120","2023/08/21","17:45:00","-15.795620024204254","35.002753832843155","0.1","15","300","64","98","552","-27108","-1156","3","150","149.41","115.92","33.49","29.33","28.0","8.92","89988","29.31","DUALSPOT-UV-BLUE-GREEN-RED-IR","601201","620396","908354","21.700050","9.374428","0.025436","729096","819266","842083","15.569753","6.267240","0.030468","728489","804470","833011","13.443203","5.292542","0.033387","761892","815043","886168","10.825525","4.105381","0.037443","698152","854823","966651","6.859020","2.541174","0.052996","8259","14039","18434","8121","12501","15452","8053","12028","14610","8115","11549","13647","7658","10412","12032","DualSpot on"
"MA200-0420","52773","82","1","1.10","1.6","2023-08-21T17:50:00","120","2023/08/21","17:50:00","-15.795623362064362","35.00273083290085","0.1","15","300","64","98","276","-26960","-1420","3","150","150.36","115.79","34.58","29.18","28.6","9.13","90000","29.19","DUALSPOT-UV-BLUE-GREEN-RED-IR","593075","616825","910323","23.280010","10.167286","0.023501","716329","810220","837294","16.768379","6.810674","0.027791","722448","802569","834897","14.502972","5.756679","0.030077","757507","814506","888866","11.705846","4.472085","0.033308","692037","850401","963862","7.451568","2.774316","0.045085","8014","13468","17697","7674","11651","14371","7599","11144","13478","7627","10640","12502","7149","9419","10766","DualSpot on"
"MA200-0420","52774","82","1","1.10","1.6","2023-08-21T17:55:00","120","2023/08/21","17:55:00","-15.795625269412994","35.00278433319181","0.3","15","300","64","98","545","-27329","-512","3","150","150.49","115.54","34.94","29.06","29.2","9.34","90000","29.06","DUALSPOT-UV-BLUE-GREEN-RED-IR","580006","608786","907201","25.158874","11.136044","0.022196","708883","808116","840858","18.234894","7.490264","0.026026","710973","795561","832473","15.809068","6.340904","0.028109","752099","813834","892322","12.806847","4.940092","0.031049","689100","850658","967110","8.210838","3.078914","0.041787","9551","16283","21629","9409","14417","17908","9384","13880","16890","9560","13436","15871","9179","12176","13974","DualSpot on"
"MA200-0420","52775","82","1","1.10","1.6","2023-08-21T18:00:00","120","2023/08/21","18:00:00","-15.795569479465485","35.00274116615765","0.1","14","300","64","97","429","-26904","-1158","3","150","149.94","114.84","35.10","28.94","29.9","9.57","90008","28.94","DUALSPOT-UV-BLUE-GREEN-RED-IR","571820","605286","910502","26.935402","12.071625","0.021055","696749","800197","838133","19.637170","8.150593","0.024458","704380","793637","835184","17.065922","6.910411","0.026235","741419","807170","889090","13.871267","5.398168","0.028867","682282","845984","964714","8.958389","3.381801","0.038332","9086","15654","20989","9052","13945","17417","9086","13469","16452","9299","13092","15509","9093","12053","13849","DualSpot on"
"MA200-0420","52776","82","1","1.10","1.6","2023-08-21T18:05:00","120","2023/08/21","18:05:00","-15.795551896095276","35.00272616627626","0.2","14","300","64","98","435","-26828","-1380","3","150","150.28","114.18","36.10","28.82","30.6","9.79","90012","28.81","DUALSPOT-UV-BLUE-GREEN-RED-IR","558250","596127","905956","28.844632","13.098095","0.019484","687935","796395","840391","21.179548","8.898834","0.022645","692289","785808","832352","18.457256","7.559345","0.024161","735344","805878","892347","15.062405","5.925671","0.026411","678750","845857","967941","9.808361","3.731119","0.033251","9821","16701","22424","10014","15365","19243","10116","14924","18259","10466","14660","17380","10399","13517","15432","DualSpot on"
"MA200-0420","52777","82","1","1.10","1.6","2023-08-21T18:10:00","120","2023/08/21","18:10:00","-15.79559600353241","35.00279349973425","0.2","14","300","64","98","558","-27270","-1012","3","150","149.71","113.76","35.95","28.72","31.1","9.97","90012","28.69","DUALSPOT-UV-BLUE-GREEN-RED-IR","551161","593282","910604","30.642642","14.091465","0.018954","675907","788194","837814","22.641080","9.624990","0.022034","681927","779334","830717","19.773260","8.190739","0.023742","725333","799788","890159","16.188356","6.437542","0.026030","672386","841752","966570","10.611115","4.075872","0.034709","9283","16230","22145","9524","14974","19005","9604","14582","18102","9929","14285","17161","9857","13397","15604","DualSpot on"
"MA200-0420","52778","82","1","1.10","1.6","2023-08-21T18:15:00","120","2023/08/21","18:15:00","-15.795605480670929","35.00272799958475","0.1","14","300","64","97","356","-27019","-684","3","150","149.82","113.43","36.39","28.61","31.7","10.17","90008","28.56","DUALSPOT-UV-BLUE-GREEN-RED-IR","542013","586812","907738","32.000992","14.875439","0.018713","671279","786958","841225","23.734690","10.188207","0.021682","677840","778538","833889","20.760660","8.677216","0.023082","716845","794002","887160","17.031708","6.830131","0.025215","667070","837895","964620","11.206196","4.334087","0.032565","7033","12652","17533","7147","11472","14725","7227","11097","13877","7459","10822","13074","7328","9911","11540","DualSpot on"
"MA200-0420","52779","82","1","1.10","1.6","2023-08-21T18:20:00","120","2023/08/21","18:20:00","-15.795624375343323","35.00276383315213","0.1","13","300","64","97","387","-27045","-1220","3","150","150.15","113.47","36.68","28.49","32.5","10.43","90012","28.44","DUALSPOT-UV-BLUE-GREEN-RED-IR","537081","584288","910165","33.181702","15.572586","0.018353","662044","779632","837540","24.681790","10.683930","0.021146","669569","772318","830774","21.613874","9.106105","0.022650","713984","793853","890031","17.758178","7.172364","0.024446","665670","838531","967467","11.713726","4.555581","0.031091","6111","11163","15631","6187","10019","12943","6242","9707","12230","6423","9360","11351","6248","8435","9827","DualSpot on"
"MA200-0420","52780","82","1","1.10","1.6","2023-08-21T18:25:00","120","2023/08/21","18:25:00","-15.795664370059967","35.002746999729425","0.1","14","300","64","97","400","-27062","-1000","3","150","149.50","113.27","36.23","28.39","33.2","10.63","90020","28.38","DUALSPOT-UV-BLUE-GREEN-RED-IR","529703","578875","907992","34.328140","16.262928","0.018250","659173","779605","841594","25.603702","11.175315","0.021163","666810","772282","834296","22.447196","9.529490","0.022524","707225","789247","887886","18.470134","7.513224","0.024678","661403","835504","966139","12.215496","4.775458","0.030940","5944","11192","15916","6033","10055","13169","6107","9702","12354","6306","9439","11588","6188","8478","9948","DualSpot on"
"MA200-0420","52781","82","1","1.10","1.6","2023-08-21T18:30:00","120","2023/08/21","18:30:00","-15.795548021793365","35.00283099967055","0.3","14","300","64","98","325","-27008","-1004","3","150","150.15","113.16","36.99","28.31","33.8","10.85","90024","28.31","DUALSPOT-UV-BLUE-GREEN-RED-IR","522762","573711","906055","35.438616","16.945542","0.017717","652257","774538","840195","26.488454","11.657942","0.020548","660680","768107","833203","23.245210","9.945776","0.021945","705978","790646","892433","19.152610","7.844928","0.023595","657369","832671","964877","12.699089","4.987171","0.028222","5764","10838","15488","5796","9672","12719","5855","9343","11951","6051","8996","11040","5970","7995","9304","DualSpot on"
"MA200-0420","52782","82","1","1.10","1.6","2023-08-21T18:35:00","120","2023/08/21","18:35:00","-15.795704007148743","35.002722666133195","0.1","13","300","64","97","452","-27119","-552","3","150","150.60","113.35","37.25","28.25","34.2","11.00","90028","28.25","DUALSPOT-UV-BLUE-GREEN-RED-IR","517848","571045","908895","36.689184","17.722610","0.017246","643007","766967","836332","27.450394","12.178868","0.019597","653118","762562","830924","24.111494","10.390531","0.020609","698230","785018","889245","19.897744","8.201552","0.021961","651964","828359","962105","13.234650","5.218867","0.025922","6480","12251","17644","6291","10366","13615","6345","9911","12612","6595","9604","11713","6600","8688","10047","DualSpot on"
"MA200-0420","52783","82","1","1.10","1.6","2023-08-21T18:40:00","120","2023/08/21","18:40:00","-15.795636713504791","35.00275466614403","0.1","13","300","64","98","364","-26968","-1488","3","150","149.47","113.31","36.16","28.17","34.6","11.09","90024","28.13","DUALSPOT-UV-BLUE-GREEN-RED-IR","511537","566483","908322","37.857760","18.466874","0.017442","636693","762508","835670","28.367224","12.685066","0.020061","647509","758966","830592","24.943902","10.826693","0.021305","693169","782203","889185","20.620368","8.553301","0.022940","652507","831521","967996","13.762337","5.448102","0.027191","6057","12089","17833","5998","10377","13920","6099","10014","13016","6398","9759","12141","6505","8855","10396","DualSpot on"
"MA200-0420","52784","82","1","1.10","1.6","2023-08-21T18:45:00","120","2023/08/21","18:45:00","-15.79568099975586","35.002703999402","0.0","13","300","64","97","329","-26950","-970","3","150","150.56","113.02","37.54","28.10","34.8","11.12","90028","28.06","DUALSPOT-UV-BLUE-GREEN-RED-IR","506103","562257","906900","38.769432","19.056584","0.016786","635946","764165","841137","29.131006","13.117662","0.019292","642074","755028","829366","25.639832","11.201604","0.020471","687201","777818","886885","21.227718","8.857081","0.021893","648804","828805","966748","14.200665","5.644727","0.025906","4737","9227","13567","5009","8543","11438","5112","8292","10759","5391","8119","10072","5417","7317","8570","DualSpot on"
"MA200-0420","52785","82","1","1.10","1.6","2023-08-21T18:50:00","120","2023/08/21","18:50:00","-15.795727491378784","35.00269666640088","0.1","13","300","64","97","479","-27150","-454","3","150","149.95","112.87","37.08","28.04","35.0","11.16","90036","28.00","DUALSPOT-UV-BLUE-GREEN-RED-IR","499513","557063","905025","39.868508","19.775750","0.016633","629304","758944","839418","29.975568","13.601394","0.019233","640083","755313","833141","26.400896","11.614512","0.020371","686966","780087","892431","21.883406","9.187881","0.021943","645199","826351","965942","14.677567","5.859810","0.026098","5719","11392","16977","5546","9671","13098","5597","9245","12111","5828","8951","11211","5902","8103","9566","DualSpot on"
"MA200-0420","52786","82","1","1.10","1.6","2023-08-21T18:55:00","120","2023/08/21","18:55:00","-15.795683562755585","35.00273199961521","0.5","13","300","64","97","466","-27266","-870","3","150","149.96","112.86","37.10","27.99","35.2","11.18","90044","28.00","DUALSPOT-UV-BLUE-GREEN-RED-IR","497671","556837","910417","40.836724","20.415588","0.016379","623029","753852","837682","30.775770","14.064811","0.018968","634855","751581","832358","27.131708","12.016103","0.020143","681364","776173","890813","22.519948","9.512939","0.021725","641486","823678","964890","15.145054","6.073259","0.025987","5039","10128","15216","5256","9258","12627","5376","8985","11855","5658","8789","11079","5786","8036","9542","DualSpot on"
"MA200-0420","52787","82","1","1.10","1.6","2023-08-21T19:00:00","120","2023/08/21","19:00:00","-15.79570484161377","35.00266516627744","0.2","13","300","64","98","400","-27156","-708","3","150","150.08","113.07","37.01","27.94","35.3","11.19","90044","27.94","DUALSPOT-UV-BLUE-GREEN-RED-IR","491973","552173","908485","41.774616","21.039466","0.016165","617132","749133","836226","31.555338","14.520953","0.018804","629185","747209","830804","27.842866","12.411705","0.020040","675689","771981","888883","23.143198","9.835875","0.021755","637852","820994","963791","15.601765","6.285894","0.026558","4871","9901","15004","5111","9136","12568","5221","8874","11812","5530","8754","11137","5642","8026","9634","DualSpot on"
"MA200-0420","52788","82","1","1.10","1.6","2023-08-21T19:05:00","120","2023/08/21","19:05:00","-15.795700311660767","35.00271699973382","0.2","13","300","64","98","316","-27075","-808","3","150","149.82","112.84","36.99","27.89","35.4","11.19","90044","27.94","DUALSPOT-UV-BLUE-GREEN-RED-IR","486341","547873","908101","42.882532","21.779374","0.015817","611193","744732","835725","32.456452","15.048420","0.018311","623844","743588","830584","28.665158","12.870490","0.019546","670845","769104","888854","23.860716","10.207381","0.021089","634458","819014","963814","16.135326","6.530624","0.024882","5767","11750","17924","5920","10572","14593","6050","10298","13760","6379","10077","12841","6605","9243","11036","DualSpot on"
"MA200-0420","52789","82","1","1.10","1.6","2023-08-21T19:10:00","120","2023/08/21","19:10:00","-15.79568737745285","35.00276216631755","0.1","13","300","64","98","300","-26737","-1050","3","150","150.60","112.87","37.73","27.85","35.5","11.17","90040","27.88","DUALSPOT-UV-BLUE-GREEN-RED-IR","480502","543019","905967","43.856680","22.436162","0.015404","609457","745085","840244","33.279766","15.538810","0.017868","618286","739413","829464","29.423764","13.299146","0.018949","664880","764681","886894","24.528266","10.559800","0.020562","634439","821159","968602","16.632019","6.764116","0.024443","5069","10225","15625","5407","9635","13339","5579","9432","12610","5933","9371","11970","6147","8645","10358","DualSpot on"
"MA200-0420","52790","82","1","1.10","1.6","2023-08-21T19:15:00","120","2023/08/21","19:15:00","-15.79568600654602","35.00276549952105","0.0","13","300","64","97","468","-27352","-220","3","150","150.28","112.90","37.39","27.79","35.6","11.16","90036","27.75","DUALSPOT-UV-BLUE-GREEN-RED-IR","477391","541036","908463","44.785964","23.075188","0.015395","601879","738083","836322","34.069484","16.018553","0.017952","615217","737980","831338","30.149624","13.719458","0.019194","662774","764495","889695","25.164846","10.901272","0.020756","629148","816283","965035","17.104874","6.991258","0.025281","4834","10039","15570","5185","9512","13351","5337","9333","12669","5657","9163","11842","5851","8486","10309","DualSpot on"
"MA200-0420","52791","82","1","1.10","1.6","2023-08-21T19:20:00","120","2023/08/21","19:20:00","-15.795694649219513","35.00270499964245","0.1","13","300","64","97","404","-27144","-888","3","150","149.82","113.23","36.59","27.71","35.7","11.14","90040","27.69","DUALSPOT-UV-BLUE-GREEN-RED-IR","473338","537830","908479","45.640916","23.673618","0.015509","597667","734935","836442","34.787156","16.461735","0.018213","611048","734974","831212","30.810220","14.106942","0.019492","658685","761788","889375","25.743746","11.219777","0.021544","626452","814568","965030","17.532184","7.200559","0.026620","4434","9606","15178","4698","8978","12823","4843","8791","12126","5129","8733","11516","5271","7990","9885","DualSpot on"
"MA200-0420","52792","82","1","1.10","1.6","2023-08-21T19:25:00","120","2023/08/21","19:25:00","-15.795635044574738","35.00276783318259","0.2","12","300","64","97","354","-27216","-341","3","150","149.95","112.84","37.12","27.65","35.7","11.11","90036","27.63","DUALSPOT-UV-BLUE-GREEN-RED-IR","467502","532913","906743","46.685180","24.398704","0.014982","591090","729234","834293","35.635660","16.979712","0.017411","608944","734855","834770","31.584332","14.555634","0.018543","653117","757721","887819","26.422880","11.583149","0.019958","622527","811579","963849","18.037118","7.442856","0.024314","5435","11474","18085","5574","10345","14688","5695","10036","13746","6038","9822","12775","6251","9119","11134","DualSpot on"
"MA200-0420","52793","82","1","1.10","1.6","2023-08-21T19:30:00","120","2023/08/21","19:30:00","-15.795670211315155","35.00275516626425","0.0","12","300","64","97","437","-26804","-1129","3","150","149.74","113.06","36.68","27.57","35.8","11.06","90036","27.56","DUALSPOT-UV-BLUE-GREEN-RED-IR","462449","528421","904449","47.524400","24.995376","0.015054","590203","730115","839072","36.357132","17.432964","0.017680","603595","730357","832926","32.250400","14.952607","0.018900","652513","759006","892264","27.011276","11.909489","0.020708","622524","813421","968087","18.477452","7.657717","0.025039","4359","9555","15319","4730","9161","13243","4891","8986","12525","5221","8926","11849","5440","8183","10125","DualSpot on"
"MA200-0420","52794","82","1","1.10","1.6","2023-08-21T19:35:00","120","2023/08/21","19:35:00","-15.795616745948792","35.00277449958958","0.1","13","300","64","98","292","-26856","-1220","3","150","149.94","113.31","36.63","27.53","35.9","11.06","90036","27.56","DUALSPOT-UV-BLUE-GREEN-RED-IR","461808","528839","910356","48.311432","25.565506","0.015005","585544","726065","837915","37.015308","17.854252","0.017677","599586","727229","832427","32.856694","15.321976","0.018981","648828","756473","891936","27.545068","12.211351","0.020828","620006","811732","968019","18.876008","7.856519","0.025527","4079","9141","14830","4306","8525","12457","4442","8371","11804","4726","8267","11087","4913","7581","9482","DualSpot on"
"MA200-0420","52795","82","1","1.10","1.6","2023-08-21T19:40:00","120","2023/08/21","19:40:00","-15.795681536197662","35.002720499644056","0.1","13","300","64","98","475","-27162","-391","3","150","149.34","112.77","36.57","27.47","35.9","11.04","90036","27.44","DUALSPOT-UV-BLUE-GREEN-RED-IR","457070","524457","907696","49.053436","26.104302","0.014799","580599","721549","836137","37.648416","18.261122","0.017423","595007","723322","830902","33.436962","15.676111","0.018665","643909","752436","889734","28.057346","12.501005","0.020417","616688","808931","966543","19.259002","8.049083","0.025236","3864","8653","14100","4161","8247","12096","4271","8039","11365","4557","7946","10669","4744","7355","9230","DualSpot on"
"MA200-0420","52796","82","1","1.10","1.6","2023-08-21T19:45:00","120","2023/08/21","19:45:00","-15.795685350894928","35.00274549960159","0.1","14","300","64","97","372","-26875","-1168","3","150","150.46","112.70","37.75","27.40","36.0","11.02","90040","27.44","DUALSPOT-UV-BLUE-GREEN-RED-IR","451465","519083","903295","49.802156","26.652546","0.014425","578823","721004","838986","38.293388","18.676490","0.016791","593355","722955","833556","34.037532","16.043148","0.017901","637791","746957","885927","28.585800","12.801102","0.019497","612242","804645","963313","19.651046","8.247139","0.023756","3901","8529","13857","4242","8156","11882","4424","8071","11323","4704","7974","10627","4859","7328","9114","DualSpot on"
"MA200-0420","52797","82","1","1.10","1.6","2023-08-21T19:50:00","120","2023/08/21","19:50:00","-15.795677483081818","35.00273199961521","0.0","14","300","64","97","272","-27236","-812","3","150","150.21","113.54","36.67","27.34","36.1","11.00","90052","27.31","DUALSPOT-UV-BLUE-GREEN-RED-IR","451829","520396","910187","50.478576","27.158478","0.014662","574807","717435","837983","38.875208","19.059292","0.017245","589841","720153","833110","34.574172","16.378918","0.018521","639220","750135","892128","29.060540","13.076435","0.020344","610074","803156","963282","20.003048","8.429918","0.025607","3499","8103","13464","3798","7738","11526","3924","7601","10911","4195","7532","10262","4331","6962","8879","DualSpot on"
"MA200-0420","52798","82","1","1.10","1.6","2023-08-21T19:55:00","120","2023/08/21","19:55:00","-15.795690953731537","35.00270183291286","0.1","14","300","68","98","483","-27220","-1091","4","150","149.76","115.17","34.59","27.29","36.2","10.98","90052","27.31","DUALSPOT-UV-BLUE-GREEN-RED-IR","757048","685260","907788","0.000000","0.000000","0.000000","852129","866977","836122","0.000000","0.000000","0.000000","836511","846806","831514","0.000000","0.000000","0.000000","856592","853264","890225","0.000000","0.000000","0.000000","747660","873443","962347","0.000000","0.000000","0.000000","","","","","","","","","","","","","","","","Tape advance-DualSpot on"
"MA200-0420","52799","82","1","1.10","1.6","2023-08-21T20:00:00","120","2023/08/21","20:00:00","-15.795642733573914","35.00271449959837","0.4","14","300","68","97","304","-27180","-760","4","150","149.52","115.01","34.52","27.24","36.2","10.94","90052","27.25","DUALSPOT-UV-BLUE-GREEN-RED-IR","741227","679943","907575","0.000000","0.000000","0.000000","840484","862701","836063","0.000000","0.000000","0.000000","826846","843292","831433","0.000000","0.000000","0.000000","849098","850683","890344","0.000000","0.000000","0.000000","743739","871998","962528","0.000000","0.000000","0.000000","","","","","","","","","","","","","","","","Tape advance-DualSpot on"
"MA200-0420","52800","82","1","1.10","1.6","2023-08-21T20:05:00","120","2023/08/21","20:05:00","-15.795652210712433","35.002711666282266","0.3","14","300","64","97","380","-27028","-608","4","150","150.02","115.17","34.85","27.20","36.1","10.87","90056","27.19","DUALSPOT-UV-BLUE-GREEN-RED-IR","726140","674119","906251","1.907110","0.715431","0.000000","834480","863508","840757","1.276407","0.465089","0.000000","817391","839418","830812","1.077474","0.387990","0.000000","840906","847095","889224","0.843112","0.299413","0.000000","743881","875132","967670","0.515386","0.175286","0.000000","9726","12057","9726","8216","9893","8216","7767","9242","7767","7344","8619","7344","6251","7026","6251","DualSpot on"
"MA200-0420","52801","82","1","1.10","1.6","2023-08-21T20:10:00","120","2023/08/21","20:10:00","-15.795701563358307","35.002693332964554","0.1","14","300","64","97","350","-26975","-1083","4","150","150.86","115.14","35.72","27.13","36.1","10.80","90060","27.13","DUALSPOT-UV-BLUE-GREEN-RED-IR","714774","671036","908619","3.753170","1.437831","0.079304","820272","855512","836935","2.537546","0.941437","0.000000","810419","837854","832574","2.148389","0.786286","0.000000","830484","841119","885649","1.688055","0.604632","0.000000","737492","870610","964382","1.037698","0.356082","0.000000","9416","11878","13407","8119","9886","8119","7721","9257","7721","7362","8572","7362","6336","7070","6336","DualSpot on"
"MA200-0420","52802","82","1","1.10","1.6","2023-08-21T20:15:00","120","2023/08/21","20:15:00","-15.79571944475174","35.002731499494985","0.1","13","300","64","98","336","-26988","-1144","4","150","150.08","114.89","35.19","27.07","36.1","10.74","90068","27.06","DUALSPOT-UV-BLUE-GREEN-RED-IR","700981","665079","906996","5.524711","2.151943","0.061729","808933","850055","835508","3.761400","1.412880","0.077638","801163","833650","831691","3.192013","1.181119","0.085133","821797","836696","883689","2.518290","0.910535","0.000000","733030","868272","963573","1.558649","0.538396","0.000000","9056","11918","13744","7897","9930","11154","7541","9314","10355","7250","8720","7250","6334","7236","6334","DualSpot on"
"MA200-0420","52803","82","1","1.10","1.6","2023-08-21T20:20:00","120","2023/08/21","20:20:00","-15.79560112953186","35.00276233302429","0.2","13","300","64","97","320","-26912","-1391","4","150","150.02","114.37","35.66","27.01","36.0","10.66","90068","27.00","DUALSPOT-UV-BLUE-GREEN-RED-IR","689029","660294","906819","7.226913","2.856683","0.048659","805160","852247","841691","4.964743","1.887524","0.060355","793370","830810","832180","4.226049","1.581434","0.065944","821855","841094","891119","3.345758","1.220041","0.071494","729726","867277","964301","2.088377","0.728507","0.000000","8742","11609","13483","7800","9868","11137","7506","9321","10406","7258","8708","9541","6470","7448","6470","DualSpot on"
"MA200-0420","52804","82","1","1.10","1.6","2023-08-21T20:25:00","120","2023/08/21","20:25:00","-15.79561460018158","35.002753999549896","0.0","13","300","64","98","372","-27180","-1528","4","150","150.28","113.93","36.35","26.95","35.9","10.58","90068","26.94","DUALSPOT-UV-BLUE-GREEN-RED-IR","677416","654783","905114","8.740517","3.503406","0.041344","794578","846467","839608","6.045165","2.324539","0.050133","784668","826338","830738","5.160624","1.949807","0.053170","813896","836826","889119","4.097009","1.506593","0.057621","724914","864238","962590","2.569866","0.902167","0.000000","7803","10449","12218","7030","8911","10087","6810","8412","9385","6615","7908","8660","5903","6673","5903","DualSpot on"
"MA200-0420","52805","82","1","1.10","1.6","2023-08-21T20:30:00","120","2023/08/21","20:30:00","-15.795635342597961","35.00277033308521","0.1","13","300","64","98","456","-26928","-1124","4","150","150.08","113.93","36.15","26.87","35.9","10.49","90072","26.88","DUALSPOT-UV-BLUE-GREEN-RED-IR","670576","653212","908440","10.122299","4.111690","0.039007","784225","840287","836927","7.036722","2.736616","0.047808","780044","825675","832960","6.017315","2.298459","0.052154","804877","831013","885339","4.787425","1.776733","0.056499","724205","865797","965877","3.011835","1.064133","0.064189","7123","9883","11771","6451","8450","9722","6242","8007","9098","6079","7497","8334","5419","6259","6717","DualSpot on"
"MA200-0420","52806","82","1","1.10","1.6","2023-08-21T20:35:00","120","2023/08/21","20:35:00","-15.795631647109985","35.00272849970497","0.2","14","300","64","97","288","-26912","-1504","4","150","150.21","113.81","36.41","26.84","35.8","10.42","90080","26.88","DUALSPOT-UV-BLUE-GREEN-RED-IR","662946","650480","909998","11.435263","4.700149","0.035418","777704","837901","837930","7.992058","3.140312","0.043263","774495","823803","833916","6.846070","2.638507","0.046000","806366","835945","892947","5.458073","2.043113","0.051028","721354","864735","966252","3.444973","1.226402","0.060906","6776","9493","11388","6223","8219","9511","6045","7754","8825","5912","7340","8194","5316","6225","6728","DualSpot on"
"MA200-0420","52807","82","1","1.10","1.6","2023-08-21T20:40:00","120","2023/08/21","20:40:00","-15.795652031898499","35.00277349981479","0.2","14","300","64","98","396","-26684","-1236","4","150","150.36","113.44","36.92","26.81","35.7","10.37","90076","26.81","DUALSPOT-UV-BLUE-GREEN-RED-IR","653615","645540","908116","12.651367","5.259166","0.032701","769532","833309","836496","8.879381","3.521988","0.039155","767433","819948","832702","7.618200","2.963372","0.042512","800375","832838","891889","6.085263","2.296465","0.045870","717866","862724","965494","3.852785","1.380691","0.052422","6296","8892","10739","5798","7663","8889","5651","7304","8357","5546","6884","7694","5022","5837","6293","DualSpot on"
"MA200-0420","52808","82","1","1.10","1.6","2023-08-21T20:45:00","120","2023/08/21","20:45:00","-15.795722961425781","35.00271866610274","0.2","14","300","64","98","304","-27032","-532","4","150","150.21","112.99","37.22","26.77","35.7","10.30","90076","26.75","DUALSPOT-UV-BLUE-GREEN-RED-IR","644737","641184","907395","13.942963","5.856937","0.029494","761655","829310","835991","9.846106","3.940767","0.034984","760404","816444","832113","8.464822","3.318946","0.036802","794147","829782","891106","6.780350","2.576317","0.038924","714222","860814","965070","4.314752","1.554529","0.042201","6713","9433","11403","6342","8341","9675","6220","7931","9035","6171","7543","8384","5711","6524","6982","DualSpot on"
"MA200-0420","52809","82","1","1.10","1.6","2023-08-21T20:50:00","120","2023/08/21","20:50:00","-15.795670688152313","35.002774166408926","0.0","14","300","64","97","344","-27056","-1060","4","150","149.89","113.05","36.84","26.70","35.7","10.26","90080","26.69","DUALSPOT-UV-BLUE-GREEN-RED-IR","638832","638974","908961","15.033943","6.376869","0.029627","756323","827235","836897","10.660145","4.300750","0.035124","756319","815349","833538","9.176827","3.626398","0.038097","785165","823174","886175","7.361766","2.816667","0.041179","708819","856311","961393","4.694442","1.701145","0.047903","5668","8289","10220","5337","7243","8532","5228","6928","8039","5159","6545","7404","4691","5559","6052","DualSpot on"
"MA200-0420","52810","82","1","1.10","1.6","2023-08-21T20:55:00","120","2023/08/21","20:55:00","-15.79568737745285","35.00272983289324","0.3","14","300","64","98","454","-27516","-20","4","150","149.89","113.15","36.74","26.64","35.7","10.22","90080","26.63","DUALSPOT-UV-BLUE-GREEN-RED-IR","632107","635742","909124","16.111660","6.899029","0.028717","750709","824714","837387","11.461437","4.660640","0.034249","751231","813040","833767","9.876595","3.931327","0.036698","787121","828040","893486","7.935673","3.054095","0.038861","710712","860565","967599","5.069782","1.847441","0.047314","5594","8348","10411","5249","7262","8642","5134","6891","8053","5088","6484","7357","4633","5563","6096","DualSpot on"
"MA200-0420","52811","82","1","1.10","1.6","2023-08-21T21:00:00","120","2023/08/21","21:00:00","-15.795672357082367","35.002760666422546","0.1","14","300","64","97","470","-26916","-1520","4","150","149.44","112.68","36.76","26.57","35.8","10.18","90088","26.56","DUALSPOT-UV-BLUE-GREEN-RED-IR","624477","631357","907498","17.146302","7.410927","0.027783","743654","820403","835948","12.234226","5.018394","0.033949","745296","809667","832795","10.555198","4.234749","0.036215","782005","825295","892673","8.494675","3.293741","0.039913","707313","858354","966507","5.438587","1.993510","0.046432","5393","8179","10299","5084","7214","8696","5000","6852","8094","4977","6540","7530","4572","5550","6117","DualSpot on"
"MA200-0420","52812","82","1","1.10","1.6","2023-08-21T21:05:00","120","2023/08/21","21:05:00","-15.795596957206726","35.00276433303952","0.4","14","300","64","97","460","-27003","-996","4","150","149.94","112.90","37.05","26.53","35.7","10.13","90084","26.56","DUALSPOT-UV-BLUE-GREEN-RED-IR","607837","622763","905938","19.639828","8.592804","0.022473","731981","817410","841069","14.392740","5.978049","0.026242","729931","802067","832179","12.535689","5.091782","0.027862","767194","817970","891245","10.220182","4.011403","0.029909","698209","853957","966424","6.701370","2.486121","0.034447","12973","18738","23222","14173","19203","22776","14564","19206","22381","15334","19435","22084","15625","18575","20315","DualSpot on"
"MA200-0420","52813","82","1","1.10","1.6","2023-08-21T21:10:00","120","2023/08/21","21:10:00","-15.79565054178238","35.002668999601156","0.1","14","300","64","98","328","-26875","-568","4","150","150.02","112.80","37.22","26.49","35.8","10.10","90084","26.50","DUALSPOT-UV-BLUE-GREEN-RED-IR","592043","614291","904836","22.177044","9.855942","0.021553","714459","807149","839037","16.599661","7.009297","0.025221","714341","793596","831033","14.573805","6.018375","0.026865","752338","810183","889604","12.011654","4.793678","0.029122","688101","848233","965131","8.039879","3.030552","0.033813","13212","19932","25309","14504","20539","24950","15001","20668","24654","15934","21086","24507","16577","20433","22766","DualSpot on"
"MA200-0420","52814","82","1","1.10","1.6","2023-08-21T21:15:00","120","2023/08/21","21:15:00","-15.795646667480469","35.00271883280948","0.1","14","300","64","98","456","-27056","-855","4","150","150.06","112.29","37.78","26.41","35.8","10.06","90084","26.38","DUALSPOT-UV-BLUE-GREEN-RED-IR","581383","609080","906774","24.194970","10.913219","0.020824","698788","796563","835209","18.348184","7.866181","0.024213","704152","789006","832607","16.191694","6.786413","0.025595","742644","806030","890830","13.436274","5.439438","0.027430","678261","841337","961570","9.105843","3.476694","0.031087","10555","16439","21273","11543","16816","20772","11962","16880","20428","12728","17150","20158","13261","16498","18497","DualSpot on"
"MA200-0420","52815","82","1","1.10","1.6","2023-08-21T21:20:00","120","2023/08/21","21:20:00","-15.795664668083191","35.00273899966851","0.3","14","300","64","97","244","-26908","-1176","4","150","150.35","112.81","37.54","26.32","35.9","10.00","90084","26.25","DUALSPOT-UV-BLUE-GREEN-RED-IR","567702","600809","905130","26.406604","12.103901","0.020181","689525","793627","840361","20.304574","8.854365","0.023579","690307","780680","831173","18.014270","7.680275","0.025112","729829","798953","889705","15.058847","6.200205","0.027236","673138","840790","966048","10.332390","4.005289","0.031476","11514","18630","24651","12856","19515","24664","13413","19769","24493","14430","20332","24463","15188","19670","22508","DualSpot on"
"MA200-0420","52816","82","1","1.10","1.6","2023-08-21T21:25:00","120","2023/08/21","21:25:00","-15.79567414522171","35.00275049987249","0.2","14","300","64","97","452","-26896","-824","4","150","149.67","112.94","36.73","26.20","36.0","9.94","90080","26.19","DUALSPOT-UV-BLUE-GREEN-RED-IR","561824","598323","908477","27.823140","12.892250","0.020483","679247","786278","837741","21.503950","9.475868","0.023935","681399","774810","829475","19.118004","8.233536","0.025490","720558","792772","886838","16.024485","6.660476","0.027670","667310","836775","964396","11.043484","4.318915","0.033410","7367","12605","17129","7872","12543","16222","8113","12504","15826","8578","12571","15411","8795","11927","13938","DualSpot on"
"MA200-0420","52817","82","1","1.10","1.6","2023-08-21T21:30:00","120","2023/08/21","21:30:00","-15.795662343502045","35.00275299954228","0.2","13","300","64","97","419","-27219","-592","4","150","150.60","113.47","37.14","26.16","36.0","9.90","90084","26.13","DUALSPOT-UV-BLUE-GREEN-RED-IR","555819","594293","907400","28.784816","13.449295","0.020532","672507","781248","835805","22.277942","9.890765","0.023983","680117","775965","833685","19.817646","8.594980","0.025499","715622","789762","886077","16.626930","6.955105","0.027629","664107","834758","963947","11.477280","4.514581","0.033459","4978","8810","12171","5056","8282","10858","5119","8080","10348","5326","7959","9853","5340","7360","8670","DualSpot on"
"MA200-0420","52818","82","1","1.10","1.6","2023-08-21T21:35:00","120","2023/08/21","21:35:00","-15.795672476291656","35.00269633275457","0.4","13","300","64","97","340","-27056","-1064","4","150","149.82","113.31","36.51","26.12","35.9","9.84","90088","26.13","DUALSPOT-UV-BLUE-GREEN-RED-IR","551588","591707","907579","29.571224","13.909729","0.020516","668474","778791","835977","22.899106","10.223392","0.023780","676049","773427","833380","20.377656","8.883339","0.025252","712566","788284","886507","17.102638","7.188259","0.027677","661626","833211","963589","11.814552","4.663470","0.032109","4076","7406","10364","4063","6753","8922","4103","6556","8453","4212","6406","7997","4158","5696","6699","DualSpot on"
"MA200-0420","52819","82","1","1.10","1.6","2023-08-21T21:40:00","120","2023/08/21","21:40:00","-15.795706629753113","35.002747333142906","0.3","14","300","64","97","448","-27188","-951","4","150","149.87","113.47","36.40","26.09","35.9","9.80","90092","26.13","DUALSPOT-UV-BLUE-GREEN-RED-IR","545634","587523","906034","30.485942","14.445717","0.020045","662932","774970","835240","23.642106","10.625888","0.023508","671278","770444","833106","21.052950","9.236005","0.025083","713062","791188","892296","17.684392","7.474472","0.027164","658899","831706","963672","12.232922","4.851622","0.032687","4734","8649","12174","4854","8197","10926","4940","8043","10469","5143","7888","9898","5150","7221","8582","DualSpot on"
"MA200-0420","52820","82","1","1.10","1.6","2023-08-21T21:45:00","120","2023/08/21","21:45:00","-15.795775771141052","35.00265383301303","0.2","14","300","64","98","328","-27391","-576","4","150","150.08","113.62","36.46","26.05","35.8","9.75","90088","26.06","DUALSPOT-UV-BLUE-GREEN-RED-IR","540824","584309","905513","31.313694","14.938114","0.019807","662944","777315","840803","24.306224","10.988999","0.023137","666487","767121","832110","21.651890","9.551147","0.024654","708243","787851","890858","18.199752","7.731444","0.026959","655586","829202","962380","12.604347","5.018278","0.031602","4278","7933","11266","4332","7383","9901","4376","7176","9387","4550","7071","8933","4566","6385","7589","DualSpot on"
