"Serial number","Datum ID","Session ID","Data format version","Firmware version","App version","Date / time local","Timezone offset (mins)","Date local (yyyy/MM/dd)","Time local (hh:mm:ss)","GPS lat (ddmm.mmmmm)","GPS long (dddmm.mmmmm)","GPS speed (km/h)","GPS sat count","Timebase (s)","Status","Battery remaining (%)","Accel X","Accel Y","Accel Z","Tape position","Flow setpoint (mL/min)","Flow total (mL/min)","Flow1 (mL/min)","Flow2 (mL/min)","Sample temp (C)","Sample RH (%)","Sample dewpoint (C)","Internal pressure (Pa)","Internal temp (C)","Optical config","UV Sen1","UV Sen2","UV Ref","UV ATN1","UV ATN2","UV K","Blue Sen1","Blue Sen2","Blue Ref","Blue ATN1","Blue ATN2","Blue K","Green Sen1","Green Sen2","Green Ref","Green ATN1","Green ATN2","Green K","Red Sen1","Red Sen2","Red Ref","Red ATN1","Red ATN2","Red K","IR Sen1","IR Sen2","IR Ref","IR ATN1","IR ATN2","IR K","UV BC1","UV BC2","UV BCc","Blue BC1","Blue BC2","Blue BCc","Green BC1","Green BC2","Green BCc","Red BC1","Red BC2","Red BCc","IR BC1","IR BC2","IR BCc","Readable status"
"MA200-0420","42779","71","1","1.10","1.6","2023-07-14T08:55:00","120","2023/07/14","08:55:00","-15.795638501644135","35.00273733283393","0.1","13","300","66","12","-328","-27136","-1236","11","150","150.08","117.34","32.74","17.08","68.2","11.17","90988","17.94","DUALSPOT-UV-BLUE-GREEN-RED-IR","816117","709028","903124","0.000000","0.000000","0.000000","910138","902795","831016","0.000000","0.000000","0.000000","901353","891722","839482","0.000000","0.000000","0.000000","905860","883624","887639","0.000000","0.000000","0.000000","794587","907014","966231","0.000000","0.000000","0.000000","","","","","","","","","","","","","","","","Start up-DualSpot on"
"MA200-0420","42780","71","1","1.10","1.6","2023-07-14T09:00:00","120","2023/07/14","09:00:00","-15.79551774263382","35.002849999815226","0.2","13","300","64","13","-308","-27250","-1291","11","150","150.21","117.24","32.98","17.84","66.8","11.59","90988","19.06","DUALSPOT-UV-BLUE-GREEN-RED-IR","815714","711251","907639","0.000000","0.000000","0.000000","912353","907295","836070","0.000000","0.000000","0.000000","901406","893777","842201","0.000000","0.000000","0.000000","906437","885797","890574","0.000000","0.000000","0.000000","793866","907781","967536","0.000000","0.000000","0.000000","","","","","","","","","","","","","","","","DualSpot on"
"MA200-0420","42781","71","1","1.10","1.6","2023-07-14T09:05:00","120","2023/07/14","09:05:00","-15.795696496963501","35.00267949979752","0.0","13","300","64","13","-384","-27136","-1516","11","150","149.69","117.26","32.43","18.59","65.7","12.05","90984","19.94","DUALSPOT-UV-BLUE-GREEN-RED-IR","810669","708325","904869","0.309072","0.106500","0.000000","916090","912182","840949","0.173515","0.051301","0.000000","890886","884260","833593","0.145030","0.042086","0.000000","901105","881306","886454","0.120896","0.040865","0.000000","793359","908038","968046","0.116785","0.021348","0.000000","1548","1928","1548","1096","1172","1096","1026","1077","1026","1034","1264","1034","1391","919","1391","DualSpot on"
"MA200-0420","42782","71","1","1.10","1.6","2023-07-14T09:10:00","120","2023/07/14","09:10:00","-15.795658349990845","35.00265033310279","0.2","13","300","64","13","-383","-27266","-1275","11","150","149.35","116.60","32.75","19.42","65.2","12.72","90984","20.94","DUALSPOT-UV-BLUE-GREEN-RED-IR","810756","709735","907509","0.592096","0.201526","0.000000","910744","907843","837316","0.325811","0.091421","0.000000","890270","884514","834052","0.269615","0.067961","0.000000","899419","880302","885712","0.223463","0.069033","0.000000","790417","905546","965472","0.224321","0.031781","0.000000","1425","1704","1425","968","908","968","887","655","887","882","862","882","1288","444","1288","DualSpot on"
"MA200-0420","42783","71","1","1.10","1.6","2023-07-14T09:15:00","120","2023/07/14","09:15:00","-15.795666575431824","35.00270383292809","0.1","13","300","64","13","-300","-27200","-1245","11","150","150.27","117.01","33.26","20.11","62.9","12.82","90996","21.44","DUALSPOT-UV-BLUE-GREEN-RED-IR","810276","711347","911062","1.039285","0.360017","0.000000","911581","910150","840533","0.617999","0.221723","0.000000","889271","884720","835124","0.505018","0.172430","0.000000","901829","883570","889709","0.412684","0.156227","0.000000","789366","905289","965623","0.372396","0.073708","0.000000","2244","2798","2244","1851","2904","1851","1670","2607","1670","1622","2630","1622","1767","1760","1767","DualSpot on"
"MA200-0420","42784","71","1","1.10","1.6","2023-07-14T09:20:00","120","2023/07/14","09:20:00","-15.795625030994415","35.00272183283232","0.0","13","300","64","13","-275","-27266","-1308","11","150","149.76","117.02","32.73","20.57","61.2","12.83","91004","21.75","DUALSPOT-UV-BLUE-GREEN-RED-IR","805458","709494","910019","1.525644","0.507850","0.000000","908306","908795","840381","0.958264","0.353807","0.000000","884771","881741","833183","0.784737","0.279968","0.000000","897217","880237","887166","0.634062","0.244686","0.000000","789170","906031","966760","0.514034","0.111060","0.000000","2441","2652","2441","2155","2991","2155","1984","2727","1984","1897","2711","1897","1690","1593","1690","DualSpot on"
"MA200-0420","42785","71","1","1.10","1.6","2023-07-14T09:25:00","120","2023/07/14","09:25:00","-15.795700192451477","35.00271766632795","0.0","13","300","64","13","-337","-27250","-1320","11","150","149.63","117.30","32.33","21.03","60.1","12.98","91000","22.19","DUALSPOT-UV-BLUE-GREEN-RED-IR","800028","706063","906401","1.803452","0.593925","0.000000","903048","904615","837172","1.158297","0.434923","0.000000","880289","878133","830318","0.947344","0.343728","0.000000","900259","883862","891300","0.763827","0.298345","0.000000","784722","901546","962153","0.605157","0.130142","0.000000","1391","1563","1391","1264","1860","1264","1150","1637","1150","1109","1665","1109","1085","824","1085","DualSpot on"
"MA200-0420","42786","71","1","1.10","1.6","2023-07-14T09:30:00","120","2023/07/14","09:30:00","-15.795666873455048","35.002726999577135","0.0","14","300","64","14","-283","-27183","-1816","11","150","149.89","117.10","32.79","21.42","58.7","13.00","91012","22.50","DUALSPOT-UV-BLUE-GREEN-RED-IR","797112","705591","907034","2.235756","0.731031","0.000000","900813","904146","837762","1.474589","0.553643","0.000000","882722","882069","834855","1.213735","0.441175","0.000000","896033","880902","889070","0.981032","0.381106","0.000000","785458","903395","964519","0.752891","0.171053","0.000000","2168","2456","2168","2002","2684","2002","1888","2467","1888","1860","2532","1860","1762","1743","1762","DualSpot on"
"MA200-0420","42787","71","1","1.10","1.6","2023-07-14T09:35:00","120","2023/07/14","09:35:00","-15.795670330524445","35.00271449959837","0.1","14","300","64","14","-340","-26916","-1680","11","150","149.47","117.07","32.40","21.62","56.9","12.71","91012","22.56","DUALSPOT-UV-BLUE-GREEN-RED-IR","796047","705921","908088","2.488630","0.802051","0.000000","900326","904517","838707","1.645964","0.628196","0.000000","877049","877055","830590","1.347977","0.498813","0.000000","890520","875996","884509","1.084464","0.427063","0.000000","785253","903504","964789","0.809118","0.184468","0.000000","1268","1287","1268","1085","1706","1085","951","1477","951","886","1423","886","670","578","670","DualSpot on"
"MA200-0420","42788","71","1","1.10","1.6","2023-07-14T09:40:00","120","2023/07/14","09:40:00","-15.79563820362091","35.002762666437775","0.1","12","300","64","15","-216","-26775","-1995","11","150","150.15","117.22","32.93","21.84","56.4","12.77","91020","22.94","DUALSPOT-UV-BLUE-GREEN-RED-IR","790898","702307","903822","2.668439","0.843757","0.000000","895011","899899","834717","1.762122","0.662082","0.000000","878383","878958","832573","1.437479","0.522470","0.000000","890646","876548","885249","1.151186","0.446660","0.000000","785059","903633","964949","0.845783","0.185805","0.000000","900","743","900","734","762","734","633","596","633","571","597","571","436","56","436","DualSpot on"
"MA200-0420","42789","71","1","1.10","1.6","2023-07-14T09:45:00","120","2023/07/14","09:45:00","-15.7957102060318","35.002758332993835","0.3","12","300","64","16","-348","-27147","-1368","11","150","150.15","117.10","33.05","22.03","55.6","12.74","91024","23.00","DUALSPOT-UV-BLUE-GREEN-RED-IR","794001","706314","909455","2.896411","0.894653","0.000000","899534","905405","840181","1.909488","0.705045","0.000000","876064","877382","831333","1.551187","0.552946","0.000000","896907","883238","892181","1.234442","0.467079","0.000000","783395","902092","963286","0.890981","0.186544","0.000000","1143","904","1143","932","963","932","806","765","806","713","619","713","539","31","539","DualSpot on"
"MA200-0420","42790","71","1","1.10","1.6","2023-07-14T09:50:00","120","2023/07/14","09:50:00","-15.79566216468811","35.0026803330984","0.1","12","300","64","16","-176","-26646","-1500","11","150","150.21","116.98","33.23","22.20","54.7","12.63","91028","23.19","DUALSPOT-UV-BLUE-GREEN-RED-IR","791403","704985","908156","3.085049","0.943464","-0.047727","896742","903342","838629","2.032304","0.747859","0.000000","879397","881294","835308","1.647478","0.584423","0.000000","894241","881009","890146","1.305103","0.489105","0.000000","786104","905551","966987","0.929908","0.189204","0.000000","947","862","825","778","955","778","683","786","683","606","665","606","464","111","464","DualSpot on"
"MA200-0420","42791","71","1","1.10","1.6","2023-07-14T09:55:00","120","2023/07/14","09:55:00","-15.795607924461365","35.0027394995559","0.1","11","300","64","17","-564","-26916","-1164","11","150","149.95","117.10","32.85","22.39","53.9","12.61","91028","23.44","DUALSPOT-UV-BLUE-GREEN-RED-IR","790816","705161","908662","3.215308","0.973409","-0.108661","897859","905003","840374","2.119881","0.775509","0.000000","873637","875897","830329","1.710552","0.601047","0.000000","894275","881364","890575","1.349443","0.500716","0.000000","785745","905358","966766","0.951538","0.185346","0.000000","653","535","484","554","623","554","447","420","447","379","354","379","258","-164","258","DualSpot on"
"MA200-0420","42792","71","1","1.10","1.6","2023-07-14T10:00:00","120","2023/07/14","10:00:00","-15.795664966106415","35.002657833043486","0.2","12","300","64","18","-196","-27140","-1092","11","150","150.02","116.94","33.07","22.47","53.2","12.46","91016","23.50","DUALSPOT-UV-BLUE-GREEN-RED-IR","790353","705402","909143","3.327124","0.992265","-0.407199","896800","904425","840110","2.205330","0.804483","0.000000","872995","875659","830246","1.771974","0.617939","0.000000","894763","882128","891496","1.393610","0.512557","0.000000","785465","905218","966596","0.967952","0.182788","0.000000","561","334","238","541","649","541","436","424","436","378","359","378","196","-108","196","DualSpot on"
"MA200-0420","42793","71","1","1.10","1.6","2023-07-14T10:05:00","120","2023/07/14","10:05:00","-15.795711815357208","35.00278199953027","0.0","12","300","64","19","-392","-27168","-1360","11","150","149.38","116.86","32.51","22.71","52.9","12.62","91016","23.88","DUALSPOT-UV-BLUE-GREEN-RED-IR","784310","702003","905778","3.706998","1.099161","0.004314","890313","899830","836509","2.492029","0.884276","0.000000","872833","877126","832237","2.015811","0.684595","0.000000","894528","883210","893080","1.590788","0.567457","0.000000","785014","905721","967430","1.103839","0.212081","0.000000","1909","1931","1940","1818","1819","1818","1732","1702","1732","1692","1694","1692","1624","1258","1624","DualSpot on"
"MA200-0420","42794","71","1","1.10","1.6","2023-07-14T10:10:00","120","2023/07/14","10:10:00","-15.79568499326706","35.00272783287801","0.1","12","300","64","20","-308","-27528","-1344","11","150","149.95","116.74","33.21","22.93","52.0","12.55","91016","24.06","DUALSPOT-UV-BLUE-GREEN-RED-IR","786763","705438","910713","3.955125","1.162904","-0.040183","893970","904610","841427","2.677137","0.940376","0.000000","869862","875024","830545","2.167970","0.726425","0.000000","891827","881254","891353","1.710635","0.600211","0.000000","782265","903080","964755","1.184845","0.228152","0.000000","1248","1127","1077","1175","1252","1175","1082","1045","1082","1029","989","1029","969","676","969","DualSpot on"
"MA200-0420","42795","71","1","1.10","1.6","2023-07-14T10:15:00","120","2023/07/14","10:15:00","-15.795779943466187","35.00275033316575","0.1","11","300","64","20","-304","-27156","-1468","11","150","150.62","117.03","33.60","23.09","51.6","12.58","91012","24.06","DUALSPOT-UV-BLUE-GREEN-RED-IR","781645","702030","906810","4.173983","1.211177","-0.116136","888840","900469","837897","2.833706","0.979680","0.000000","871108","877143","832808","2.294540","0.753515","0.000000","887985","878133","888373","1.807352","0.618407","0.000000","783799","905344","967212","1.246370","0.232635","0.000000","1098","843","739","991","867","991","897","669","897","829","543","829","734","186","734","DualSpot on"
"MA200-0420","42796","71","1","1.10","1.6","2023-07-14T10:20:00","120","2023/07/14","10:20:00","-15.795782625675201","35.00269249943085","0.0","10","300","64","21","-316","-27196","-1600","11","150","150.15","116.94","33.20","23.11","51.1","12.46","91016","24.00","DUALSPOT-UV-BLUE-GREEN-RED-IR","780065","701624","906607","4.355725","1.248020","-0.153644","887531","900060","837849","2.972770","1.018995","0.000000","869779","876551","832456","2.408146","0.782620","0.000000","884927","875692","886085","1.894377","0.639272","0.000000","782543","904284","966135","1.293945","0.238901","0.000000","912","651","546","881","877","881","806","727","806","746","630","746","568","263","568","DualSpot on"
"MA200-0420","42797","71","1","1.10","1.6","2023-07-14T10:25:00","120","2023/07/14","10:25:00","-15.795658230781555","35.00276816636324","0.1","10","300","64","22","-244","-27163","-1676","11","150","150.42","116.70","33.72","23.18","51.1","12.52","91012","24.19","DUALSPOT-UV-BLUE-GREEN-RED-IR","779233","702624","908710","4.689225","1.335763","-0.030461","887516","901762","840084","3.237820","1.093954","-0.010198","869108","877378","833757","2.637684","0.844448","0.000000","886389","878386","889260","2.084236","0.689462","0.000000","782907","905575","967815","1.417470","0.269981","0.000000","1678","1528","1468","1683","1648","1629","1632","1522","1632","1632","1493","1632","1478","1287","1478","DualSpot on"
"MA200-0420","42798","71","1","1.10","1.6","2023-07-14T10:30:00","120","2023/07/14","10:30:00","-15.795673608779907","35.00276766647585","0.2","9","300","64","22","-332","-27191","-1488","11","150","150.15","116.86","33.28","23.32","50.9","12.59","91004","24.31","DUALSPOT-UV-BLUE-GREEN-RED-IR","774611","700677","907347","5.137066","1.463317","0.000013","882626","899070","838443","3.598779","1.200574","0.014666","864714","874929","832156","2.952593","0.934070","0.000000","882735","876403","887908","2.344154","0.762946","0.000000","779853","903243","965745","1.597774","0.315284","0.000000","2250","2250","2251","2289","2374","2417","2237","2235","2237","2231","2215","2231","2155","1901","2155","DualSpot on"
"MA200-0420","42799","71","1","1.10","1.6","2023-07-14T10:35:00","120","2023/07/14","10:35:00","-15.795728504657745","35.002722332952544","0.2","9","300","64","23","-300","-27224","-1056","11","150","149.96","116.82","33.14","23.50","50.6","12.64","91000","24.38","DUALSPOT-UV-BLUE-GREEN-RED-IR","769589","697388","903689","5.385761","1.531446","-0.009333","877716","895192","835261","3.776485","1.252293","0.009916","866525","877694","835107","3.102106","0.972878","-0.045519","884495","878903","890725","2.464870","0.793771","0.000000","775689","899027","961393","1.682043","0.330975","0.000000","1250","1207","1190","1127","1157","1171","1062","972","931","1036","933","1036","1007","661","1007","DualSpot on"
"MA200-0420","42800","71","1","1.10","1.6","2023-07-14T10:40:00","120","2023/07/14","10:40:00","-15.79568862915039","35.00266599957831","0.1","9","300","64","24","-341","-27262","-1312","11","150","149.82","116.78","33.04","23.47","49.3","12.24","91008","24.31","DUALSPOT-UV-BLUE-GREEN-RED-IR","772154","700694","908356","5.566847","1.572982","-0.064325","881930","900310","840373","3.908802","1.293158","0.030849","863648","875442","833228","3.206146","1.003485","0.017133","881949","876916","888867","2.545429","0.815410","0.000000","778780","902934","965629","1.725420","0.338777","0.000000","910","738","670","839","916","955","739","769","782","692","657","692","518","329","518","DualSpot on"
"MA200-0420","42801","71","1","1.10","1.6","2023-07-14T10:45:00","120","2023/07/14","10:45:00","-15.795532822608948","35.00279149948619","0.1","9","300","64","25","-272","-27228","-1304","11","150","150.02","116.71","33.31","23.57","49.6","12.42","90992","24.56","DUALSPOT-UV-BLUE-GREEN-RED-IR","768725","698509","905936","5.744676","1.619163","-0.024996","877899","897002","837537","4.027725","1.321369","-0.083360","859957","872352","830455","3.303879","1.024275","-0.177141","878350","873822","885899","2.621051","0.832944","0.000000","781068","905953","968977","1.774429","0.346146","0.000000","894","814","782","755","627","565","695","518","438","650","528","650","586","309","586","DualSpot on"
"MA200-0420","42802","71","1","1.10","1.6","2023-07-14T10:50:00","120","2023/07/14","10:50:00","-15.795758605003357","35.002681999700144","0.1","10","300","64","26","-324","-27160","-1228","11","150","149.87","116.54","33.34","23.73","49.1","12.41","90992","24.75","DUALSPOT-UV-BLUE-GREEN-RED-IR","765001","696358","903775","5.995807","1.688873","-0.007187","873696","893869","835034","4.208256","1.371341","-0.011990","862258","875695","833977","3.456992","1.064771","-0.035412","882454","878739","891151","2.741826","0.863863","0.000000","773461","897735","960356","1.857770","0.365208","0.000000","1265","1228","1213","1148","1111","1093","1090","1008","971","1039","930","1039","999","798","999","DualSpot on"
"MA200-0420","42803","71","1","1.10","1.6","2023-07-14T10:55:00","120","2023/07/14","10:55:00","-15.795647978782654","35.00274633290246","0.1","13","300","64","27","-168","-27296","-1224","11","150","150.08","116.63","33.46","23.79","48.5","12.29","90984","24.81","DUALSPOT-UV-BLUE-GREEN-RED-IR","765748","698127","906468","6.190361","1.732942","-0.066669","875708","896924","838171","4.353655","1.407247","-0.059442","862224","876447","834917","3.575254","1.090925","-0.137517","882823","879760","892391","2.836668","0.882542","0.000000","778364","903902","967009","1.918796","0.373970","0.000000","979","773","693","924","795","734","841","649","564","815","560","815","730","365","730","DualSpot on"
"MA200-0420","42804","71","1","1.10","1.6","2023-07-14T11:00:00","120","2023/07/14","11:00:00","-15.795635879039764","35.00271449959837","0.2","13","300","64","27","-316","-27216","-1176","11","150","150.08","116.74","33.34","23.86","48.1","12.22","90984","24.81","DUALSPOT-UV-BLUE-GREEN-RED-IR","764155","698273","907462","6.510839","1.822435","-0.004858","874276","897048","838892","4.602707","1.478081","-0.001282","856785","872272","831436","3.789502","1.150417","-0.010883","876120","874179","887111","3.010449","0.928258","-0.042681","778551","904890","968377","2.037494","0.402542","0.000000","1612","1576","1562","1581","1575","1572","1523","1481","1463","1493","1375","1323","1420","1197","1420","DualSpot on"
"MA200-0420","42805","71","1","1.10","1.6","2023-07-14T11:05:00","120","2023/07/14","11:05:00","-15.795539677143097","35.00274899951182","0.1","13","300","64","28","-375","-27000","-1837","11","150","149.89","116.78","33.10","23.98","48.1","12.33","90972","25.00","DUALSPOT-UV-BLUE-GREEN-RED-IR","760946","696275","905322","6.697220","1.872968","-0.009584","871347","894961","837215","4.739256","1.512819","-0.037390","859054","875339","834559","3.901428","1.176428","-0.089046","880727","879389","892605","3.101415","0.951365","-0.056773","776244","902683","966065","2.096790","0.413271","0.000000","937","896","880","866","777","736","795","652","590","781","700","664","709","452","709","DualSpot on"
"MA200-0420","42806","71","1","1.10","1.6","2023-07-14T11:10:00","120","2023/07/14","11:10:00","-15.795702338218689","35.002769666258246","0.0","13","300","64","28","-252","-27047","-1292","11","150","150.15","116.86","33.28","24.28","47.9","12.54","90968","25.44","DUALSPOT-UV-BLUE-GREEN-RED-IR","759585","695614","904844","6.823412","1.914165","0.024759","869247","893308","835828","4.817129","1.533341","-0.025555","858071","874716","834128","3.964501","1.191514","-0.074943","878538","877505","890804","3.149401","0.964434","-0.021389","773654","900012","963309","2.142393","0.420582","0.000000","634","727","763","493","457","439","448","376","345","411","393","385","545","306","545","DualSpot on"
"MA200-0420","42807","71","1","1.10","1.6","2023-07-14T11:15:00","120","2023/07/14","11:15:00","-15.795563340187073","35.00278099975549","0.2","12","300","64","29","-184","-27240","-1336","11","150","150.60","117.06","33.54","24.41","46.8","12.31","90964","25.44","DUALSPOT-UV-BLUE-GREEN-RED-IR","759329","696023","905653","6.945003","1.939931","-0.081480","870107","894712","837350","4.898763","1.555853","-0.011883","857185","874279","833786","4.025859","1.204043","-0.172588","878155","877451","890816","3.195560","0.972845","-0.343664","777524","904781","968413","2.174606","0.422050","0.000000","610","451","389","516","497","488","435","310","256","395","251","188","384","61","384","DualSpot on"
"MA200-0420","42808","71","1","1.10","1.6","2023-07-14T11:20:00","120","2023/07/14","11:20:00","-15.795575320720673","35.00281016621739","0.0","11","300","64","29","-348","-27028","-1508","11","150","149.60","116.78","32.82","24.59","46.5","12.37","90964","25.63","DUALSPOT-UV-BLUE-GREEN-RED-IR","763341","700275","911376","7.047533","1.963979","-0.042191","867914","892913","835782","4.963714","1.570468","-0.082866","856281","873695","833324","4.074555","1.213288","-0.210715","877513","877074","890482","3.232207","0.979852","-0.262012","776402","903693","967276","2.200712","0.422050","0.000000","515","430","397","412","330","292","346","233","186","314","214","170","312","0","312","DualSpot on"
"MA200-0420","42809","71","1","1.10","1.6","2023-07-14T11:25:00","120","2023/07/14","11:25:00","-15.795607328414917","35.002773666288704","0.0","11","300","64","29","-333","-27229","-1341","11","150","150.15","117.22","32.93","24.73","46.6","12.52","90964","25.75","DUALSPOT-UV-BLUE-GREEN-RED-IR","757787","695970","906072","7.196773","2.000055","-0.033267","868957","894676","837642","5.062670","1.589828","-0.156790","856653","874626","834342","4.153943","1.227575","-0.250653","870828","870836","884258","3.293557","0.990576","-0.356762","771243","898071","961262","2.241918","0.425749","0.000000","747","643","603","625","435","348","562","360","275","525","326","241","491","156","491","DualSpot on"
"MA200-0420","42810","71","1","1.10","1.6","2023-07-14T11:30:00","120","2023/07/14","11:30:00","-15.795579016208649","35.002771666506305","0.0","11","300","64","30","-248","-27224","-1080","11","150","149.76","116.43","33.33","25.03","46.3","12.70","90948","26.25","DUALSPOT-UV-BLUE-GREEN-RED-IR","757590","696551","907264","7.347543","2.046981","0.014698","868978","895344","838449","5.158341","1.616274","-0.010189","851243","869610","829710","4.229844","1.244223","-0.117049","878677","879042","892747","3.354389","1.006882","-0.029774","775492","903392","967060","2.294426","0.434772","0.000000","760","827","852","609","588","578","541","414","362","524","490","476","630","378","630","DualSpot on"
"MA200-0420","42811","71","1","1.10","1.6","2023-07-14T11:35:00","120","2023/07/14","11:35:00","-15.795597791671753","35.00269633275457","0.3","11","300","64","30","-244","-27072","-2816","11","150","149.87","116.74","33.13","25.33","45.9","12.84","90948","26.56","DUALSPOT-UV-BLUE-GREEN-RED-IR","759907","699237","911066","7.464914","2.078014","-0.014014","871362","898332","841338","5.227561","1.627528","-0.312418","852765","871580","831619","4.283238","1.251143","-0.770799","873492","874208","887861","3.395553","1.010974","-3.642575","775768","904049","967764","2.331892","0.434414","0.000000","590","550","534","439","251","166","379","173","88","353","123","26","448","-15","448","DualSpot on"
"MA200-0420","42812","71","1","1.10","1.6","2023-07-14T11:40:00","120","2023/07/14","11:40:00","-15.795588195323944","35.00277933315374","0.1","11","300","64","31","-287","-27054","-1208","11","150","149.69","116.94","32.75","25.63","45.1","12.83","90948","26.81","DUALSPOT-UV-BLUE-GREEN-RED-IR","755296","695749","906905","7.614818","2.118265","-0.007944","867242","894714","838149","5.322642","1.652097","-0.023709","853614","872979","833088","4.357660","1.266604","-0.131285","874754","875869","889645","3.452505","1.021350","-0.285279","775455","904093","967875","2.383417","0.439825","0.000000","752","721","709","602","556","535","528","391","336","488","317","246","615","230","615","DualSpot on"
"MA200-0420","42813","71","1","1.10","1.6","2023-07-14T11:45:00","120","2023/07/14","11:45:00","-15.795661985874176","35.00273299938999","0.3","11","300","64","31","-324","-27068","-1280","11","150","150.28","116.54","33.75","25.86","44.4","12.81","90932","27.00","DUALSPOT-UV-BLUE-GREEN-RED-IR","752112","693699","904637","7.788904","2.164096","-0.018480","863637","891787","835660","5.441272","1.681673","-0.046317","850955","870929","831294","4.455823","1.288425","-0.108980","871671","873299","887205","3.528975","1.039780","-0.088402","772303","900848","964473","2.440599","0.447789","0.000000","877","797","767","754","649","602","699","536","470","658","547","501","685","329","685","DualSpot on"
"MA200-0420","42814","71","1","1.10","1.6","2023-07-14T11:50:00","120","2023/07/14","11:50:00","-15.795603156089783","35.0027721663937","0.1","11","300","64","32","-300","-27068","-1536","11","150","149.44","116.23","33.21","26.10","44.2","12.96","90936","27.38","DUALSPOT-UV-BLUE-GREEN-RED-IR","753338","695770","907772","7.971197","2.214008","-0.007670","865774","894840","838768","5.568004","1.711350","-0.063206","851782","872482","832953","4.558521","1.309567","-0.141466","874008","876208","890313","3.611124","1.057051","-0.165027","772689","901809","965581","2.504980","0.458688","0.000000","921","882","868","808","662","597","733","528","445","709","521","444","773","458","773","DualSpot on"
"MA200-0420","42815","71","1","1.10","1.6","2023-07-14T11:55:00","120","2023/07/14","11:55:00","-15.795659720897675","35.00276849954389","0.1","11","300","64","32","-275","-27137","-1554","11","150","149.69","116.78","32.91","26.38","44.0","13.14","90916","27.63","DUALSPOT-UV-BLUE-GREEN-RED-IR","754304","697483","910375","8.128410","2.254394","-0.017127","867220","897103","841066","5.672414","1.733565","-0.096059","851613","872959","833543","4.645288","1.323991","-0.289412","874739","877409","891643","3.678831","1.069322","-0.275149","772090","901547","965398","2.561317","0.463642","0.000000","790","720","694","662","500","429","616","363","263","581","374","289","673","210","673","DualSpot on"
"MA200-0420","42816","71","1","1.10","1.6","2023-07-14T12:00:00","120","2023/07/14","12:00:00","-15.79561299085617","35.00279733305797","0.3","11","300","64","32","-280","-27184","-704","11","150","149.95","116.74","33.21","26.64","43.5","13.19","90904","27.88","DUALSPOT-UV-BLUE-GREEN-RED-IR","753104","697381","910778","8.331760","2.311748","-0.001413","859907","890392","835064","5.805231","1.766782","-0.036165","851383","873413","834165","4.751039","1.346206","-0.120896","867629","870874","885182","3.764279","1.088306","-0.118197","771058","900880","964760","2.627878","0.473229","0.000000","1023","1014","1011","843","741","697","752","555","477","734","573","508","796","403","796","DualSpot on"
"MA200-0420","42817","71","1","1.10","1.6","2023-07-14T12:05:00","120","2023/07/14","12:05:00","-15.795686662197113","35.0027679996565","0.1","11","300","64","33","-308","-27224","-1016","11","150","150.01","116.70","33.31","26.85","42.6","13.07","90892","28.06","DUALSPOT-UV-BLUE-GREEN-RED-IR","750072","696406","910472","8.691790","2.416683","0.003279","864144","896414","841334","6.056929","1.838183","-0.001461","848415","871757","833026","4.961652","1.403117","-0.016170","871645","876038","890798","3.933661","1.131279","-0.046975","773282","904327","968709","2.752046","0.501075","0.000000","1812","1850","1865","1598","1589","1584","1498","1418","1387","1456","1294","1229","1486","1167","1486","DualSpot on"
"MA200-0420","42818","71","1","1.10","1.6","2023-07-14T12:10:00","120","2023/07/14","12:10:00","-15.795634686946869","35.002751499647275","0.0","12","300","64","33","-196","-26988","-2256","11","150","149.44","116.47","32.97","26.95","41.4","12.74","90892","28.13","DUALSPOT-UV-BLUE-GREEN-RED-IR","746078","695346","910533","9.227407","2.575868","0.007018","861807","895960","841601","6.356299","1.923245","0.000844","846512","871337","833195","5.200285","1.465797","-0.021459","870388","875978","891155","4.114401","1.177036","-0.042215","771967","903668","968243","2.869003","0.526707","0.000000","2701","2835","2888","1905","1912","1915","1701","1578","1530","1556","1392","1326","1402","1086","1402","DualSpot on"
"MA200-0420","42819","71","1","1.10","1.6","2023-07-14T12:15:00","120","2023/07/14","12:15:00","-15.795735776424408","35.00271966611035","0.2","12","300","64","33","-232","-27091","-1328","11","150","149.74","116.70","33.04","26.92","40.7","12.44","90884","28.00","DUALSPOT-UV-BLUE-GREEN-RED-IR","738618","690787","905863","9.727493","2.719911","0.002440","854560","890328","837027","6.658394","2.007156","-0.004147","841265","867425","829986","5.441451","1.531541","-0.009974","864826","871547","887022","4.294452","1.219695","-0.068652","768514","900365","964916","2.974599","0.547273","0.000000","2516","2561","2578","1919","1882","1867","1715","1652","1627","1547","1295","1195","1264","869","1264","DualSpot on"
"MA200-0420","42820","71","1","1.10","1.6","2023-07-14T12:20:00","120","2023/07/14","12:20:00","-15.795650064945221","35.00278116646223","0.1","12","300","64","34","-220","-27179","-1333","11","150","150.02","116.47","33.55","26.97","40.4","12.36","90880","28.00","DUALSPOT-UV-BLUE-GREEN-RED-IR","738741","692292","908636","10.023380","2.807548","0.003768","855733","892731","839738","6.848640","2.061432","-0.002022","841650","868811","831612","5.593151","1.570540","-0.031419","865833","873287","889040","4.410082","1.250237","-0.029715","768913","901346","966115","3.047214","0.561889","-0.192164","1492","1534","1550","1210","1199","1194","1081","965","919","996","913","880","870","608","549","DualSpot on"
"MA200-0420","42821","71","1","1.10","1.6","2023-07-14T12:25:00","120","2023/07/14","12:25:00","-15.795554459095001","35.00278883310966","0.1","12","300","64","34","-268","-27088","-1404","11","150","150.41","116.43","33.98","26.98","40.3","12.36","90876","28.00","DUALSPOT-UV-BLUE-GREEN-RED-IR","736445","692168","909610","10.437210","2.932499","0.004400","854901","893370","840829","7.072485","2.121687","-0.017640","840730","868966","832152","5.763429","1.614159","-0.035488","866023","874316","890360","4.532204","1.278129","-0.095817","769410","902397","967396","3.116048","0.578029","-0.102076","2087","2159","2188","1425","1314","1267","1214","1065","1008","1052","823","733","825","663","626","DualSpot on"
"MA200-0420","42822","71","1","1.10","1.6","2023-07-14T12:30:00","120","2023/07/14","12:30:00","-15.795570194721222","35.00284283305518","0.2","12","300","64","34","-280","-27008","-1260","11","150","150.56","116.74","33.81","26.91","39.5","11.98","90872","27.88","DUALSPOT-UV-BLUE-GREEN-RED-IR","729762","687552","904404","10.773373","3.029977","0.000150","848297","887749","836054","7.277275","2.180856","-0.000481","841429","870674","834133","5.924660","1.658928","-0.010274","867674","876773","893119","4.652403","1.308773","-0.042988","766171","899091","964019","3.187820","0.596804","-0.042423","1691","1693","1694","1300","1297","1295","1146","1099","1080","1032","909","860","858","775","756","DualSpot on"
"MA200-0420","42823","71","1","1.10","1.6","2023-07-14T12:35:00","120","2023/07/14","12:35:00","-15.795649468898773","35.002756332745776","0.1","12","300","64","34","-295","-27229","-862","11","150","150.41","116.15","34.25","27.00","40.2","12.33","90872","28.19","DUALSPOT-UV-BLUE-GREEN-RED-IR","730516","689881","908443","11.119738","3.134863","0.003236","849913","890715","839280","7.472230","2.230358","-0.033077","837493","867615","831514","6.076038","1.693874","-0.070931","863154","872953","889478","4.763582","1.334908","-0.082412","767451","901028","966265","3.253656","0.612220","-0.104489","1751","1798","1816","1244","1071","997","1082","846","756","960","765","689","791","628","590","DualSpot on"
"MA200-0420","42824","71","1","1.10","1.6","2023-07-14T12:40:00","120","2023/07/14","12:40:00","-15.795656859874725","35.00269533297978","0.0","12","300","64","35","-208","-27216","-1148","11","150","149.38","116.59","32.79","27.09","40.4","12.46","90868","28.31","DUALSPOT-UV-BLUE-GREEN-RED-IR","726525","687532","906063","11.406574","3.217538","0.002932","846336","888077","837081","7.633436","2.268373","-0.039089","834659","865558","829759","6.203211","1.721745","-0.070935","860046","870447","887069","4.856526","1.352679","-0.164276","765469","899113","964297","3.310661","0.623304","-0.185316","1445","1480","1495","1025","859","789","905","705","628","799","543","444","683","472","423","DualSpot on"
"MA200-0420","42825","71","1","1.10","1.6","2023-07-14T12:45:00","120","2023/07/14","12:45:00","-15.795656025409698","35.00273433304392","0.1","11","300","64","36","-292","-27136","-1096","11","150","150.15","116.23","33.92","27.34","40.1","12.58","90860","28.44","DUALSPOT-UV-BLUE-GREEN-RED-IR","727779","689635","909413","11.605673","3.283874","0.014230","848860","891449","840540","7.751108","2.302890","0.000965","835580","867138","831480","6.299019","1.747179","-0.022651","861433","872308","889132","4.929561","1.372702","-0.018547","765455","899532","964898","3.373903","0.637893","-0.103210","1006","1148","1205","750","754","756","684","622","598","630","592","577","760","600","563","DualSpot on"
"MA200-0420","42826","71","1","1.10","1.6","2023-07-14T12:50:00","120","2023/07/14","12:50:00","-15.795656979084015","35.00269633275457","0.2","11","300","64","36","-275","-27116","-1187","11","150","150.15","116.35","33.80","27.17","38.9","12.00","90848","28.00","DUALSPOT-UV-BLUE-GREEN-RED-IR","723853","688961","910437","12.249088","3.486950","0.008813","846853","891637","841717","8.118737","2.418607","0.013108","834569","867852","832942","6.591881","1.838952","0.014947","861808","874056","891487","5.147248","1.436987","0.004386","766331","901405","967232","3.497200","0.669623","-0.046950","3248","3529","3641","2342","2538","2621","2089","2254","2318","1877","1908","1920","1480","1311","1271","DualSpot on"
"MA200-0420","42827","71","1","1.10","1.6","2023-07-14T12:55:00","120","2023/07/14","12:55:00","-15.795633912086487","35.00275899958797","0.0","11","300","64","36","-295","-27104","-1287","11","150","150.15","116.74","33.40","27.02","38.3","11.62","90836","27.81","DUALSPOT-UV-BLUE-GREEN-RED-IR","722493","689008","911212","12.530874","3.569465","0.002538","845747","891625","842213","8.316279","2.482366","0.018568","833554","867743","833253","6.755358","1.890206","0.017382","861263","874213","892041","5.274757","1.477531","0.025400","766753","902344","968474","3.574085","0.695272","0.047808","1417","1451","1464","1254","1415","1483","1162","1273","1317","1095","1217","1265","919","1072","1109","DualSpot on"
"MA200-0420","42828","71","1","1.10","1.6","2023-07-14T13:00:00","120","2023/07/14","13:00:00","-15.795589029788971","35.00285016652197","0.2","11","300","64","36","-304","-27083","-1041","11","150","149.76","116.51","33.25","27.05","39.1","11.95","90832","28.06","DUALSPOT-UV-BLUE-GREEN-RED-IR","717916","685834","907643","12.772560","3.637106","-0.002169","840984","887741","838955","8.488691","2.526068","-0.022294","830167","865134","831076","6.901077","1.927131","-0.026673","857552","871212","889225","5.390252","1.506278","-0.040000","764342","900005","966118","3.645567","0.713763","-0.036114","1218","1194","1185","1097","974","922","1038","922","876","994","867","818","857","776","757","DualSpot on"
"MA200-0420","42829","71","1","1.10","1.6","2023-07-14T13:05:00","120","2023/07/14","13:05:00","-15.79564243555069","35.00277266628109","0.0","11","300","64","38","-292","-27103","-608","11","150","149.77","115.96","33.81","26.85","38.8","11.64","90824","27.50","DUALSPOT-UV-BLUE-GREEN-RED-IR","718054","687132","909916","12.998455","3.697469","-0.010156","841539","889310","840777","8.640421","2.568900","-0.005478","831359","867188","833302","7.025277","1.959592","-0.023866","859560","873876","892132","5.485204","1.529386","-0.054208","766262","902624","969062","3.699571","0.727214","-0.059873","1144","1048","1010","969","939","926","889","797","761","821","685","633","650","555","532","DualSpot on"
"MA200-0420","42830","71","1","1.10","1.6","2023-07-14T13:10:00","120","2023/07/14","13:10:00","-15.795710802078247","35.00289366650395","0.1","10","300","64","38","-262","-27166","-587","11","150","149.90","116.14","33.76","26.73","39.0","11.63","90820","27.56","DUALSPOT-UV-BLUE-GREEN-RED-IR","715511","685561","908282","13.177006","3.747503","-0.004002","839142","887497","839345","8.755459","2.601188","-0.005858","829084","865375","831798","7.118112","1.984477","-0.016964","856893","871602","889970","5.552397","1.546060","-0.045762","765197","901616","968077","3.734460","0.735750","-0.065681","902","870","857","734","709","698","663","612","592","580","495","462","419","353","336","DualSpot on"
"MA200-0420","42831","71","1","1.10","1.6","2023-07-14T13:15:00","120","2023/07/14","13:15:00","-15.795644700527191","35.0027799999807","0.1","10","300","64","38","-268","-26968","-1648","11","150","150.02","116.35","33.67","26.54","38.7","11.33","90812","27.31","DUALSPOT-UV-BLUE-GREEN-RED-IR","712758","683695","906168","13.329742","3.786775","-0.013823","836341","885151","837331","8.854328","2.628427","-0.008246","827417","864125","830752","7.196431","2.005195","-0.018747","855176","870260","888699","5.610518","1.557782","-0.128762","765081","901621","968163","3.759258","0.744940","0.068994","771","685","651","629","599","587","558","510","492","501","349","290","297","381","401","DualSpot on"
"MA200-0420","42832","71","1","1.10","1.6","2023-07-14T13:20:00","120","2023/07/14","13:20:00","-15.795771896839142","35.002789499703795","0.1","10","300","64","38","-260","-27191","-1164","11","150","149.81","115.67","34.14","26.64","39.2","11.60","90796","27.63","DUALSPOT-UV-BLUE-GREEN-RED-IR","712233","684199","907441","13.542519","3.854591","0.007417","836555","886301","838750","8.992929","2.666396","-0.012648","827376","864840","831686","7.309662","2.035212","-0.022473","855435","871075","889768","5.696516","1.580768","-0.026385","760303","896304","962590","3.812450","0.759240","-0.032851","1080","1166","1201","888","824","797","812","729","698","745","675","648","642","585","570","DualSpot on"
"MA200-0420","42833","71","1","1.10","1.6","2023-07-14T13:25:00","120","2023/07/14","13:25:00","-15.795636534690857","35.00281549943611","0.3","11","300","64","39","-224","-27156","-844","11","150","149.82","116.15","33.67","26.58","39.2","11.55","90796","27.31","DUALSPOT-UV-BLUE-GREEN-RED-IR","712785","686382","911386","13.898418","3.968332","0.009030","831667","882497","835736","9.215608","2.732139","0.002787","823310","861683","829117","7.492131","2.087903","-0.000707","851028","867487","886401","5.833294","1.616608","-0.026259","762314","899270","965971","3.895673","0.779739","-0.059378","1799","1984","2057","1421","1447","1458","1304","1299","1297","1181","1067","1024","1000","850","812","DualSpot on"
"MA200-0420","42834","71","1","1.10","1.6","2023-07-14T13:30:00","120","2023/07/14","13:30:00","-15.795754611492157","35.00272299954668","0.1","12","300","64","39","-300","-27056","-1208","11","150","150.21","116.21","34.01","26.51","39.4","11.59","90784","27.50","DUALSPOT-UV-BLUE-GREEN-RED-IR","707737","683504","908909","14.337929","4.114526","0.011209","834218","886732","840311","9.461679","2.805656","0.003036","825253","864942","832667","7.687045","2.144354","-0.001907","855443","872876","892283","5.976563","1.657116","-0.008243","760651","897803","964593","3.971971","0.799397","-0.044373","2221","2524","2646","1569","1602","1616","1392","1378","1372","1236","1194","1178","917","807","779","DualSpot on"
"MA200-0420","42835","71","1","1.10","1.6","2023-07-14T13:35:00","120","2023/07/14","13:35:00","-15.795701324939728","35.002818499458954","0.1","12","300","64","40","-296","-27088","-1188","11","150","149.69","115.72","33.97","26.50","38.8","11.35","90772","27.31","DUALSPOT-UV-BLUE-GREEN-RED-IR","704752","681423","906570","14.502024","4.160991","-0.003613","830988","884015","837984","9.570624","2.834987","-0.013961","822795","862932","830923","7.775995","2.165985","-0.040162","853013","870856","890358","6.045929","1.673153","-0.068816","759044","896200","962973","4.015350","0.809836","-0.072625","832","803","791","697","640","615","638","528","486","601","473","424","523","429","405","DualSpot on"
"MA200-0420","42836","71","1","1.10","1.6","2023-07-14T13:40:00","120","2023/07/14","13:40:00","-15.795749306678772","35.00283933314495","0.1","12","300","64","40","-291","-27150","-695","11","150","149.63","116.19","33.43","26.57","38.9","11.45","90768","27.44","DUALSPOT-UV-BLUE-GREEN-RED-IR","701543","679278","904268","14.704277","4.225227","0.008643","827797","881377","835758","9.691808","2.868169","-0.007617","825654","866564","834626","7.874592","2.191650","-0.019331","850159","868414","887992","6.119216","1.691765","-0.031658","762315","900376","967547","4.059867","0.819072","-0.132345","1022","1128","1171","773","735","720","704","637","611","632","558","530","535","385","348","DualSpot on"
"MA200-0420","42837","71","1","1.10","1.6","2023-07-14T13:45:00","120","2023/07/14","13:45:00","-15.795692384243011","35.002836666535586","0.0","12","300","64","40","-239","-27116","-1316","11","150","149.44","115.95","33.48","26.66","39.6","11.77","90764","27.50","DUALSPOT-UV-BLUE-GREEN-RED-IR","703019","681668","907944","14.898710","4.279688","-0.002946","830306","884919","839351","9.817428","2.895164","-0.057989","822438","863876","832273","7.977833","2.212816","-0.084028","852453","871321","891095","6.197465","1.704638","-0.235600","758910","896758","963761","4.114822","0.829731","-0.169732","984","955","943","803","597","511","739","524","442","677","385","275","662","444","389","DualSpot on"
"MA200-0420","42838","71","1","1.10","1.6","2023-07-14T13:50:00","120","2023/07/14","13:50:00","-15.7957102060318","35.00281083281152","0.2","13","300","64","41","-270","-27025","-1341","11","150","149.76","115.92","33.84","26.35","39.3","11.41","90768","26.81","DUALSPOT-UV-BLUE-GREEN-RED-IR","697976","678007","903754","15.157555","4.355913","0.000796","831553","887295","842046","9.984563","2.947193","0.008612","823700","866054","834672","8.112944","2.252960","0.002953","847864","867268","887197","6.299038","1.731425","-0.024410","761791","900508","967916","4.165247","0.842390","-0.051144","1311","1323","1327","1068","1139","1169","967","984","991","879","794","761","607","522","500","DualSpot on"
"MA200-0420","42839","71","1","1.10","1.6","2023-07-14T13:55:00","120","2023/07/14","13:55:00","-15.795748949050903","35.002742499578744","0.2","13","300","64","41","-245","-27091","-1045","11","150","150.34","116.03","34.31","25.77","39.6","10.99","90768","26.00","DUALSPOT-UV-BLUE-GREEN-RED-IR","697518","678821","905440","15.412144","4.421131","-0.014958","825821","882207","837602","10.148690","2.996444","0.002041","819862","862771","831842","8.241925","2.293479","0.009668","849716","869776","889949","6.390286","1.753804","-0.048080","760777","899387","966850","4.188285","0.854127","0.113642","1288","1116","1047","1048","1064","1070","922","980","1002","788","654","603","277","477","529","DualSpot on"
"MA200-0420","42840","71","1","1.10","1.6","2023-07-14T14:00:00","120","2023/07/14","14:00:00","-15.795752346515656","35.00274433288723","0.1","13","300","64","42","-304","-27236","-1256","11","150","149.82","115.88","33.95","25.33","40.1","10.78","90756","25.63","DUALSPOT-UV-BLUE-GREEN-RED-IR","696454","679050","906601","15.692310","4.515735","0.011250","825731","883114","838987","10.325669","3.056449","0.017694","819779","863530","832971","8.386877","2.343833","0.024447","850629","871354","891860","6.497278","1.788413","0.019350","758730","897169","964650","4.228334","0.874403","0.113201","1420","1636","1724","1132","1310","1385","1038","1231","1306","926","1022","1059","482","834","926","DualSpot on"
"MA200-0420","42841","71","1","1.10","1.6","2023-07-14T14:05:00","120","2023/07/14","14:05:00","-15.795709490776062","35.002760832896456","0.1","13","300","64","42","-216","-26962","-1533","11","150","149.59","115.92","33.67","25.00","41.1","10.87","90744","25.56","DUALSPOT-UV-BLUE-GREEN-RED-IR","692738","677189","905255","16.070782","4.641115","0.010263","822828","881384","837903","10.545184","3.121220","0.002084","818318","863067","832943","8.560319","2.393228","-0.003262","849779","871267","892068","6.621516","1.820667","-0.025934","759757","898624","966400","4.273660","0.892669","0.076917","1917","2187","2296","1403","1426","1435","1242","1217","1208","1075","961","917","546","757","813","DualSpot on"
"MA200-0420","42842","71","1","1.10","1.6","2023-07-14T14:10:00","120","2023/07/14","14:10:00","-15.795697450637817","35.00275799958035","0.2","13","300","64","43","-408","-26700","-2195","11","150","150.02","115.92","34.10","25.17","42.6","11.55","90736","26.25","DUALSPOT-UV-BLUE-GREEN-RED-IR","693312","679257","909188","16.427191","4.769668","0.014707","824594","884588","841412","10.751157","3.179490","-0.005359","814965","860521","830879","8.726028","2.438694","-0.011816","845609","867815","888836","6.748138","1.855214","-0.016481","761332","900989","969132","4.346878","0.912221","-0.030415","1805","2214","2381","1317","1266","1245","1186","1106","1075","1095","1016","986","882","800","779","DualSpot on"
"MA200-0420","42843","71","1","1.10","1.6","2023-07-14T14:15:00","120","2023/07/14","14:15:00","-15.795690298080444","35.00276816636324","0.0","13","300","64","43","-272","-27116","-1092","11","150","149.52","116.22","33.31","25.53","42.9","11.99","90740","26.56","DUALSPOT-UV-BLUE-GREEN-RED-IR","691898","679318","910309","16.756723","4.884643","0.014014","817454","878274","835936","10.969341","3.241425","-0.001245","813415","860060","830844","8.913282","2.486908","-0.018396","844743","867895","889278","6.900604","1.894279","-0.024784","758933","899003","967257","4.472826","0.940973","-0.077601","1665","2027","2176","1391","1378","1373","1337","1201","1149","1316","1176","1123","1513","1205","1123","DualSpot on"
"MA200-0420","42844","71","1","1.10","1.6","2023-07-14T14:20:00","120","2023/07/14","14:20:00","-15.795767366886139","35.002729499479756","0.3","13","300","64","44","-191","-27233","-700","11","150","150.08","115.68","34.40","25.66","42.0","11.77","90740","26.44","DUALSPOT-UV-BLUE-GREEN-RED-IR","689491","678191","909662","17.036024","4.979095","0.009525","821602","883818","841691","11.148599","3.298699","0.008564","816701","864468","835437","9.063041","2.531642","0.000666","842539","866367","888025","7.021474","1.928742","-0.008598","756780","897096","965394","4.564558","0.962395","-0.081918","1418","1612","1692","1148","1234","1270","1074","1079","1081","1048","1005","988","1107","869","806","DualSpot on"
"MA200-0420","42845","71","1","1.10","1.6","2023-07-14T14:25:00","120","2023/07/14","14:25:00","-15.795707643032074","35.002753666369244","0.0","12","300","64","44","-220","-27000","-1388","11","150","149.44","115.95","33.48","25.53","41.0","11.29","90732","26.13","DUALSPOT-UV-BLUE-GREEN-RED-IR","686797","676454","907836","17.225770","5.036676","0.003899","818164","880838","839144","11.266709","3.335023","0.007507","814672","862881","834163","9.158497","2.560502","0.006697","840321","864544","886327","7.093670","1.946289","-0.039322","755547","895907","964227","4.606077","0.970952","-0.123542","961","1010","1030","755","804","824","683","715","728","624","525","488","500","357","318","DualSpot on"
"MA200-0420","42846","71","1","1.10","1.6","2023-07-14T14:30:00","120","2023/07/14","14:30:00","-15.795691668987274","35.00274449959397","0.3","12","300","64","44","-207","-26996","-1303","11","150","149.35","115.54","33.81","25.42","41.1","11.25","90736","26.06","DUALSPOT-UV-BLUE-GREEN-RED-IR","686362","677044","909301","17.444546","5.107334","0.007324","813176","876300","835188","11.402711","3.374153","-0.002150","809998","858643","830322","9.270429","2.591347","-0.009508","840084","864843","886813","7.175114","1.968411","-0.015322","757179","898149","966699","4.649811","0.982793","-0.022538","1112","1227","1275","872","857","851","804","757","739","707","656","637","528","489","478","DualSpot on"
"MA200-0420","42847","71","1","1.10","1.6","2023-07-14T14:35:00","120","2023/07/14","14:35:00","-15.795682787895203","35.00277249957435","0.1","13","300","64","45","-204","-27063","-940","11","150","150.21","116.27","33.94","25.19","41.6","11.24","90728","25.69","DUALSPOT-UV-BLUE-GREEN-RED-IR","683014","675168","907677","17.758070","5.209333","0.007851","816219","880805","839953","11.597283","3.431760","0.001711","812004","861761","833707","9.430392","2.637946","-0.000305","844888","870569","892960","7.296202","2.000050","-0.023157","756307","897496","966225","4.713434","1.000734","-0.009578","1583","1765","1840","1240","1258","1265","1142","1139","1138","1044","935","893","764","738","731","DualSpot on"
"MA200-0420","42848","71","1","1.10","1.6","2023-07-14T14:40:00","120","2023/07/14","14:40:00","-15.795665800571442","35.002784833079204","0.3","13","300","64","46","-300","-27091","-1108","11","150","150.21","115.95","34.26","25.03","42.3","11.31","90724","25.63","DUALSPOT-UV-BLUE-GREEN-RED-IR","682859","676117","909758","18.011872","5.297884","0.011331","810878","875913","835708","11.747347","3.479862","0.009173","808649","858899","831296","9.552040","2.677148","0.011730","840822","866928","889484","7.386981","2.027198","0.002255","753935","894977","963626","4.757120","1.015019","0.025140","1285","1518","1615","959","1040","1075","871","950","980","785","795","798","526","582","597","DualSpot on"
"MA200-0420","42849","71","1","1.10","1.6","2023-07-14T14:45:00","120","2023/07/14","14:45:00","-15.795723497867584","35.00278599956073","0.2","13","300","64","46","-284","-26952","-1352","11","150","149.41","115.71","33.70","24.83","42.0","11.05","90712","25.25","DUALSPOT-UV-BLUE-GREEN-RED-IR","680105","674287","907921","18.214954","5.366659","0.010299","814591","880659","840556","11.868443","3.520446","0.014878","811624","862626","835130","9.650564","2.710432","0.018859","839416","865923","888621","7.458316","2.048787","0.006879","753712","894920","963689","4.789228","1.027495","0.062336","1030","1198","1268","775","892","942","706","820","864","618","642","651","387","517","552","DualSpot on"
"MA200-0420","42850","71","1","1.10","1.6","2023-07-14T14:50:00","120","2023/07/14","14:50:00","-15.795686841011047","35.002771832980216","0.1","13","300","64","47","-408","-27137","-845","11","150","150.21","115.88","34.33","24.70","42.5","11.12","90708","25.31","DUALSPOT-UV-BLUE-GREEN-RED-IR","676890","672165","905806","18.454648","5.449787","0.010560","811509","878144","838506","12.005537","3.562235","0.003282","810323","861874","834730","9.759156","2.742517","-0.000389","837212","864107","886967","7.537962","2.070748","-0.014020","753480","894844","963723","4.827642","1.039395","0.011377","1214","1422","1509","877","902","913","778","775","775","689","641","623","463","484","490","DualSpot on"
"MA200-0420","42851","71","1","1.10","1.6","2023-07-14T14:55:00","120","2023/07/14","14:55:00","-15.79567414522171","35.002738499548286","0.2","14","300","64","47","-340","-27191","-1164","11","150","150.21","115.84","34.38","24.68","42.8","11.19","90704","25.38","DUALSPOT-UV-BLUE-GREEN-RED-IR","677731","673836","908730","18.656150","5.523521","0.013333","807304","874256","835099","12.120965","3.600078","0.010701","805989","857865","831080","9.854566","2.773517","0.011839","837997","865372","888452","7.608004","2.091477","-0.000493","754293","896039","965160","4.866470","1.052582","0.031974","1021","1259","1360","738","816","848","683","748","774","606","604","604","468","535","554","DualSpot on"
"MA200-0420","42852","71","1","1.10","1.6","2023-07-14T15:00:00","120","2023/07/14","15:00:00","-15.795709669589996","35.00271483277902","0.1","14","300","64","48","-216","-26900","-1891","11","150","150.33","115.92","34.42","24.56","42.6","10.99","90708","25.13","DUALSPOT-UV-BLUE-GREEN-RED-IR","676315","673463","908973","18.886506","5.603128","0.010006","813047","881261","842149","12.252997","3.643190","0.010140","805483","857918","831406","9.957573","2.805972","0.007877","838487","866314","889595","7.681800","2.112652","-0.006329","754589","896609","965871","4.904257","1.063664","-0.003254","1167","1358","1439","844","928","964","737","782","800","638","617","609","455","449","448","DualSpot on"
"MA200-0420","42853","71","1","1.10","1.6","2023-07-14T15:05:00","120","2023/07/14","15:05:00","-15.79568487405777","35.00277266628109","0.0","14","300","64","49","-397","-27200","-1114","11","150","149.76","115.88","33.88","24.51","42.8","11.02","90700","25.13","DUALSPOT-UV-BLUE-GREEN-RED-IR","674000","672196","908010","19.125108","5.688003","0.012322","810678","879593","840944","12.396765","3.687709","0.006259","803916","856905","830728","10.074013","2.841633","0.006159","837271","865600","889088","7.768092","2.137920","0.000266","754282","896559","965972","4.953848","1.078486","0.005589","1209","1471","1582","919","974","997","834","873","889","747","748","748","597","611","614","DualSpot on"
"MA200-0420","42854","71","1","1.10","1.6","2023-07-14T15:10:00","120","2023/07/14","15:10:00","-15.795689940452576","35.00271866610274","0.1","13","300","64","49","-225","-27120","-1254","11","150","150.42","116.21","34.21","24.46","42.7","10.95","90700","25.00","DUALSPOT-UV-BLUE-GREEN-RED-IR","670259","669473","905041","19.353072","5.766910","0.010340","806672","876016","837879","12.530252","3.731786","0.011771","806206","860001","834015","10.183213","2.875703","0.007537","834167","862904","886545","7.849087","2.161469","-0.002243","752490","894712","964099","5.001867","1.092369","-0.004728","1152","1354","1440","851","955","998","780","826","845","699","690","687","577","566","563","DualSpot on"
"MA200-0420","42855","71","1","1.10","1.6","2023-07-14T15:15:00","120","2023/07/14","15:15:00","-15.795737981796265","35.002688999520615","0.0","13","300","64","51","-196","-27412","-300","11","150","149.67","115.63","34.04","24.48","43.0","11.06","90688","25.13","DUALSPOT-UV-BLUE-GREEN-RED-IR","671192","671333","908257","19.567150","5.842418","0.011249","808595","878880","840928","12.656230","3.768754","-0.000380","802391","856536","830879","10.284448","2.904796","-0.003354","835114","864357","888205","7.925787","2.182731","-0.011070","753883","896691","966344","5.046097","1.103058","-0.058968","1087","1302","1394","807","804","803","726","709","702","665","626","611","534","438","411","DualSpot on"
"MA200-0420","42856","71","1","1.10","1.6","2023-07-14T15:20:00","120","2023/07/14","15:20:00","-15.795726120471954","35.002702499506995","0.0","13","300","64","52","-204","-27224","-772","11","150","150.21","115.88","34.34","24.58","42.8","11.11","90692","25.19","DUALSPOT-UV-BLUE-GREEN-RED-IR","666996","668160","904737","19.806330","5.927223","0.011061","804695","875505","838091","12.798866","3.813945","0.007015","803889","858847","833408","10.398772","2.938527","-0.000580","838615","868499","892674","8.010260","2.205567","-0.017185","755738","899284","969278","5.101501","1.118268","-0.020378","1212","1450","1552","912","975","1002","819","815","814","731","667","642","667","618","605","DualSpot on"
"MA200-0420","42857","71","1","1.10","1.6","2023-07-14T15:25:00","120","2023/07/14","15:25:00","-15.795656859874725","35.00270316610113","0.1","12","300","64","52","-208","-27008","-1283","11","150","150.15","115.72","34.43","24.64","42.7","11.12","90688","25.31","DUALSPOT-UV-BLUE-GREEN-RED-IR","667607","669729","907616","20.033066","6.010065","0.012266","805797","877487","840348","12.933426","3.858142","0.009979","804775","860440","835240","10.508304","2.972263","0.004456","833729","863928","888204","8.093865","2.231888","0.009185","751718","894857","964633","5.156879","1.133291","-0.024718","1150","1413","1525","862","951","989","785","813","824","724","767","783","668","609","592","DualSpot on"
"MA200-0420","42858","71","1","1.10","1.6","2023-07-14T15:30:00","120","2023/07/14","15:30:00","-15.7957124710083","35.00273099960759","0.5","12","300","64","53","-80","-27196","-1868","11","150","149.89","116.03","33.85","24.65","42.5","11.06","90680","25.19","DUALSPOT-UV-BLUE-GREEN-RED-IR","665179","668124","906041","20.219738","6.077183","0.012335","803416","875575","838829","13.042252","3.892910","0.009149","803067","859167","834209","10.593857","2.998155","0.004677","832216","862819","887227","8.158768","2.249746","-0.010447","750371","893532","963314","5.196764","1.142043","-0.089570","944","1164","1258","695","761","789","612","635","644","561","529","517","480","361","327","DualSpot on"
"MA200-0420","42859","71","1","1.10","1.6","2023-07-14T15:35:00","120","2023/07/14","15:35:00","-15.795646369457245","35.00273716612719","0.1","13","300","64","54","-336","-26903","-2312","11","150","150.22","116.01","34.22","24.58","42.4","10.94","90688","25.00","DUALSPOT-UV-BLUE-GREEN-RED-IR","665059","669018","908024","20.463104","6.160141","0.008905","803497","876534","840130","13.189877","3.938305","0.004340","798675","855129","830589","10.713532","3.033554","0.000375","832455","863618","888242","8.249672","2.273897","-0.019241","751887","895652","965732","5.250446","1.156103","-0.031937","1232","1424","1506","943","983","1000","856","858","859","786","708","678","646","574","553","DualSpot on"
"MA200-0420","42860","71","1","1.10","1.6","2023-07-14T15:40:00","120","2023/07/14","15:40:00","-15.795621693134308","35.002803165931255","0.2","13","300","64","55","-348","-26975","-1364","11","150","149.94","115.79","34.15","24.49","42.5","10.90","90696","24.94","DUALSPOT-UV-BLUE-GREEN-RED-IR","661136","666171","904918","20.709290","6.246612","0.010368","799901","873455","837583","13.332615","3.984016","0.008179","800093","857365","833060","10.829130","3.069752","0.007323","835373","867154","892096","8.331924","2.297931","-0.001554","754340","898860","969321","5.294800","1.169806","0.010857","1248","1487","1590","913","992","1025","828","880","900","712","706","703","535","560","567","DualSpot on"
"MA200-0420","42861","71","1","1.10","1.6","2023-07-14T15:45:00","120","2023/07/14","15:45:00","-15.795622408390045","35.00279333326034","0.2","13","300","64","55","-291","-27337","-1320","11","150","150.21","115.87","34.34","24.36","42.4","10.76","90692","24.69","DUALSPOT-UV-BLUE-GREEN-RED-IR","660230","666227","905701","20.935254","6.324983","0.009369","799709","874010","838452","13.463745","4.027438","0.010650","800095","857969","833917","10.934911","3.103935","0.010249","829557","861555","886563","8.409020","2.321652","0.005954","750709","894798","965049","5.333364","1.181144","-0.001935","1145","1340","1424","838","937","979","757","826","853","667","692","702","464","461","460","DualSpot on"
"MA200-0420","42862","71","1","1.10","1.6","2023-07-14T15:50:00","120","2023/07/14","15:50:00","-15.795614421367645","35.00276416633278","0.4","12","300","64","56","-491","-26691","-1991","11","150","150.21","115.88","34.34","24.34","42.7","10.86","90704","24.81","DUALSPOT-UV-BLUE-GREEN-RED-IR","659196","666584","907295","21.263646","6.447202","0.012636","799204","874797","839853","13.690529","4.102927","0.010940","795255","853875","830498","11.128230","3.167552","0.012028","831017","863994","889533","8.562959","2.371221","0.012505","752009","896981","967723","5.433574","1.212803","0.014450","1664","2090","2276","1450","1629","1706","1385","1538","1599","1332","1448","1492","1208","1288","1311","DualSpot on"
"MA200-0420","42863","71","1","1.10","1.6","2023-07-14T15:55:00","120","2023/07/14","15:55:00","-15.795659720897675","35.002733333269134","0.1","12","300","64","57","-216","-27120","-1204","11","150","149.87","116.00","33.88","24.27","42.8","10.83","90700","24.69","DUALSPOT-UV-BLUE-GREEN-RED-IR","655521","664425","905582","21.638580","6.581707","0.011421","795817","872677","838555","13.962056","4.194611","0.013075","796782","856878","834018","11.360574","3.244048","0.013321","833046","867210","893350","8.749496","2.429226","0.009407","749192","894347","965243","5.554155","1.249926","0.011769","1898","2332","2521","1735","2006","2122","1662","1874","1959","1613","1717","1758","1452","1530","1553","DualSpot on"
"MA200-0420","42864","71","1","1.10","1.6","2023-07-14T16:00:00","120","2023/07/14","16:00:00","-15.795659184455872","35.002747333142906","0.0","12","300","64","57","-87","-27237","-1195","11","150","150.02","116.03","33.98","24.13","43.0","10.76","90692","24.38","DUALSPOT-UV-BLUE-GREEN-RED-IR","658017","667879","910993","21.850978","6.656372","0.010235","793534","870897","837215","14.089789","4.235357","0.008028","795621","856238","833709","11.464820","3.276807","0.008089","831787","866370","892677","8.827080","2.450706","-0.009274","748658","893942","964930","5.593355","1.262560","0.020551","1075","1290","1384","816","888","920","745","800","822","670","634","620","471","519","533","DualSpot on"
"MA200-0420","42865","71","1","1.10","1.6","2023-07-14T16:05:00","120","2023/07/14","16:05:00","-15.795656621456146","35.002642166335136","0.1","13","300","64","58","-404","-26591","-2729","11","150","150.28","116.39","33.89","23.88","43.5","10.70","90692","24.19","DUALSPOT-UV-BLUE-GREEN-RED-IR","656245","666921","910257","22.044220","6.722265","0.008963","791686","869557","836222","14.207323","4.272741","0.008218","794946","856043","833763","11.559020","3.307640","0.012821","830514","865445","891903","8.895483","2.471502","0.006485","748668","894114","965183","5.619827","1.273024","0.056251","975","1142","1215","748","817","847","671","755","788","589","615","625","317","431","464","DualSpot on"
"MA200-0420","42866","71","1","1.10","1.6","2023-07-14T16:10:00","120","2023/07/14","16:10:00","-15.79564082622528","35.00275083305314","0.1","13","300","64","49","-328","-26975","-1192","11","150","149.63","115.76","33.87","23.58","44.2","10.67","90692","22.75","DUALSPOT-UV-BLUE-GREEN-RED-IR","651416","662965","905580","22.266636","6.802282","0.011159","792333","871031","837993","14.335522","4.314846","0.010405","791062","852447","830534","11.662147","3.339910","0.007612","825511","860735","887225","8.971146","2.491369","-0.018449","750780","896874","968288","5.657707","1.283757","-0.007522","1128","1387","1501","821","921","964","739","791","811","655","588","562","457","442","438","DualSpot on"
"MA200-0420","42867","71","1","1.10","1.6","2023-07-14T16:15:00","120","2023/07/14","16:15:00","-15.795625865459442","35.002746666548774","0.1","13","300","64","48","-280","-27056","-1220","11","150","149.69","116.11","33.58","22.90","44.8","10.27","90684","21.69","DUALSPOT-UV-BLUE-GREEN-RED-IR","653433","666145","910762","22.524724","6.890497","0.009221","789449","868711","836261","14.492760","4.372197","0.018788","790689","852716","831196","11.787306","3.386604","0.024543","825293","861037","887834","9.063046","2.522534","0.021306","747962","893647","964950","5.688137","1.299459","0.088631","1305","1543","1647","1003","1266","1379","894","1154","1259","794","931","984","366","653","738","DualSpot on"
"MA200-0420","42868","71","1","1.10","1.6","2023-07-14T16:20:00","120","2023/07/14","16:20:00","-15.795588612556458","35.00277799973264","0.2","13","300","64","48","-320","-26868","-1416","11","150","149.96","116.18","33.78","22.34","45.8","10.08","90676","21.13","DUALSPOT-UV-BLUE-GREEN-RED-IR","651229","665001","910050","22.785854","6.985962","0.011879","787481","867488","835576","14.662210","4.431086","0.014913","790129","852906","831786","11.928432","3.437686","0.021458","824347","860647","887722","9.168600","2.557448","0.017477","750165","896407","968132","5.722362","1.318678","0.095686","1320","1659","1810","1081","1292","1383","1008","1255","1355","911","1036","1085","411","794","909","DualSpot on"
"MA200-0420","42869","71","1","1.10","1.6","2023-07-14T16:25:00","120","2023/07/14","16:25:00","-15.795658707618713","35.002742666285485","0.2","13","300","64","47","-245","-26391","-1208","11","150","149.72","115.61","34.11","21.91","47.0","10.09","90680","20.75","DUALSPOT-UV-BLUE-GREEN-RED-IR","646544","660990","905128","22.967720","7.050550","0.009897","789012","869924","838269","14.787371","4.474288","0.013257","791830","855289","834429","12.032757","3.474992","0.019098","826051","862880","890218","9.245688","2.581292","0.006818","747658","893445","965066","5.742532","1.335082","0.121193","923","1112","1195","802","939","998","749","908","972","668","701","713","243","671","801","DualSpot on"
"MA200-0420","42870","71","1","1.10","1.6","2023-07-14T16:30:00","120","2023/07/14","16:30:00","-15.795666992664337","35.002778166206554","0.1","13","300","64","46","-431","-26703","-1735","11","150","149.89","115.80","34.09","21.58","47.8","10.04","90692","20.56","DUALSPOT-UV-BLUE-GREEN-RED-IR","644796","660199","904953","23.216888","7.146585","0.013301","787065","868772","837680","14.966659","4.537892","0.015193","790606","854837","834449","12.185528","3.529226","0.018442","825025","862519","890220","9.369145","2.621134","0.012582","748742","895020","967041","5.799228","1.360632","0.070615","1263","1654","1828","1147","1383","1485","1095","1320","1412","1069","1172","1212","683","1047","1158","DualSpot on"
"MA200-0420","42871","71","1","1.10","1.6","2023-07-14T16:35:00","120","2023/07/14","16:35:00","-15.795649349689484","35.002758332993835","0.2","13","300","64","46","-340","-27300","-971","11","150","149.96","115.84","34.12","21.24","48.2","9.84","90684","20.19","DUALSPOT-UV-BLUE-GREEN-RED-IR","644488","661043","906997","23.490334","7.246191","0.010856","787032","869868","839338","15.166987","4.608345","0.014369","786348","851188","831377","12.360083","3.590703","0.017492","826379","864769","892934","9.508391","2.666322","0.013032","746234","892409","964505","5.875023","1.390790","0.053603","1386","1714","1861","1282","1530","1639","1251","1495","1596","1205","1328","1376","914","1234","1334","DualSpot on"
"MA200-0420","42872","71","1","1.10","1.6","2023-07-14T16:40:00","120","2023/07/14","16:40:00","-15.795594871044159","35.00275699957274","0.1","13","300","64","44","-304","-26619","-1635","11","150","149.79","116.35","33.44","20.91","48.8","9.73","90676","19.75","DUALSPOT-UV-BLUE-GREEN-RED-IR","643699","661450","908507","23.779212","7.351989","0.011953","785864","869763","839825","15.375923","4.678511","0.012682","786891","852757","833420","12.537556","3.651619","0.017162","820410","859352","887718","9.650473","2.709634","0.008064","747988","894973","967544","5.951748","1.419975","0.050106","1458","1858","2037","1331","1555","1653","1266","1512","1613","1225","1299","1328","921","1219","1312","DualSpot on"
"MA200-0420","42873","71","1","1.10","1.6","2023-07-14T16:45:00","120","2023/07/14","16:45:00","-15.795623540878296","35.002749332692474","0.1","13","300","64","44","-280","-26924","-1416","11","150","149.81","115.58","34.22","20.62","49.6","9.70","90688","19.50","DUALSPOT-UV-BLUE-GREEN-RED-IR","639636","658548","905541","24.082714","7.466873","0.011941","781779","866456","837280","15.590722","4.754579","0.014115","784282","850946","832220","12.722972","3.717357","0.017146","817838","857536","886262","9.798248","2.758989","0.015441","746907","894113","966922","6.033333","1.452213","0.050702","1542","1971","2164","1377","1647","1766","1331","1594","1703","1282","1446","1511","986","1316","1420","DualSpot on"
"MA200-0420","42874","71","1","1.10","1.6","2023-07-14T16:50:00","120","2023/07/14","16:50:00","-15.795612752437592","35.002785166259855","0.1","13","300","64","42","-333","-27087","-1250","11","150","150.02","115.72","34.30","20.42","50.3","9.72","90696","19.25","DUALSPOT-UV-BLUE-GREEN-RED-IR","637464","657450","905043","24.370384","7.574579","0.011340","780123","865765","837127","15.786154","4.819387","0.009252","783023","850539","832280","12.889560","3.771364","0.009083","817195","857606","886727","9.929761","2.798521","0.001946","747208","894874","967978","6.104791","1.476799","0.028667","1460","1844","2017","1252","1400","1466","1195","1307","1353","1140","1156","1162","862","1001","1045","DualSpot on"
"MA200-0420","42875","71","1","1.10","1.6","2023-07-14T16:55:00","120","2023/07/14","16:55:00","-15.795671999454498","35.00276833306998","0.0","13","300","64","41","-316","-26944","-1444","11","150","149.41","115.87","33.53","20.18","50.9","9.69","90688","19.06","DUALSPOT-UV-BLUE-GREEN-RED-IR","636152","657477","906135","24.696484","7.696548","0.012075","778571","865233","837217","15.994043","4.887527","0.010030","782136","850580","832771","13.065945","3.828847","0.011592","816365","857611","887088","10.067822","2.838820","0.001189","747240","895358","968783","6.180883","1.503431","0.035079","1652","2136","2355","1330","1506","1584","1263","1423","1489","1195","1205","1209","917","1109","1171","DualSpot on"
"MA200-0420","42876","71","1","1.10","1.6","2023-07-14T17:00:00","120","2023/07/14","17:00:00","-15.79563421010971","35.00277316616848","0.1","14","300","64","40","-279","-27041","-1329","11","150","149.82","116.11","33.71","19.96","51.3","9.60","90692","18.81","DUALSPOT-UV-BLUE-GREEN-RED-IR","632959","655878","905406","25.119046","7.856437","0.012193","775978","863951","836758","16.271328","4.981482","0.011933","780024","849615","832478","13.298438","3.905672","0.012309","814710","856987","886955","10.254477","2.895333","0.005504","747212","896003","969818","6.294639","1.540236","0.020911","2137","2786","3081","1770","2066","2196","1662","1892","1987","1612","1682","1709","1368","1525","1576","DualSpot on"
"MA200-0420","42877","71","1","1.10","1.6","2023-07-14T17:05:00","120","2023/07/14","17:05:00","-15.795674324035645","35.00278666638769","0.2","13","300","64","40","-350","-26916","-1266","11","150","149.82","116.23","33.59","19.74","51.6","9.49","90704","18.63","DUALSPOT-UV-BLUE-GREEN-RED-IR","631193","655567","906237","25.489200","7.997776","0.012511","774470","863690","837202","16.518209","5.065202","0.012114","778954","849653","833092","13.510268","3.975331","0.012101","813447","856638","887044","10.421957","2.945619","0.004944","741856","890169","963838","6.393780","1.574060","0.030228","1870","2471","2746","1574","1847","1968","1513","1721","1808","1445","1501","1524","1191","1406","1476","DualSpot on"
"MA200-0420","42878","71","1","1.10","1.6","2023-07-14T17:10:00","120","2023/07/14","17:10:00","-15.795636534690857","35.002791833132505","0.1","14","300","64","39","-288","-27172","-892","11","150","150.01","116.37","33.64","19.59","51.8","9.40","90716","18.50","DUALSPOT-UV-BLUE-GREEN-RED-IR","628964","656172","909543","26.198944","8.264251","0.011599","772949","865074","840054","17.048104","5.242586","0.010898","772653","845465","830301","13.979746","4.127210","0.010342","813727","859367","890942","10.821268","3.068807","0.007926","742699","892977","967683","6.671682","1.656560","0.005188","3582","4652","5146","3375","3909","4145","3349","3748","3915","3442","3673","3765","3336","3425","3455","DualSpot on"
"MA200-0420","42879","71","1","1.10","1.6","2023-07-14T17:15:00","120","2023/07/14","17:15:00","-15.79559862613678","35.00283533311449","0.2","14","300","64","38","-360","-27056","-1360","11","150","150.45","116.28","34.17","19.44","51.9","9.31","0","0.00","DUALSPOT-UV-BLUE-GREEN-RED-IR","625970","655785","911296","26.873238","8.515800","0.010531","770010","864831","841289","17.581848","5.421394","0.009582","770444","845827","831906","14.461746","4.283828","0.009040","805855","853448","885945","11.234723","3.196033","0.005514","737863","888931","964170","6.964597","1.745476","0.006075","3405","4324","4750","3402","3879","4092","3441","3805","3958","3567","3735","3802","3518","3635","3674","DualSpot on"
"MA200-0420","42880","71","1","1.10","1.6","2023-07-14T17:20:00","120","2023/07/14","17:20:00","-15.795711636543274","35.00271466630511","0.0","14","300","64","38","-352","-27019","-1524","11","150","150.01","116.66","33.35","19.30","52.2","9.25","0","0.00","DUALSPOT-UV-BLUE-GREEN-RED-IR","618429","650411","905959","27.494820","8.751900","0.011832","762094","858542","836467","18.039864","5.573934","0.010686","768801","846363","833509","14.867952","4.414254","0.010026","805294","854921","888414","11.579647","3.299337","0.005396","738018","890629","966697","7.203890","1.816187","0.005982","3129","4158","4638","2910","3390","3605","2890","3246","3397","2966","3107","3164","2865","2961","2994","DualSpot on"
"MA200-0420","42881","71","1","1.10","1.6","2023-07-14T17:25:00","120","2023/07/14","17:25:00","-15.795613169670105","35.00279466644861","0.2","14","300","72","37","-308","-26980","-1108","11","150","150.02","116.27","33.75","19.16","52.3","9.16","90716","18.06","DUALSPOT-UV-BLUE-GREEN-RED-IR","709986","749469","1046322","28.091538","8.978001","0.011032","759078","857639","836800","18.473148","5.719065","0.009878","884806","976592","962928","15.249323","4.536926","0.008759","927442","986781","1026378","11.898387","3.395210","0.004070","851039","1028624","1117148","7.421549","1.880707","0.003745","3014","3935","4368","2762","3188","3379","2723","3018","3142","2750","2850","2890","2615","2670","2689","DualSpot on"
"MA200-0420","42882","71","1","1.10","1.6","2023-07-14T17:30:00","120","2023/07/14","17:30:00","-15.795695185661316","35.002771666506305","0.2","13","300","64","37","-284","-27056","-1072","11","150","150.43","116.61","33.82","18.95","53.1","9.18","90704","17.81","DUALSPOT-UV-BLUE-GREEN-RED-IR","613606","649762","908790","28.594044","9.166393","0.010527","757546","857985","838108","18.834376","5.834079","0.006585","760902","841654","830710","15.563601","4.633093","0.004664","803761","856799","891870","12.159336","3.468899","-0.003154","733555","887644","964508","7.587827","1.928040","-0.003366","2531","3271","3620","2296","2520","2621","2237","2360","2412","2245","2185","2162","1991","1954","1942","DualSpot on"
"MA200-0420","42883","71","1","1.10","1.6","2023-07-14T17:35:00","120","2023/07/14","17:35:00","-15.795644044876099","35.00280233263038","0.2","13","300","64","36","-292","-27047","-1524","11","150","149.95","116.51","33.44","18.76","53.8","9.21","90708","17.56","DUALSPOT-UV-BLUE-GREEN-RED-IR","611120","648977","909367","29.064414","9.345726","0.011218","755986","858086","839035","19.155004","5.937523","0.007949","759283","841435","831176","15.841006","4.718482","0.005897","795867","849776","885077","12.384151","3.530313","-0.005853","733337","888264","965578","7.727718","1.967103","-0.004904","2371","3149","3518","2040","2293","2406","1976","2119","2180","1935","1842","1805","1677","1631","1616","DualSpot on"
"MA200-0420","42884","71","1","1.10","1.6","2023-07-14T17:40:00","120","2023/07/14","17:40:00","-15.795670509338379","35.00279499986209","0.1","13","300","64","36","-258","-27070","-1370","11","150","150.15","116.31","33.84","18.55","54.5","9.20","0","0.00","DUALSPOT-UV-BLUE-GREEN-RED-IR","607549","647451","909259","29.635304","9.572422","0.011820","753374","857230","839265","19.520104","6.059599","0.009121","757131","840841","831438","16.147846","4.815697","0.006975","801317","857076","893346","12.629573","3.600735","-0.001541","732495","888177","965858","7.875429","2.009653","-0.001692","2882","3935","4437","2327","2674","2831","2190","2385","2468","2116","2088","2076","1774","1756","1750","DualSpot on"
"MA200-0420","42885","71","1","1.10","1.6","2023-07-14T17:45:00","120","2023/07/14","17:45:00","-15.795621991157532","35.00276549952105","0.3","13","300","64","35","-228","-26900","-1404","11","150","150.02","116.75","33.28","18.40","55.0","9.18","0","0.00","DUALSPOT-UV-BLUE-GREEN-RED-IR","600966","642537","904348","30.186664","9.792740","0.012357","752459","858180","841156","19.873478","6.177872","0.010157","756516","841867","833247","16.447908","4.913234","0.010145","795386","852205","888860","12.871511","3.671666","0.002990","728987","884894","962715","8.028589","2.052610","-0.002730","2773","3888","4424","2243","2634","2811","2133","2433","2561","2079","2138","2162","1832","1803","1793","DualSpot on"
"MA200-0420","42886","71","1","1.10","1.6","2023-07-14T17:50:00","120","2023/07/14","17:50:00","-15.795713484287262","35.002733666449785","0.1","13","300","64","35","-536","-26991","-1843","11","150","149.72","116.48","33.24","18.30","55.4","9.20","0","0.00","DUALSPOT-UV-BLUE-GREEN-RED-IR","600095","643863","908376","30.771110","10.026554","0.012141","746752","853719","837861","20.241682","6.304973","0.011536","752270","838877","831142","16.759975","5.014372","0.009684","797199","855654","893144","13.123091","3.746680","0.004511","731077","888490","967056","8.190237","2.097832","-0.003298","2947","4131","4704","2343","2834","3057","2224","2526","2655","2166","2264","2303","1938","1900","1887","DualSpot on"
"MA200-0420","42887","71","1","1.10","1.6","2023-07-14T17:55:00","120","2023/07/14","17:55:00","-15.795656621456146","35.00277533312328","0.1","13","300","64","34","-332","-26984","-824","11","150","150.54","116.47","34.07","18.20","55.6","9.18","0","0.00","DUALSPOT-UV-BLUE-GREEN-RED-IR","593807","639718","904879","31.438846","10.291908","0.011059","746820","856137","841391","20.648396","6.439751","0.007838","752178","840766","833890","17.103450","5.122924","0.006021","791768","851503","889521","13.400316","3.827415","-0.000464","728158","886089","964937","8.368824","2.146111","-0.013568","3367","4574","5162","2588","2932","3088","2448","2645","2729","2388","2377","2373","2142","1979","1923","DualSpot on"
"MA200-0420","42888","71","1","1.10","1.6","2023-07-14T18:00:00","120","2023/07/14","18:00:00","-15.79565054178238","35.00277299946174","0.4","13","300","64","34","-324","-26896","-1180","11","150","149.59","116.83","32.76","18.05","56.1","9.16","90720","16.88","DUALSPOT-UV-BLUE-GREEN-RED-IR","590905","639362","907069","32.170848","10.587822","0.012343","739356","850120","836758","21.102938","6.593359","0.010896","746201","836258","830469","17.488406","5.246431","0.009773","791860","853512","892420","13.710455","3.916516","0.002436","728515","887788","967293","8.564646","2.199558","-0.004323","3680","5305","6103","2884","3476","3745","2735","3130","3299","2663","2728","2755","2341","2279","2257","DualSpot on"
"MA200-0420","42889","71","1","1.10","1.6","2023-07-14T18:05:00","120","2023/07/14","18:05:00","-15.795594334602356","35.00275916629471","0.3","13","300","64","34","-358","-26866","-1170","11","150","149.63","116.94","32.68","17.90","56.5","9.13","0","0.00","DUALSPOT-UV-BLUE-GREEN-RED-IR","586235","637713","908013","33.066898","10.951088","0.012173","736245","849557","837748","21.639546","6.777013","0.011387","743500","835789","831207","17.935396","5.390143","0.009866","783792","846950","886480","14.066937","4.020281","0.003903","723908","883676","963387","8.792517","2.261271","-0.004950","4500","6528","7532","3401","4165","4514","3173","3650","3855","3058","3185","3236","2722","2637","2608","DualSpot on"
"MA200-0420","42890","71","1","1.10","1.6","2023-07-14T18:10:00","120","2023/07/14","18:10:00","-15.795782089233398","35.00269533297978","0.1","14","300","64","33","-316","-27004","-1612","11","150","149.34","116.49","32.85","17.76","57.0","9.13","0","0.00","DUALSPOT-UV-BLUE-GREEN-RED-IR","582370","637167","910971","34.050640","11.360535","0.012239","734159","850495","840369","22.234492","6.980789","0.010722","741778","836700","833427","18.437376","5.551576","0.009081","783125","848670","889336","14.474908","4.139305","0.003201","723570","884951","965473","9.057440","2.332191","-0.008071","4959","7321","8503","3786","4599","4971","3577","4080","4296","3513","3635","3684","3176","3016","2960","DualSpot on"
"MA200-0420","42891","71","1","1.10","1.6","2023-07-14T18:15:00","120","2023/07/14","18:15:00","-15.795619368553162","35.00279999966733","0.1","14","300","64","33","-364","-26947","-1220","11","150","149.38","116.35","33.03","17.68","57.5","9.18","90728","16.56","DUALSPOT-UV-BLUE-GREEN-RED-IR","575721","633442","909426","35.030912","11.775383","0.012135","728611","847361","839071","22.836116","7.190919","0.011022","737255","834460","832628","18.945656","5.717265","0.009252","778228","845809","887453","14.889709","4.263311","0.004658","720470","882947","964000","9.333391","2.406403","-0.008169","4948","7377","8607","3833","4716","5122","3626","4165","4397","3576","3767","3843","3313","3139","3078","DualSpot on"
"MA200-0420","42892","71","1","1.10","1.6","2023-07-14T18:20:00","120","2023/07/14","18:20:00","-15.795613586902618","35.002779166447","0.0","14","300","64","32","-300","-27044","-1148","11","150","149.41","116.37","33.03","17.61","57.7","9.15","90736","16.50","DUALSPOT-UV-BLUE-GREEN-RED-IR","566193","628211","907206","36.445616","12.357700","0.011114","721137","843079","837117","23.633266","7.465446","0.010052","730862","830926","830827","19.598864","5.928743","0.008553","779596","850366","893612","15.403046","4.416815","0.004521","717447","881374","963108","9.659973","2.492238","-0.011494","7140","10353","12002","5078","6160","6660","4660","5314","5598","4425","4661","4756","3920","3629","3528","DualSpot on"
"MA200-0420","42893","71","1","1.10","1.6","2023-07-14T18:25:00","120","2023/07/14","18:25:00","-15.795655190944672","35.00273299938999","0.0","15","300","64","32","-248","-27068","-1444","11","150","149.82","116.71","33.12","17.52","57.9","9.13","90740","16.38","DUALSPOT-UV-BLUE-GREEN-RED-IR","558767","623692","904573","37.484344","12.793297","0.011217","719903","845145","841045","24.276640","7.690644","0.010494","730052","832960","834373","20.140572","6.108668","0.009763","773176","845952","890158","15.844107","4.549217","0.004743","718127","884098","966857","9.952290","2.570180","-0.008896","5227","7726","9020","4086","5041","5483","3853","4510","4796","3791","4011","4099","3499","3287","3214","DualSpot on"
"MA200-0420","42894","71","1","1.10","1.6","2023-07-14T18:30:00","120","2023/07/14","18:30:00","-15.79568862915039","35.00278149964288","0.1","15","300","64","32","-320","-26988","-1448","11","150","149.90","117.05","32.85","17.44","58.2","9.13","90744","16.31","DUALSPOT-UV-BLUE-GREEN-RED-IR","556937","624689","909296","38.333024","13.152988","0.011404","714283","841540","839080","24.829196","7.885540","0.011013","725125","829986","832675","20.613154","6.263894","0.009540","768370","842986","888052","16.233665","4.666047","0.005412","714872","881767","964995","10.215387","2.641397","-0.004918","4258","6431","7566","3499","4398","4816","3352","3923","4172","3339","3568","3660","3140","3028","2989","DualSpot on"
"MA200-0420","42895","71","1","1.10","1.6","2023-07-14T18:35:00","120","2023/07/14","18:35:00","-15.795748591423035","35.00267816637643","0.1","15","300","64","31","-312","-27016","-1788","11","150","149.33","116.88","32.46","17.37","58.4","9.12","90736","16.25","DUALSPOT-UV-BLUE-GREEN-RED-IR","549068","619433","905494","39.332524","13.579433","0.011449","706586","835808","835265","25.449052","8.108210","0.011833","723422","830909","835074","21.135438","6.440529","0.011289","768075","845161","891528","16.657862","4.798126","0.008735","710497","878135","961784","10.497728","2.721453","0.002633","5022","7717","9138","3931","5086","5625","3710","4518","4872","3641","4082","4261","3374","3445","3470","DualSpot on"
"MA200-0420","42896","71","1","1.10","1.6","2023-07-14T18:40:00","120","2023/07/14","18:40:00","-15.795633018016815","35.002760333009064","0.0","14","300","64","31","-452","-26847","-1572","11","150","150.86","116.78","34.08","17.30","58.5","9.07","90736","16.19","DUALSPOT-UV-BLUE-GREEN-RED-IR","541157","614818","903390","40.554452","14.094734","0.010001","699541","831509","833219","26.210004","8.380663","0.009545","717698","827859","833817","21.779070","6.659922","0.008952","762450","841955","889630","17.178532","4.961535","0.005587","712414","882709","967776","10.846869","2.821254","-0.002617","6145","8881","10338","4830","5926","6442","4575","5344","5683","4472","4810","4947","4176","4091","4061","DualSpot on"
"MA200-0420","42897","71","1","1.10","1.6","2023-07-14T18:45:00","120","2023/07/14","18:45:00","-15.795657336711884","35.00279516656883","0.1","14","300","64","31","-244","-26944","-1564","11","150","150.21","116.86","33.35","17.20","58.8","9.05","0","0.00","DUALSPOT-UV-BLUE-GREEN-RED-IR","538782","615643","908466","41.558956","14.524303","0.010440","699073","834427","838092","26.862394","8.615016","0.010271","712709","825123","832636","22.333572","6.848169","0.009617","757887","839558","888325","17.635848","5.104423","0.006682","708871","880269","965958","11.154434","2.909329","0.000422","5048","7565","8918","4138","5209","5715","3939","4686","5016","3926","4298","4450","3676","3689","3693","DualSpot on"
"MA200-0420","42898","71","1","1.10","1.6","2023-07-14T18:50:00","120","2023/07/14","18:50:00","-15.795587956905365","35.00278866640292","0.2","14","300","64","31","-269","-26988","-1623","11","150","149.69","116.78","32.91","17.13","59.0","9.03","0","0.00","DUALSPOT-UV-BLUE-GREEN-RED-IR","533675","612227","906213","42.263004","14.829544","0.010731","693475","830493","835725","27.379266","8.803559","0.011057","708054","822155","830967","22.790872","7.006958","0.011022","752863","836179","885870","18.026374","5.232018","0.010181","706085","878523","964832","11.430748","2.990737","0.005088","3540","5448","6479","3281","4247","4705","3250","4006","4341","3354","3890","4109","3305","3455","3509","DualSpot on"
"MA200-0420","42899","71","1","1.10","1.6","2023-07-14T18:55:00","120","2023/07/14","18:55:00","-15.795644700527191","35.002751332940534","0.0","14","300","64","30","-369","-26865","-1488","11","150","149.34","116.70","32.64","17.09","59.2","9.05","90740","16.00","DUALSPOT-UV-BLUE-GREEN-RED-IR","530329","610625","906270","42.903744","15.102978","0.010441","690128","829056","835784","27.879002","8.986209","0.011178","705055","821026","831139","23.235940","7.161294","0.011079","750383","835576","886343","18.409960","5.354707","0.009146","704217","877848","964867","11.705948","3.072501","0.006651","3224","4920","5841","3174","4148","4611","3166","3925","4263","3297","3771","3965","3294","3499","3572","DualSpot on"
"MA200-0420","42900","71","1","1.10","1.6","2023-07-14T19:00:00","120","2023/07/14","19:00:00","-15.795699656009674","35.00270316610113","0.1","13","300","64","30","-300","-26975","-1658","11","150","149.35","117.05","32.30","17.07","59.3","9.05","90744","16.00","DUALSPOT-UV-BLUE-GREEN-RED-IR","528695","610018","906862","43.283412","15.267498","0.010821","688744","828934","836555","28.173930","9.095421","0.011907","703364","820448","831286","23.498956","7.253080","0.011777","748577","834858","886204","18.636884","5.428058","0.010445","702788","877085","964465","11.869669","3.120441","0.006445","1905","2991","3583","1867","2506","2810","1865","2359","2579","1945","2278","2415","1953","2073","2115","DualSpot on"
"MA200-0420","42901","71","1","1.10","1.6","2023-07-14T19:05:00","120","2023/07/14","19:05:00","-15.795664012432098","35.002791666425765","0.1","13","300","64","30","-268","-26900","-1404","11","150","149.77","116.90","32.88","17.07","59.3","9.08","0","0.00","DUALSPOT-UV-BLUE-GREEN-RED-IR","526797","608966","906639","43.612676","15.410152","0.010440","686607","827679","836073","28.422724","9.187844","0.011317","701729","819740","831201","23.718032","7.330759","0.011553","747241","834438","886323","18.828466","5.491991","0.011075","701925","876895","964650","12.006182","3.159472","0.001841","1654","2548","3037","1577","2084","2325","1555","1961","2143","1644","1951","2077","1631","1658","1668","DualSpot on"
"MA200-0420","42902","71","1","1.10","1.6","2023-07-14T19:10:00","120","2023/07/14","19:10:00","-15.795611321926117","35.00279999966733","0.1","13","300","64","29","-265","-26996","-1869","11","150","149.76","116.63","33.13","17.07","59.4","9.10","0","0.00","DUALSPOT-UV-BLUE-GREEN-RED-IR","524698","607795","906217","43.968924","15.558846","0.009569","684806","826994","836240","28.705154","9.288971","0.009686","700008","819083","831258","23.969730","7.416240","0.009207","745749","833965","886433","19.042346","5.559528","0.007150","701305","877054","965279","12.162714","3.206036","0.004952","1794","2636","3097","1795","2262","2486","1791","2142","2299","1839","2045","2129","1874","1963","1995","DualSpot on"
"MA200-0420","42903","71","1","1.10","1.6","2023-07-14T19:15:00","120","2023/07/14","19:15:00","-15.795576870441437","35.00273916614242","0.1","13","300","64","39","-980","-26880","-244","11","150","150.28","116.90","33.37","17.24","59.5","9.28","90768","17.19","DUALSPOT-UV-BLUE-GREEN-RED-IR","522781","607167","906948","44.414384","15.743988","0.009319","682842","826582","836888","29.072620","9.419428","0.009110","697671","818127","831234","24.303018","7.529453","0.008877","743264","832884","886071","19.333150","5.651923","0.007118","699312","875982","964657","12.382946","3.267851","-0.001892","2238","3258","3818","2330","2897","3169","2366","2816","3018","2495","2777","2893","2631","2587","2571","DualSpot on"
"MA200-0420","42904","71","1","1.10","1.6","2023-07-14T19:20:00","120","2023/07/14","19:20:00","-15.795618891716003","35.00278383330442","0.3","13","300","64","40","-912","-27028","107","11","150","149.65","116.90","32.75","17.87","58.4","9.59","90776","18.50","DUALSPOT-UV-BLUE-GREEN-RED-IR","521853","607720","910036","44.927588","15.991905","0.011781","682751","828457","840176","29.474642","9.581831","0.013424","697195","819450","833737","24.673840","7.666853","0.012919","742781","834044","888334","19.653718","5.765159","0.013717","699103","877236","966838","12.635147","3.348199","0.012446","2578","4446","5478","2549","3676","4218","2633","3483","3866","2751","3468","3766","3013","3427","3576","DualSpot on"
"MA200-0420","42905","71","1","1.10","1.6","2023-07-14T19:25:00","120","2023/07/14","19:25:00","-15.795695185661316","35.002762999618426","0.9","13","300","64","41","-967","-26944","68","11","150","149.90","117.01","32.89","18.35","57.2","9.73","90768","19.00","DUALSPOT-UV-BLUE-GREEN-RED-IR","519442","606546","910328","45.422472","16.217197","0.010805","680527","827572","840400","29.820940","9.713797","0.011585","694622","818018","833157","24.973224","7.775154","0.011782","741052","833524","888517","19.907610","5.849957","0.010577","696830","875645","965649","12.840778","3.406525","0.000964","2484","4023","4878","2193","2974","3351","2124","2734","3009","2176","2586","2757","2454","2477","2485","DualSpot on"
"MA200-0420","42906","71","1","1.10","1.6","2023-07-14T19:30:00","120","2023/07/14","19:30:00","-15.795630693435669","35.00275199953467","0.2","13","300","64","41","-1104","-26868","-536","11","150","150.02","116.82","33.19","18.72","56.2","9.82","90752","19.31","DUALSPOT-UV-BLUE-GREEN-RED-IR","514434","602249","905852","45.900920","16.435032","0.010547","675477","822979","836760","30.138712","9.839574","0.012228","693881","818615","834602","25.247286","7.876559","0.012090","741071","834740","890583","20.135858","5.931456","0.013251","695388","874964","965397","13.021957","3.457229","-0.001604","2405","3854","4662","2016","2809","3193","1947","2536","2803","1960","2463","2673","2166","2133","2122","DualSpot on"
"MA200-0420","42907","71","1","1.10","1.6","2023-07-14T19:35:00","120","2023/07/14","19:35:00","-15.795682966709137","35.002733833156526","0.2","13","300","64","41","-1072","-26903","-556","11","150","149.51","116.78","32.73","19.01","55.4","9.87","90760","19.56","DUALSPOT-UV-BLUE-GREEN-RED-IR","511791","600725","905436","46.371088","16.642963","0.010226","673160","821732","836482","30.451680","9.957693","0.011167","691078","816696","833458","25.516246","7.971340","0.010678","738015","832511","888850","20.356778","6.006326","0.011248","692308","872203","962787","13.194340","3.503749","-0.004021","2364","3731","4497","1986","2675","3010","1912","2404","2628","1897","2295","2461","2062","1985","1958","DualSpot on"
"MA200-0420","42908","71","1","1.10","1.6","2023-07-14T19:40:00","120","2023/07/14","19:40:00","-15.795670688152313","35.00273266597651","0.2","13","300","64","42","-1108","-27016","-364","11","150","149.82","116.74","33.08","19.26","54.7","9.90","90764","19.75","DUALSPOT-UV-BLUE-GREEN-RED-IR","510388","600659","907177","46.836360","16.845154","0.009707","671995","822015","837815","30.778194","10.078420","0.010138","685904","812085","829508","25.798388","8.067770","0.008950","737951","833773","890879","20.590818","6.082181","0.008239","692424","873478","964609","13.370274","3.549512","-0.009387","2340","3590","4292","2073","2705","3013","2006","2420","2608","2011","2300","2422","2105","1932","1870","DualSpot on"
"MA200-0420","42909","71","1","1.10","1.6","2023-07-14T19:45:00","120","2023/07/14","19:45:00","-15.795605480670929","35.00276399985887","0.1","13","300","64","42","-1145","-26875","-812","11","150","149.56","117.02","32.54","19.44","54.0","9.90","90768","19.88","DUALSPOT-UV-BLUE-GREEN-RED-IR","505967","597355","904384","47.396696","17.090958","0.010014","667429","818611","835728","31.210520","10.246936","0.011993","685306","813359","832018","26.182938","8.210656","0.012558","732648","829524","887391","20.919090","6.198738","0.013499","691612","873981","965920","13.619282","3.625437","0.008537","2812","4436","5353","2738","3839","4377","2728","3645","4064","2814","3593","3921","2972","3259","3363","DualSpot on"
"MA200-0420","42910","71","1","1.10","1.6","2023-07-14T19:50:00","120","2023/07/14","19:50:00","-15.79558914899826","35.00279733305797","0.1","13","300","64","43","-992","-26916","-396","11","150","150.07","116.65","33.42","19.59","53.5","9.88","90756","20.06","DUALSPOT-UV-BLUE-GREEN-RED-IR","505408","598630","908603","47.971296","17.340836","0.009333","668064","821698","840342","31.666590","10.420602","0.010388","684680","814745","834663","26.590536","8.357250","0.010199","733174","832059","891146","21.269146","6.318432","0.010140","691738","875685","968636","13.881649","3.708591","0.009109","2893","4391","5239","2898","3851","4319","2901","3641","3980","3010","3592","3838","3142","3475","3596","DualSpot on"
"MA200-0420","42911","71","1","1.10","1.6","2023-07-14T19:55:00","120","2023/07/14","19:55:00","-15.79566514492035","35.00274599972181","0.2","13","300","64","44","-688","-27275","-239","11","150","150.02","116.37","33.65","19.69","53.1","9.86","90760","20.06","DUALSPOT-UV-BLUE-GREEN-RED-IR","504270","598685","910267","48.384832","17.516494","0.008754","666222","821005","840567","31.971600","10.532660","0.008988","679573","810052","830635","26.860810","8.448760","0.007425","733151","833327","893134","21.496288","6.389824","0.005115","687239","871073","963935","14.048122","3.751391","-0.012702","2087","3065","3621","1943","2468","2726","1928","2257","2408","1958","2128","2200","1998","1776","1695","DualSpot on"
"MA200-0420","42912","71","1","1.10","1.6","2023-07-14T20:00:00","120","2023/07/14","20:00:00","-15.795634090900421","35.002758332993835","0.3","13","300","64","44","-940","-27080","-56","11","150","149.67","116.78","32.88","19.71","52.8","9.80","90768","20.06","DUALSPOT-UV-BLUE-GREEN-RED-IR","502443","597804","910447","48.766816","17.681930","0.009386","659637","814274","834533","32.244838","10.635023","0.010241","678173","809654","830890","27.095952","8.532096","0.010113","731665","832726","893052","21.689022","6.452509","0.008336","685931","870266","963381","14.183971","3.788821","-0.002133","1921","2954","3542","1734","2307","2589","1671","2103","2302","1655","1912","2021","1625","1590","1577","DualSpot on"
"MA200-0420","42913","71","1","1.10","1.6","2023-07-14T20:05:00","120","2023/07/14","20:05:00","-15.795608341693878","35.0027721663937","0.3","13","300","64","45","-1012","-27016","-44","11","150","150.02","116.47","33.55","19.77","52.7","9.82","90768","20.13","DUALSPOT-UV-BLUE-GREEN-RED-IR","497774","593554","905523","49.161044","17.856872","0.009340","660049","816131","837297","32.514488","10.737747","0.009997","677637","810261","832209","27.329134","8.616199","0.009848","725849","827135","887621","21.879680","6.517689","0.009607","686110","871308","964943","14.318356","3.828338","0.001937","1988","3062","3675","1716","2269","2542","1662","2081","2274","1642","1949","2079","1611","1645","1657","DualSpot on"
"MA200-0420","42914","71","1","1.10","1.6","2023-07-14T20:10:00","120","2023/07/14","20:10:00","-15.79564219713211","35.002720332937315","0.0","13","300","64","46","-1052","-26991","236","11","150","149.44","116.19","33.25","19.77","52.6","9.81","90776","20.06","DUALSPOT-UV-BLUE-GREEN-RED-IR","494795","591366","903833","49.570532","18.034664","0.009049","656766","813549","835506","32.797542","10.843625","0.009594","675600","809067","831680","27.573634","8.701439","0.008775","723526","825609","886595","22.081162","6.581671","0.006129","684691","870353","964266","14.457668","3.868294","0.000225","2070","3141","3753","1805","2360","2635","1747","2128","2304","1739","1930","2011","1674","1678","1680","DualSpot on"
"MA200-0420","42915","71","1","1.10","1.6","2023-07-14T20:15:00","120","2023/07/14","20:15:00","-15.795699119567871","35.00276166643016","0.1","13","300","64","46","-963","-26968","-880","11","150","149.89","116.43","33.46","19.77","52.6","9.81","90780","20.06","DUALSPOT-UV-BLUE-GREEN-RED-IR","493383","590726","904104","49.890332","18.176560","0.009244","655456","813060","835743","33.024196","10.928832","0.009550","674275","808494","831664","27.769178","8.772022","0.009809","722545","825351","886780","22.243788","6.635780","0.008256","683667","869757","963885","14.567741","3.900141","0.000635","1613","2491","2994","1443","1887","2107","1394","1751","1916","1401","1622","1716","1320","1329","1333","DualSpot on"
"MA200-0420","42916","71","1","1.10","1.6","2023-07-14T20:20:00","120","2023/07/14","20:20:00","-15.795624375343323","35.002813833067194","0.2","13","300","64","47","-951","-26956","-304","11","150","150.41","116.59","33.82","19.80","52.6","9.83","90784","20.19","DUALSPOT-UV-BLUE-GREEN-RED-IR","492478","590677","905289","50.201904","18.315738","0.009152","655144","813768","837135","33.240334","11.009501","0.009025","673454","808461","832233","27.954522","8.838386","0.009129","721784","825360","887206","22.395862","6.686574","0.007927","683637","870402","964912","14.674809","3.931141","-0.000176","1569","2417","2903","1374","1768","1963","1319","1629","1772","1308","1506","1591","1282","1280","1279","DualSpot on"
"MA200-0420","42917","71","1","1.10","1.6","2023-07-14T20:25:00","120","2023/07/14","20:25:00","-15.79564768075943","35.00274433288723","0.0","13","300","68","48","-1028","-26991","-16","12","150","150.28","116.94","33.33","19.80","52.7","9.84","90792","20.06","DUALSPOT-UV-BLUE-GREEN-RED-IR","815489","717007","910216","0.000000","0.000000","0.000000","913239","912229","841087","0.000000","0.000000","0.000000","886392","881781","830549","0.000000","0.000000","0.000000","907268","889060","893201","0.000000","0.000000","0.000000","788772","903696","963742","0.000000","0.000000","0.000000","","","","","","","","","","","","","","","","Tape advance-DualSpot on"
"MA200-0420","42918","71","1","1.10","1.6","2023-07-14T20:30:00","120","2023/07/14","20:30:00","-15.795678198337555","35.002702665980905","0.2","14","300","68","48","-1012","-26891","-92","12","150","149.89","116.82","33.06","19.77","52.6","9.81","90804","20.06","DUALSPOT-UV-BLUE-GREEN-RED-IR","809583","714702","908808","0.000000","0.000000","0.000000","909686","910379","840093","0.000000","0.000000","0.000000","888850","885521","834573","0.000000","0.000000","0.000000","903943","886736","891286","0.000000","0.000000","0.000000","792264","908340","968892","0.000000","0.000000","0.000000","","","","","","","","","","","","","","","","Tape advance-DualSpot on"
"MA200-0420","42919","71","1","1.10","1.6","2023-07-14T20:35:00","120","2023/07/14","20:35:00","-15.795621573925018","35.00283733312972","0.2","14","300","64","49","-1088","-26872","-608","12","150","149.89","116.86","33.02","19.77","52.5","9.78","90812","20.13","DUALSPOT-UV-BLUE-GREEN-RED-IR","803371","713958","910380","0.935734","0.272750","0.000000","899779","903262","834619","0.434052","0.126350","0.000000","886956","885741","835571","0.331020","0.094914","0.000000","903150","887450","892609","0.234353","0.067299","0.000000","786766","902935","963433","0.133390","0.032965","0.000000","4703","4851","4703","2753","2836","2753","2351","2386","2351","2011","2044","2011","1594","1394","1594","DualSpot on"
"MA200-0420","42920","71","1","1.10","1.6","2023-07-14T20:40:00","120","2023/07/14","20:40:00","-15.795640289783478","35.00285533303395","0.1","13","300","64","51","-970","-26987","8","12","150","150.34","116.67","33.68","19.69","52.6","9.73","90828","20.00","DUALSPOT-UV-BLUE-GREEN-RED-IR","792131","708536","905862","1.848995","0.539276","0.000000","898420","904707","836971","0.869840","0.249981","0.000000","880554","881438","832355","0.666725","0.190395","0.000000","896751","882678","888395","0.473904","0.135004","0.000000","787746","904945","965916","0.261978","0.067161","0.000000","4597","4648","4597","2769","2721","2769","2388","2353","2388","2060","2017","2060","1539","1418","1539","DualSpot on"
"MA200-0420","42921","71","1","1.10","1.6","2023-07-14T20:45:00","120","2023/07/14","20:45:00","-15.795619189739227","35.0028124996461","0.2","13","300","64","52","-928","-26947","-100","12","150","149.52","116.67","32.85","19.71","52.9","9.83","90832","20.06","DUALSPOT-UV-BLUE-GREEN-RED-IR","788677","709552","909377","2.676692","0.786628","0.000000","898414","907333","840371","1.275539","0.364727","0.000000","879860","882766","834298","0.981533","0.277894","0.000000","897512","884868","891187","0.701749","0.198372","0.000000","784067","901570","962655","0.392005","0.100988","0.000000","4166","4422","4166","2577","2589","2577","2240","2211","2240","1959","1935","1959","1556","1438","1556","DualSpot on"
"MA200-0420","42922","71","1","1.10","1.6","2023-07-14T20:50:00","120","2023/07/14","20:50:00","-15.7957044839859","35.00268099969253","0.3","13","300","64","53","-937","-26970","-408","12","150","149.47","116.54","32.93","19.68","53.3","9.90","90832","20.00","DUALSPOT-UV-BLUE-GREEN-RED-IR","781430","705988","906438","3.281184","0.966976","0.022315","893134","904032","838068","1.588118","0.453776","0.000000","877080","881507","833698","1.227539","0.348031","0.000000","894626","883184","889929","0.881844","0.247222","0.000000","787127","905773","967379","0.496969","0.127862","0.000000","3046","3216","3287","1988","2004","1988","1752","1768","1752","1550","1488","1550","1258","1139","1258","DualSpot on"
"MA200-0420","42923","71","1","1.10","1.6","2023-07-14T20:55:00","120","2023/07/14","20:55:00","-15.795588195323944","35.00279499986209","0.2","13","300","64","54","-987","-26987","-416","12","150","150.08","116.60","33.49","19.68","53.5","9.97","90832","20.06","DUALSPOT-UV-BLUE-GREEN-RED-IR","778813","706045","907897","3.779226","1.117004","0.017138","891868","904434","839018","1.847547","0.526005","0.000000","875648","881344","834007","1.430970","0.404441","0.000000","894119","883663","890763","1.033711","0.288778","0.000000","786859","906080","967938","0.586189","0.150681","0.000000","2508","2631","2682","1649","1598","1649","1448","1398","1448","1306","1244","1306","1068","951","1068","DualSpot on"
"MA200-0420","42924","71","1","1.10","1.6","2023-07-14T21:00:00","120","2023/07/14","21:00:00","-15.795646369457245","35.002642166335136","0.0","13","300","64","55","-1012","-27040","184","12","150","149.81","116.33","33.48","19.71","53.4","9.98","90824","20.06","DUALSPOT-UV-BLUE-GREEN-RED-IR","771371","704695","909276","4.872707","1.456861","0.021029","888751","904542","840368","2.347028","0.670528","0.000000","873269","881425","835002","1.811629","0.511294","0.000000","892560","883928","891726","1.310271","0.364990","0.000000","781369","900839","962760","0.746799","0.190447","0.000000","5521","5962","6151","3183","3200","3183","2716","2650","2716","2385","2284","2385","1928","1659","1928","DualSpot on"
"MA200-0420","42925","71","1","1.10","1.6","2023-07-14T21:05:00","120","2023/07/14","21:05:00","-15.79565417766571","35.002702499506995","0.2","12","300","64","56","-1016","-26963","-368","12","150","150.69","116.49","34.20","19.74","53.2","9.95","90816","20.06","DUALSPOT-UV-BLUE-GREEN-RED-IR","759136","699998","907071","6.239155","1.883050","0.013164","879206","899770","837821","3.129148","0.897044","-0.006126","865562","877629","832892","2.446943","0.690984","0.000000","886140","880647","889624","1.797689","0.498935","0.000000","782401","904031","966927","1.042575","0.268165","0.000000","6889","7319","7506","4977","4910","4883","4527","4362","4527","4197","3929","4197","3546","3174","3546","DualSpot on"
"MA200-0420","42926","71","1","1.10","1.6","2023-07-14T21:10:00","120","2023/07/14","21:10:00","-15.795667827129364","35.002657666336745","0.1","12","300","64","57","-1120","-26952","-244","12","150","150.28","116.82","33.45","19.70","53.2","9.89","90816","19.94","DUALSPOT-UV-BLUE-GREEN-RED-IR","753740","697822","905843","6.827169","2.065940","0.016108","875913","898674","837655","3.490817","1.000506","-0.000404","862499","876348","832361","2.742833","0.773453","0.000000","882770","878756","888224","2.026656","0.560643","0.000000","780947","903274","966404","1.182445","0.302546","0.000000","2956","3211","3321","2295","2292","2291","2102","2046","2102","1966","1850","1966","1672","1435","1672","DualSpot on"
"MA200-0420","42927","71","1","1.10","1.6","2023-07-14T21:15:00","120","2023/07/14","21:15:00","-15.795669496059418","35.0027094995603","0.2","12","300","64","57","-975","-27112","-225","12","150","149.95","116.43","33.52","19.61","53.2","9.83","90816","19.81","DUALSPOT-UV-BLUE-GREEN-RED-IR","754233","700185","909963","7.217209","2.183061","0.008032","876864","901196","840567","3.727596","1.067978","-0.003925","863898","879019","835350","2.937996","0.829011","0.000000","886099","883020","892919","2.176549","0.601148","0.000000","778597","901141","964375","1.273075","0.325825","0.000000","1967","2052","2088","1507","1492","1485","1391","1375","1391","1291","1212","1291","1087","970","1087","DualSpot on"
"MA200-0420","42928","71","1","1.10","1.6","2023-07-14T21:20:00","120","2023/07/14","21:20:00","-15.795658349990845","35.002711332868785","0.2","12","300","64","58","-987","-27104","-220","12","150","149.38","116.35","33.03","19.52","53.3","9.76","90804","19.69","DUALSPOT-UV-BLUE-GREEN-RED-IR","748881","696515","905965","7.486891","2.266353","0.014977","871798","897028","837068","3.893566","1.117528","0.017378","859819","875690","832507","3.074300","0.868701","0.011309","881844","879449","889535","2.281420","0.630697","0.000000","780677","903949","967487","1.332347","0.341275","0.000000","1361","1481","1533","1057","1112","1134","972","997","1007","904","897","904","711","653","711","DualSpot on"
"MA200-0420","42929","71","1","1.10","1.6","2023-07-14T21:25:00","120","2023/07/14","21:25:00","-15.795621991157532","35.00278199953027","0.2","12","300","64","59","-1028","-27014","-82","12","150","150.34","116.55","33.79","19.45","53.3","9.71","90800","19.69","DUALSPOT-UV-BLUE-GREEN-RED-IR","746018","695171","905015","7.765819","2.355922","0.017206","869763","896057","836643","4.076194","1.172835","0.014396","858172","874949","832214","3.227657","0.915181","0.018400","879025","877350","887767","2.402629","0.667092","0.000000","779619","903225","966961","1.408725","0.363144","0.000000","1405","1556","1622","1161","1213","1234","1092","1141","1161","1043","1080","1043","915","904","915","DualSpot on"
"MA200-0420","42930","71","1","1.10","1.6","2023-07-14T21:30:00","120","2023/07/14","21:30:00","-15.795839071273804","35.002545833121985","0.8","12","300","64","59","-1008","-26972","288","12","150","150.41","117.02","33.39","19.36","53.6","9.69","90792","19.56","DUALSPOT-UV-BLUE-GREEN-RED-IR","748510","698359","909640","7.944599","2.408411","0.005041","872660","899797","840393","4.191672","1.205128","-0.006814","855372","872684","830256","3.321254","0.940668","-0.020429","882233","881056","891651","2.473396","0.684692","0.000000","777437","900963","964639","1.447471","0.373803","0.000000","897","923","934","731","717","711","664","633","621","606","528","606","462","445","462","DualSpot on"
"MA200-0420","42931","71","1","1.10","1.6","2023-07-14T21:35:00","120","2023/07/14","21:35:00","-15.79568749666214","35.002762832911685","0.1","12","300","64","60","-1060","-26984","-200","12","150","150.60","116.78","33.82","19.27","53.8","9.67","90784","19.50","DUALSPOT-UV-BLUE-GREEN-RED-IR","744378","695345","906210","8.118467","2.462171","0.010919","868281","895973","837135","4.303426","1.238555","0.010265","858203","876149","833793","3.415054","0.968951","0.015943","880186","879427","890215","2.545419","0.706748","0.000000","775619","899072","962702","1.486143","0.385022","0.000000","874","933","959","709","732","742","666","694","705","618","654","618","462","463","462","DualSpot on"
"MA200-0420","42932","71","1","1.10","1.6","2023-07-14T21:40:00","120","2023/07/14","21:40:00","-15.795776128768921","35.00266816630028","0.2","12","300","64","60","-1072","-26888","-56","12","150","149.89","117.18","32.71","19.20","54.0","9.66","90788","19.44","DUALSPOT-UV-BLUE-GREEN-RED-IR","745453","697201","909154","8.298477","2.517442","0.015133","869604","898166","839479","4.429704","1.274484","0.005979","853531","872035","830151","3.521103","0.999301","0.009710","874324","874129","885038","2.628933","0.729327","0.000000","777499","901588","965551","1.537084","0.398912","0.000000","902","992","1031","798","814","820","751","770","777","715","692","715","607","593","607","DualSpot on"
"MA200-0420","42933","71","1","1.10","1.6","2023-07-14T21:45:00","120","2023/07/14","21:45:00","-15.795644700527191","35.00276783318259","0.1","12","300","64","61","-1068","-26947","-36","12","150","150.41","116.86","33.54","19.15","54.2","9.66","90784","19.38","DUALSPOT-UV-BLUE-GREEN-RED-IR","745830","698263","910992","8.451565","2.568500","0.022332","863956","892956","834884","4.535943","1.308143","0.028055","853478","872523","830828","3.612238","1.028335","0.036859","875028","875303","886399","2.701152","0.751935","0.000000","777979","902432","966581","1.580768","0.413032","0.000000","769","894","948","673","743","772","647","718","746","620","676","620","522","588","522","DualSpot on"
"MA200-0420","42934","71","1","1.10","1.6","2023-07-14T21:50:00","120","2023/07/14","21:50:00","-15.795664966106415","35.00275683309883","0.1","12","300","64","62","-1004","-26916","-560","12","150","149.82","116.63","33.19","19.07","54.5","9.66","90792","19.25","DUALSPOT-UV-BLUE-GREEN-RED-IR","742440","695603","907794","8.556429","2.599006","0.003594","866060","895621","837509","4.605764","1.326370","-0.028574","856618","876106","834379","3.669893","1.043814","-0.023453","879603","880149","891405","2.745913","0.762282","0.000000","776191","900487","964543","1.603237","0.419007","0.000000","528","539","544","443","407","392","410","387","377","385","312","385","269","251","269","DualSpot on"
"MA200-0420","42935","71","1","1.10","1.6","2023-07-14T21:55:00","120","2023/07/14","21:55:00","-15.795695006847382","35.00274533312768","0.1","12","300","64","63","-950","-27126","-434","12","150","149.34","116.87","32.47","18.99","54.8","9.68","90796","19.19","DUALSPOT-UV-BLUE-GREEN-RED-IR","739317","693095","904771","8.643280","2.625875","0.016195","863510","893320","835530","4.664773","1.344550","0.028399","854340","874043","832546","3.718239","1.058477","0.030486","877129","877883","889242","2.782197","0.771216","0.000000","774589","898744","962742","1.622823","0.424411","0.000000","436","485","507","374","414","431","343","374","387","311","276","311","234","232","234","DualSpot on"
"MA200-0420","42936","71","1","1.10","1.6","2023-07-14T22:00:00","120","2023/07/14","22:00:00","-15.795644521713257","35.002836499596015","0.1","11","300","64","64","-1033","-26925","-320","12","150","149.63","116.03","33.59","18.94","55.0","9.69","90808","19.19","DUALSPOT-UV-BLUE-GREEN-RED-IR","737899","692181","903824","8.733322","2.655454","0.018572","869020","899432","841403","4.728007","1.364493","0.023622","853316","873368","832019","3.771895","1.075065","0.022987","874944","875932","887372","2.825023","0.785924","0.000000","778341","903282","967703","1.648445","0.432965","0.000000","455","517","544","403","440","454","383","409","420","370","439","370","308","355","308","DualSpot on"
"MA200-0420","42937","71","1","1.10","1.6","2023-07-14T22:05:00","120","2023/07/14","22:05:00","-15.795648992061615","35.002805499592796","0.1","11","300","64","64","-1020","-27008","-140","12","150","150.60","117.02","33.58","18.87","55.2","9.69","90800","19.13","DUALSPOT-UV-BLUE-GREEN-RED-IR","742269","696779","910140","8.835379","2.687179","0.012093","860258","890839","833583","4.804599","1.386642","0.002235","851364","871766","830660","3.838455","1.094341","0.003305","879573","880930","892554","2.878972","0.799909","0.000000","777404","902411","966828","1.679216","0.441650","0.000000","512","554","573","485","488","490","472","476","478","462","417","462","367","361","367","DualSpot on"
"MA200-0420","42938","71","1","1.10","1.6","2023-07-14T22:10:00","120","2023/07/14","22:10:00","-15.79575526714325","35.00262466655113","0.3","12","300","64","65","-916","-27147","-36","12","150","150.08","116.94","33.14","18.88","55.3","9.72","90800","19.13","DUALSPOT-UV-BLUE-GREEN-RED-IR","740599","696748","911175","9.168728","2.800588","0.024436","865150","897613","840676","5.081207","1.477206","0.035362","850678","872540","832095","4.087078","1.174974","0.041245","872805","875436","887617","3.089493","0.867604","0.051067","777311","903271","968174","1.829956","0.483832","0.000000","1674","2010","2157","1753","2025","2137","1765","2020","2122","1806","2049","2144","1800","1778","1800","DualSpot on"
"MA200-0420","42939","71","1","1.10","1.6","2023-07-14T22:15:00","120","2023/07/14","22:15:00","-15.795690953731537","35.00272383284755","0.5","12","300","64","65","-904","-27068","-296","12","150","149.81","116.70","33.10","18.87","55.5","9.76","90800","19.13","DUALSPOT-UV-BLUE-GREEN-RED-IR","736382","694535","909317","9.541098","2.920704","0.017298","861502","895757","839730","5.397743","1.572531","0.014828","847023","870527","830889","4.372167","1.259571","0.013909","869977","874103","886837","3.332547","0.937619","0.006339","775204","901923","967196","2.000316","0.532603","0.000000","1874","2131","2244","2010","2134","2185","2028","2121","2159","2089","2121","2134","2039","2058","2039","DualSpot on"
"MA200-0420","42940","71","1","1.10","1.6","2023-07-14T22:20:00","120","2023/07/14","22:20:00","-15.795678198337555","35.00272083282471","0.2","12","300","64","66","-932","-27119","56","12","150","150.41","117.18","33.23","18.87","55.5","9.77","90800","19.13","DUALSPOT-UV-BLUE-GREEN-RED-IR","734530","694238","909920","9.854776","3.026550","0.021835","859536","895355","840074","5.662560","1.656902","0.026256","845138","870053","831006","4.612523","1.332593","0.019777","867349","872690","885993","3.535271","0.999029","0.024581","774411","901956","967614","2.141763","0.571613","0.000000","1572","1871","2003","1675","1882","1967","1702","1824","1873","1735","1854","1900","1686","1640","1686","DualSpot on"
"MA200-0420","42941","71","1","1.10","1.6","2023-07-14T22:25:00","120","2023/07/14","22:25:00","-15.795674920082092","35.00267499987967","0.1","13","300","64","66","-970","-26916","-29","12","150","150.34","117.06","33.28","18.87","55.5","9.76","90800","19.13","DUALSPOT-UV-BLUE-GREEN-RED-IR","731950","693874","910919","10.313808","3.185278","0.023106","857222","895338","841102","6.056386","1.782567","0.024394","842343","869287","831248","4.971093","1.446026","0.027588","865311","872491","886641","3.842244","1.093954","0.028411","772307","900849","967029","2.356098","0.634553","0.000000","2303","2801","3023","2494","2799","2926","2543","2829","2947","2630","2861","2953","2557","2641","2557","DualSpot on"
"MA200-0420","42942","71","1","1.10","1.6","2023-07-14T22:30:00","120","2023/07/14","22:30:00","-15.795682966709137","35.00266599957831","0.0","13","300","64","63","-908","-27044","-168","12","150","150.86","115.92","34.95","18.86","55.4","9.74","90812","18.94","DUALSPOT-UV-BLUE-GREEN-RED-IR","726037","689476","905918","10.581213","3.275829","0.014309","850003","889165","835893","6.284344","1.854474","0.009801","842874","871090","833494","5.177873","1.510519","0.008966","867043","875342","889963","4.019438","1.146479","-0.005988","769166","897987","964275","2.481359","0.669251","0.000000","1354","1521","1596","1457","1525","1553","1481","1532","1553","1533","1507","1497","1509","1386","1509","DualSpot on"
"MA200-0420","42943","71","1","1.10","1.6","2023-07-14T22:35:00","120","2023/07/14","22:35:00","-15.795659720897675","35.00273316609673","0.1","13","300","64","57","-951","-27072","-16","12","150","149.44","116.67","32.77","18.36","56.0","9.43","90800","17.19","DUALSPOT-UV-BLUE-GREEN-RED-IR","725804","689761","906429","10.671944","3.291883","-0.107880","849272","888867","835767","6.356162","1.873230","-0.017391","842462","871072","833581","5.241162","1.526636","-0.028964","866375","874930","889679","4.067755","1.158794","-0.036593","768959","897923","964277","2.504478","0.673449","0.000000","456","287","212","456","424","410","450","408","391","415","377","361","276","178","276","DualSpot on"
"MA200-0420","42944","71","1","1.10","1.6","2023-07-14T22:40:00","120","2023/07/14","22:40:00","-15.795636057853699","35.00272166635841","0.1","13","300","64","56","-963","-26944","-372","12","150","149.76","116.63","33.13","17.94","56.7","9.21","90784","16.63","DUALSPOT-UV-BLUE-GREEN-RED-IR","729150","693472","911593","10.778267","3.322281","0.000856","853519","893876","840695","6.446153","1.903016","0.029447","840813","869760","832580","5.318099","1.554555","0.052956","865397","874346","889257","4.130389","1.180287","0.054610","768873","897933","964365","2.529356","0.684983","0.000000","535","538","540","572","666","706","547","699","762","538","650","695","297","486","297","DualSpot on"
"MA200-0420","42945","71","1","1.10","1.6","2023-07-14T22:45:00","120","2023/07/14","22:45:00","-15.795670688152313","35.002749666105956","0.0","13","300","64","55","-908","-26900","-8","12","150","149.65","116.87","32.77","17.58","57.5","9.08","90784","16.25","DUALSPOT-UV-BLUE-GREEN-RED-IR","724976","689948","907115","10.859434","3.340129","-0.041702","848067","888625","835970","6.518030","1.921963","-0.014255","838415","867670","830744","5.381757","1.573270","0.011900","869021","878338","893423","4.179838","1.192569","-0.045541","772055","901680","968479","2.540079","0.691501","0.000000","407","319","280","455","428","417","452","474","483","424","375","356","128","277","128","DualSpot on"
