"Serial number","Datum ID","Session ID","Data format version","Firmware version","App version","Date / time local","Timezone offset (mins)","Date local (yyyy/MM/dd)","Time local (hh:mm:ss)","GPS lat (ddmm.mmmmm)","GPS long (dddmm.mmmmm)","GPS speed (km/h)","GPS sat count","Timebase (s)","Status","Battery remaining (%)","Accel X","Accel Y","Accel Z","Tape position","Flow setpoint (mL/min)","Flow total (mL/min)","Flow1 (mL/min)","Flow2 (mL/min)","Sample temp (C)","Sample RH (%)","Sample dewpoint (C)","Internal pressure (Pa)","Internal temp (C)","Optical config","UV Sen1","UV Sen2","UV Ref","UV ATN1","UV ATN2","UV K","Blue Sen1","Blue Sen2","Blue Ref","Blue ATN1","Blue ATN2","Blue K","Green Sen1","Green Sen2","Green Ref","Green ATN1","Green ATN2","Green K","Red Sen1","Red Sen2","Red Ref","Red ATN1","Red ATN2","Red K","IR Sen1","IR Sen2","IR Ref","IR ATN1","IR ATN2","IR K","UV BC1","UV BC2","UV BCc","Blue BC1","Blue BC2","Blue BCc","Green BC1","Green BC2","Green BCc","Red BC1","Red BC2","Red BCc","IR BC1","IR BC2","IR BCc","Readable status"
"MA200-0420","21742","51","1","1.10","1.4","2023-05-04T07:11:30","120","2023/05/04","07:11:30","-15.800446927547455","35.02832066081464","0.1","13","30","66","89","-19684","9964","9204","11","150","151.58","113.80","37.78","19.95","52.6","9.95","90048","19.13","DUALSPOT-UV-BLUE-GREEN-RED-IR","814721","715596","902328","0.000000","0.000000","0.000000","909903","911781","834839","0.000000","0.000000","0.000000","888660","886589","829775","0.000000","0.000000","0.000000","926357","910344","909736","0.000000","0.000000","0.000000","790569","908836","967884","0.000000","0.000000","0.000000","","","","","","","","","","","","","","","","Start up"
"MA200-0420","21743","51","1","1.10","1.4","2023-05-04T07:12:00","120","2023/05/04","07:12:00","-15.800462543964386","35.02831882610917","0.0","13","30","66","89","-25284","600","1703","11","150","149.76","112.48","37.28","20.00","53.8","10.34","90056","19.38","DUALSPOT-UV-BLUE-GREEN-RED-IR","813001","716322","904038","0.000000","0.000000","0.000000","908488","912662","836109","0.000000","0.000000","0.000000","887599","887467","831067","0.000000","0.000000","0.000000","903308","889290","889133","0.000000","0.000000","0.000000","785623","904371","963316","0.000000","0.000000","0.000000","","","","","","","","","","","","","","","","Start up"
"MA200-0420","21744","51","1","1.10","1.4","2023-05-04T07:12:30","120","2023/05/04","07:12:30","-15.800451099872589","35.02832616120577","0.1","13","30","66","88","-25172","588","1544","11","150","148.77","112.44","36.33","20.04","54.6","10.60","90060","19.50","DUALSPOT-UV-BLUE-GREEN-RED-IR","812072","717240","905986","0.000000","0.000000","0.000000","907784","913699","837607","0.000000","0.000000","0.000000","886538","887949","831949","0.000000","0.000000","0.000000","903079","890337","890548","0.000000","0.000000","0.000000","785871","905514","964742","0.000000","0.000000","0.000000","","","","","","","","","","","","","","","","Start up"
"MA200-0420","21745","51","1","1.10","1.4","2023-05-04T07:13:00","120","2023/05/04","07:13:00","-15.800441086292267","35.028329495340586","0.1","13","30","66","88","-25172","604","1372","11","150","150.15","112.73","37.42","20.10","55.2","10.83","90060","19.56","DUALSPOT-UV-BLUE-GREEN-RED-IR","810480","718733","909336","0.000000","0.000000","0.000000","907302","916295","841035","0.000000","0.000000","0.000000","885298","889348","834129","0.000000","0.000000","0.000000","902064","891539","892568","0.000000","0.000000","0.000000","786196","907454","967374","0.000000","0.000000","0.000000","","","","","","","","","","","","","","","","Start up"
"MA200-0420","21746","51","1","1.10","1.4","2023-05-04T07:13:30","120","2023/05/04","07:13:30","-15.800436019897461","35.028321826830506","0.0","13","30","66","88","-25180","620","1508","11","150","149.76","113.11","36.64","20.14","55.8","11.02","90064","19.63","DUALSPOT-UV-BLUE-GREEN-RED-IR","808180","718186","909442","0.000000","0.000000","0.000000","904785","915240","840604","0.000000","0.000000","0.000000","883560","888902","834189","0.000000","0.000000","0.000000","893521","884179","885569","0.000000","0.000000","0.000000","785442","907373","967536","0.000000","0.000000","0.000000","","","","","","","","","","","","","","","","Start up"
"MA200-0420","21747","51","1","1.10","1.4","2023-05-04T07:14:00","120","2023/05/04","07:14:00","-15.800431966781616","35.028320325538516","0.0","13","30","64","88","-25160","600","1528","11","150","150.34","113.07","37.27","20.17","56.2","11.16","90064","19.63","DUALSPOT-UV-BLUE-GREEN-RED-IR","804478","716874","908778","0.000000","0.000000","0.000000","901482","913867","840088","0.000000","0.000000","0.000000","874515","881473","827873","0.000000","0.000000","0.000000","898106","890153","892154","0.000000","0.000000","0.000000","783007","905601","966014","0.000000","0.000000","0.000000","","","","","","","","","","","","","","","",""
"MA200-0420","21748","51","1","1.10","1.4","2023-05-04T07:14:30","120","2023/05/04","07:14:30","-15.800431489944458","35.028318993747234","0.0","13","30","64","88","-25120","596","1476","11","150","149.69","112.62","37.07","20.20","56.5","11.29","90064","19.63","DUALSPOT-UV-BLUE-GREEN-RED-IR","803626","717843","911021","0.366909","0.111089","0.000000","893507","907573","834986","0.289326","0.083864","0.000000","874306","882773","829681","0.256269","0.072842","0.000000","890482","883882","886381","0.214344","0.060715","0.000000","783715","907341","968229","0.146667","0.039259","0.000000","19135","17601","19135","19044","16770","19044","18891","16313","18891","19094","16431","19094","18192","14794","18192",""
"MA200-0420","21749","51","1","1.10","1.4","2023-05-04T07:15:00","120","2023/05/04","07:15:00","-15.800423204898834","35.02832282707095","0.0","13","30","64","88","-25172","596","1572","11","150","149.74","112.81","36.92","20.24","56.8","11.40","90068","19.69","DUALSPOT-UV-BLUE-GREEN-RED-IR","795975","712399","904795","0.649142","0.193000","0.000000","893288","908735","836561","0.508618","0.144947","0.000000","872918","882587","829928","0.450080","0.126558","0.000000","889906","884307","887169","0.374180","0.104437","0.000000","778369","901840","962622","0.253566","0.066522","0.000000","14694","13029","14694","14410","12263","14410","14263","12077","14263","14214","11879","14214","13237","10314","13237",""
"MA200-0420","21750","51","1","1.10","1.4","2023-05-04T07:15:30","120","2023/05/04","07:15:30","-15.800411522388458","35.02833949774504","0.0","13","30","64","88","-25200","644","1588","11","150","149.87","112.65","37.23","20.27","57.2","11.51","90064","19.69","DUALSPOT-UV-BLUE-GREEN-RED-IR","794391","712020","904847","0.861801","0.255088","0.000000","891299","907768","836014","0.674372","0.191569","0.000000","871799","882363","830047","0.595193","0.165170","0.000000","889007","884176","887303","0.495773","0.136658","0.000000","777853","901786","962709","0.333272","0.085955","0.000000","11088","9796","11088","10908","9284","10908","10695","8611","10695","10829","8683","10829","9884","7292","9884",""
"MA200-0420","21751","51","1","1.10","1.4","2023-05-04T07:16:00","120","2023/05/04","07:16:00","-15.800411522388458","35.02831915952265","0.0","13","30","64","88","-25183","562","1537","11","150","149.74","112.73","37.01","20.30","57.4","11.60","90064","19.69","DUALSPOT-UV-BLUE-GREEN-RED-IR","793050","711885","905300","1.078609","0.320369","0.000000","890365","907901","836554","0.844228","0.240063","0.000000","871301","882841","830817","0.743854","0.205939","0.000000","888579","884523","887982","0.618958","0.170649","0.000000","777364","901784","962933","0.418357","0.106547","0.000000","11296","10361","11296","11169","9714","11169","10948","9146","10948","10963","9214","10963","10543","7773","10543",""
"MA200-0420","21752","51","1","1.10","1.4","2023-05-04T07:16:30","120","2023/05/04","07:16:30","-15.8004350066185","35.0283159930259","0.0","13","30","64","88","-25114","642","1537","11","150","150.34","112.91","37.43","20.32","57.7","11.69","90068","19.75","DUALSPOT-UV-BLUE-GREEN-RED-IR","791935","712183","906422","1.331016","0.398555","0.000000","889992","908854","837930","1.043236","0.300914","0.000000","869588","882211","830684","0.918996","0.259667","0.000000","886877","883790","887659","0.765715","0.216526","0.000000","776576","901527","962947","0.516176","0.135078","0.000000","13129","12269","13129","13065","12052","13065","12877","11917","12877","13039","12297","13039","12101","10648","12101",""
"MA200-0420","21753","51","1","1.10","1.4","2023-05-04T07:17:00","120","2023/05/04","07:17:00","-15.800455510616302","35.02831199392676","0.1","13","30","64","87","-24892","-832","3784","11","150","149.69","112.64","37.05","20.35","58.0","11.80","90068","19.75","DUALSPOT-UV-BLUE-GREEN-RED-IR","789023","711357","906251","1.664459","0.495611","0.000000","887395","908061","837862","1.308721","0.372642","0.000000","867915","882094","831134","1.153636","0.323176","0.000000","886541","884769","889129","0.960626","0.268533","0.000000","776176","902004","963823","0.650268","0.172173","0.000000","17387","15385","17387","17473","14350","17473","17294","14230","17294","17360","14081","17360","16630","13985","16630",""
"MA200-0420","21754","51","1","1.10","1.4","2023-05-04T07:17:30","120","2023/05/04","07:17:30","-15.800479710102081","35.02830632776022","0.2","13","30","64","87","-24864","-840","3876","11","150","149.82","112.32","37.50","20.40","58.3","11.92","90072","19.81","DUALSPOT-UV-BLUE-GREEN-RED-IR","787127","711764","908057","2.119674","0.636426","0.000000","885891","908762","839395","1.674354","0.479430","0.000000","866382","882501","832264","1.478820","0.416975","0.000000","885286","885183","890200","1.233746","0.346732","0.000000","775331","902201","964506","0.836349","0.222169","0.000000","23804","22056","23804","24131","21111","24131","24036","20767","24036","24395","20921","24395","23143","18624","23143",""
"MA200-0420","21755","51","1","1.10","1.4","2023-05-04T07:18:00","120","2023/05/04","07:18:00","-15.800456702709198","35.02829932793975","0.0","13","30","64","86","-24850","-858","4070","11","150","150.15","112.44","37.71","20.45","58.4","12.01","90064","19.81","DUALSPOT-UV-BLUE-GREEN-RED-IR","784351","710562","907314","2.382043","0.721769","0.000000","882994","907106","838425","1.882922","0.545550","0.000000","863824","881047","831394","1.662671","0.474023","0.000000","881936","882833","888237","1.388396","0.393698","0.000000","773494","900764","963309","0.943511","0.255002","0.000000","13705","13293","13705","13751","12999","13751","13575","12560","13575","13799","12496","13799","13313","12163","13313",""
"MA200-0420","21756","51","1","1.10","1.4","2023-05-04T07:18:30","120","2023/05/04","07:18:30","-15.800423800945282","35.02830049395561","0.0","13","30","64","86","-24864","-848","3780","11","150","149.84","112.02","37.81","20.47","58.5","12.07","90064","19.88","DUALSPOT-UV-BLUE-GREEN-RED-IR","784926","712338","910399","2.665680","0.816810","0.000000","883640","909094","840844","2.108109","0.620788","0.000000","864635","883009","833764","1.864451","0.539606","0.000000","884684","886505","892431","1.558085","0.447993","0.000000","775158","903390","966412","1.060628","0.289796","0.000000","14871","14764","14871","14901","14751","14901","14954","14400","14954","15197","14406","15197","14604","12855","14604",""
"MA200-0420","21757","51","1","1.10","1.4","2023-05-04T07:19:00","120","2023/05/04","07:19:00","-15.800422489643097","35.02829582802951","0.0","13","30","64","86","-24868","-920","3868","11","150","149.84","112.36","37.47","20.47","58.6","12.07","90064","19.88","DUALSPOT-UV-BLUE-GREEN-RED-IR","778135","707233","904531","2.882741","0.887641","0.000000","876859","903176","835838","2.280908","0.674224","0.000000","864221","883518","834641","2.016884","0.587636","0.000000","883771","886418","892712","1.687256","0.486963","0.000000","774397","903122","966389","1.151401","0.315752","0.000000","11346","11103","11346","11400","10571","11400","11262","10641","11262","11533","10434","11533","11285","9676","11285",""
"MA200-0420","21758","51","1","1.10","1.4","2023-05-04T07:19:30","120","2023/05/04","07:19:30","-15.800428211688995","35.028313824906945","0.0","13","30","64","86","-24820","-783","3933","11","150","149.75","112.59","37.16","20.47","58.5","12.07","90068","19.94","DUALSPOT-UV-BLUE-GREEN-RED-IR","775599","706064","903768","3.128597","0.969402","0.003415","874841","902237","835529","2.473360","0.738985","0.000000","861911","882178","833844","2.188372","0.643944","0.000000","881814","885299","891993","1.831060","0.534764","0.000000","773286","902414","965967","1.254337","0.347123","0.000000","12826","12921","12964","12672","12918","12672","12645","12579","12645","12814","12904","12814","12772","11791","12772",""
"MA200-0420","21759","51","1","1.10","1.4","2023-05-04T07:20:00","120","2023/05/04","07:20:00","-15.80042552947998","35.02829966135323","0.0","13","30","64","86","-24840","-840","3852","11","150","150.41","112.16","38.24","20.49","58.5","12.08","90068","20.00","DUALSPOT-UV-BLUE-GREEN-RED-IR","776721","707933","906722","3.321775","1.036319","0.006827","876304","904612","838115","2.626979","0.790036","0.000000","862657","883673","835624","2.325147","0.689816","0.000000","876521","880607","887570","1.947017","0.571989","0.000000","774433","904245","968132","1.336883","0.372478","0.000000","10116","10277","10350","10153","9896","10153","10123","9958","10123","10372","9765","10372","10280","9261","10280",""
"MA200-0420","21760","51","1","1.10","1.4","2023-05-04T07:20:30","120","2023/05/04","07:20:30","-15.80043351650238","35.028291994705796","0.0","13","30","64","86","-24844","-867","3900","11","150","149.38","113.03","36.34","20.54","58.6","12.14","90060","20.00","DUALSPOT-UV-BLUE-GREEN-RED-IR","776850","708879","908374","3.485629","1.083475","-0.051538","876820","906000","839684","2.756875","0.826162","0.000000","857786","879462","831870","2.440542","0.720399","0.000000","877178","881947","889146","2.043801","0.598124","0.000000","770196","899750","963526","1.405813","0.392275","0.000000","8514","7620","7217","8519","7368","8519","8475","6986","8475","8590","7214","8590","8518","7609","8518",""
"MA200-0420","21761","51","1","1.10","1.4","2023-05-04T07:21:00","120","2023/05/04","07:21:00","-15.800428330898285","35.02829299494624","0.1","14","30","64","86","-24840","-855","3855","11","150","149.95","112.40","37.55","20.57","58.8","12.22","90064","20.06","DUALSPOT-UV-BLUE-GREEN-RED-IR","774394","707449","906965","3.654873","1.134599","-0.044138","873667","903597","837782","2.888816","0.861460","0.000000","855965","878303","831065","2.558004","0.751328","0.000000","876050","881437","888878","2.143811","0.624446","0.000000","768747","898496","962296","1.472023","0.408131","0.000000","8843","7996","7615","8702","6968","8702","8676","6838","8676","8926","7032","8926","8228","5898","8228",""
"MA200-0420","21762","51","1","1.10","1.4","2023-05-04T07:21:30","120","2023/05/04","07:21:30","-15.800411343574524","35.02829599566758","0.0","14","30","64","86","-24876","-871","3916","11","150","149.41","112.27","37.13","20.60","59.0","12.31","90064","20.13","DUALSPOT-UV-BLUE-GREEN-RED-IR","774871","708612","908892","3.798833","1.177656","-0.042353","875329","906080","840329","3.001880","0.891489","-0.129610","857182","880281","833135","2.658898","0.776517","0.000000","878117","884068","891717","2.227508","0.646134","0.000000","770092","900486","964602","1.531416","0.423352","0.000000","7531","6810","6487","7465","5995","5374","7460","5632","7460","7479","5860","7479","7389","5726","7389",""
"MA200-0420","21763","51","1","1.10","1.4","2023-05-04T07:22:00","120","2023/05/04","07:22:00","-15.800411343574524","35.02830649167299","0.0","14","30","64","86","-24795","-887","3870","11","150","149.56","112.24","37.32","20.63","59.2","12.39","90068","20.13","DUALSPOT-UV-BLUE-GREEN-RED-IR","769008","704234","903867","3.999530","1.242378","-0.011395","868463","900036","835119","3.159999","0.940091","-0.038103","856700","880668","833853","2.799689","0.818103","0.000000","878121","884810","892776","2.345283","0.680082","0.000000","770551","901603","966002","1.612949","0.445968","0.000000","10502","10186","10044","10443","9654","9321","10414","9251","10414","10527","9126","10527","10147","8466","10147",""
"MA200-0420","21764","51","1","1.10","1.4","2023-05-04T07:22:30","120","2023/05/04","07:22:30","-15.800409197807312","35.0283034928143","0.1","14","30","64","86","-24812","-848","3852","11","150","150.15","112.48","37.66","20.66","59.4","12.46","90064","20.19","DUALSPOT-UV-BLUE-GREEN-RED-IR","768758","704865","905168","4.178276","1.300300","-0.011763","869036","901472","836802","3.300840","0.982034","-0.056620","855777","880479","833954","2.923107","0.855243","0.000000","877675","885024","893309","2.450569","0.710576","0.000000","769969","901371","965983","1.687133","0.466062","0.000000","9333","9032","8896","9282","8255","7820","9109","8186","9109","9390","8122","9390","9213","7452","9213",""
"MA200-0420","21765","51","1","1.10","1.4","2023-05-04T07:23:00","120","2023/05/04","07:23:00","-15.800401866436005","35.0283149946481","0.1","14","30","64","85","-24875","-841","3854","11","150","149.65","112.63","37.02","20.70","59.5","12.52","90068","20.19","DUALSPOT-UV-BLUE-GREEN-RED-IR","766986","704167","904855","4.373720","1.362867","-0.008986","866642","899983","835775","3.454303","1.027775","-0.044276","854722","880214","834059","3.060174","0.895672","-0.055438","869675","877716","886168","2.565316","0.744341","0.000000","769272","901093","965886","1.766300","0.487565","0.000000","10192","9927","9806","10101","9159","8761","10103","9067","8638","10221","9150","10221","9819","8114","9819",""
"MA200-0420","21766","51","1","1.10","1.4","2023-05-04T07:23:30","120","2023/05/04","07:23:30","-15.80041515827179","35.028330659493804","0.0","14","30","64","86","-24844","-804","3971","11","150","149.81","112.61","37.20","20.73","59.6","12.57","90064","20.25","DUALSPOT-UV-BLUE-GREEN-RED-IR","765682","705059","907371","4.781452","1.498682","0.002500","866691","902192","838844","3.780228","1.132262","-0.011658","848119","875316","830279","3.348309","0.985306","-0.026913","869329","878935","888139","2.807927","0.817638","0.000000","769090","902058","967464","1.939159","0.537588","0.000000","21267","21444","21524","21456","20822","20551","21243","20004","19487","21615","19768","21615","21444","18785","21444",""
"MA200-0420","21767","51","1","1.10","1.4","2023-05-04T07:24:00","120","2023/05/04","07:24:00","-15.800451576709747","35.02830016054213","0.4","14","30","64","86","-25040","-292","3248","11","150","150.08","112.61","37.47","20.76","59.5","12.58","90064","20.25","DUALSPOT-UV-BLUE-GREEN-RED-IR","764785","705596","908968","5.091614","1.605073","0.008449","865821","902709","839980","4.025280","1.214922","0.004758","847588","876004","831474","3.567481","1.059001","0.004091","868943","879614","889361","2.993837","0.880515","0.000000","763756","896605","961945","2.072399","0.579093","0.000000","16178","16676","16905","16132","16352","16447","16159","16327","16398","16563","16834","16563","16529","15472","16529",""
"MA200-0420","21768","51","1","1.10","1.4","2023-05-04T07:24:30","120","2023/05/04","07:24:30","-15.800462186336517","35.02837699651718","0.0","14","30","64","85","-24908","264","3248","11","150","149.64","112.44","37.20","20.79","59.4","12.59","90068","20.31","DUALSPOT-UV-BLUE-GREEN-RED-IR","762313","704396","908126","5.353500","1.693445","0.005290","863707","901628","839476","4.233927","1.285082","0.005424","845990","875278","831275","3.753233","1.119983","-0.002962","867857","879342","889494","3.152713","0.929938","-0.029368","763100","896451","962124","2.185211","0.613631","0.000000","13680","13952","14079","13756","13981","14079","13715","13609","13564","14176","13329","12974","14015","12969","14015",""
"MA200-0420","21769","51","1","1.10","1.4","2023-05-04T07:25:00","120","2023/05/04","07:25:00","-15.80046284198761","35.02836866118014","0.1","14","30","64","86","-25004","237","3183","11","150","150.08","112.40","37.68","20.84","59.1","12.56","90064","20.38","DUALSPOT-UV-BLUE-GREEN-RED-IR","763054","705726","910442","5.508957","1.753133","0.031896","864788","903357","841468","4.354751","1.332009","0.042700","847209","877124","833372","3.862488","1.162409","0.047819","870288","882284","892781","3.244729","0.966419","0.063615","764693","898698","964753","2.252454","0.636700","0.000000","8123","9304","9855","7968","9232","9789","8069","9347","9898","8213","9713","10349","8357","8552","8357",""
"MA200-0420","21770","51","1","1.10","1.4","2023-05-04T07:25:30","120","2023/05/04","07:25:30","-15.800443649291992","35.028369162231684","0.1","14","30","64","86","-24936","316","3371","11","150","149.56","112.24","37.32","20.86","58.8","12.50","90060","20.38","DUALSPOT-UV-BLUE-GREEN-RED-IR","757643","701307","905154","5.645815","1.804460","0.028049","859051","897872","836746","4.459667","1.373136","0.046086","847119","877511","834018","3.956193","1.197403","0.037962","870030","882434","893189","3.324996","0.996349","0.044474","764427","898749","964985","2.312414","0.656857","0.000000","7161","8078","8509","6929","8170","8722","6931","7785","8155","7174","8046","8419","7462","7545","7462",""
"MA200-0420","21771","51","1","1.10","1.4","2023-05-04T07:26:00","120","2023/05/04","07:26:00","-15.800449967384338","35.028384329751134","0.1","14","30","64","85","-24888","212","3236","11","150","149.87","112.07","37.81","20.89","58.4","12.42","90068","20.44","DUALSPOT-UV-BLUE-GREEN-RED-IR","756563","700909","905103","5.777204","1.856998","0.037131","858285","897661","836869","4.560870","1.414764","0.052892","846857","877732","834520","4.046797","1.233619","0.051909","863607","876332","887293","3.400992","1.025528","0.048552","764665","899322","965828","2.367576","0.677863","0.000000","6886","8162","8766","6694","8162","8822","6712","7953","8497","6803","7743","8149","6876","7761","6876",""
"MA200-0420","21772","51","1","1.10","1.4","2023-05-04T07:26:30","120","2023/05/04","07:26:30","-15.800462424755096","35.028393330052495","0.2","13","30","64","85","-24860","392","3223","11","150","149.89","112.24","37.64","20.91","58.1","12.35","90064","20.44","DUALSPOT-UV-BLUE-GREEN-RED-IR","756143","701692","906939","5.993101","1.932266","0.009196","858005","898544","838292","4.729718","1.473433","0.010520","846173","878079","835359","4.194832","1.283520","0.001746","861985","875604","886993","3.528129","1.067730","-0.004220","764021","899228","966057","2.460134","0.707517","0.000000","11297","11744","11956","11151","11553","11735","10949","11005","11030","11364","11247","11197","11519","11004","11519",""
"MA200-0420","21773","51","1","1.10","1.4","2023-05-04T07:27:00","120","2023/05/04","07:27:00","-15.800465524196625","35.02839066274464","0.1","13","30","64","85","-25060","400","3548","11","150","149.38","111.85","37.53","20.94","57.8","12.31","90064","20.44","DUALSPOT-UV-BLUE-GREEN-RED-IR","752750","700855","907389","6.476129","2.095920","0.002197","854885","897790","838697","5.123508","1.602465","-0.006893","842874","876815","835151","4.547477","1.398873","-0.008274","860317","875744","888033","3.825332","1.165034","-0.009439","762512","898822","966333","2.673957","0.775384","0.000000","25365","25613","25732","26100","25488","25210","26176","25519","25227","26659","26013","25730","26706","25262","26706",""
"MA200-0420","21774","51","1","1.10","1.4","2023-05-04T07:27:30","120","2023/05/04","07:27:30","-15.800498843193054","35.028372997418046","0.1","13","30","64","85","-24856","427","3480","11","150","149.10","111.95","37.15","20.98","57.6","12.29","90064","20.50","DUALSPOT-UV-BLUE-GREEN-RED-IR","748917","699055","906264","6.890238","2.236829","0.005251","851533","896127","838037","5.459904","1.713968","-0.000319","839789","875237","834417","4.849178","1.496881","-0.006497","856891","873648","886585","4.082391","1.246962","-0.014817","760384","897377","965275","2.857639","0.833771","0.000000","21726","22277","22541","22275","22249","22237","22374","21901","21690","23036","22124","21722","22920","21953","22920",""
"MA200-0420","21775","51","1","1.10","1.4","2023-05-04T07:28:00","120","2023/05/04","07:28:00","-15.800506711006165","35.02837999723852","0.0","13","30","64","85","-24888","576","3320","11","150","150.21","112.23","37.98","21.00","57.5","12.28","90060","20.50","DUALSPOT-UV-BLUE-GREEN-RED-IR","749470","700775","909334","7.170805","2.333953","0.004582","852606","898551","840867","5.688405","1.789653","-0.005621","834968","871346","831237","5.054194","1.564758","-0.006409","858166","875929","889380","4.258311","1.303925","-0.015585","761428","899308","967700","2.982595","0.872912","0.000000","14683","15019","15181","15093","14772","14625","15165","14837","14689","15725","15046","14747","15553","14396","15553",""
"MA200-0420","21776","51","1","1.10","1.4","2023-05-04T07:28:30","120","2023/05/04","07:28:30","-15.800619959831238","35.02863433025777","3.4","13","30","64","85","-25188","544","1364","11","150","150.00","113.00","37.00","21.03","57.4","12.27","90060","20.56","DUALSPOT-UV-BLUE-GREEN-RED-IR","749241","701168","910276","7.317402","2.382824","0.003591","852600","899200","841694","5.803043","1.824910","-0.016731","834757","871681","831782","5.157697","1.596170","-0.022941","858748","877020","890703","4.346987","1.331426","-0.018938","756773","894214","962367","3.046724","0.891243","-0.071794","7619","7758","7825","7520","7064","6854","7604","7048","6799","7872","7457","7273","7927","6920","6504",""
"MA200-0420","21777","51","1","1.10","1.4","2023-05-04T07:29:00","120","2023/05/04","07:29:00","-15.799869000911713","35.028626495972276","8.5","13","30","64","85","-25064","-976","3040","11","150","149.59","112.18","37.41","21.06","57.2","12.27","90092","20.56","DUALSPOT-UV-BLUE-GREEN-RED-IR","741778","694820","902324","7.445612","2.424860","-0.003447","844133","890849","834175","5.901968","1.855469","-0.020410","833855","871329","831633","5.246985","1.622313","-0.040900","857085","875812","889645","4.421227","1.351476","-0.085331","755921","893562","961808","3.102201","0.906369","-0.111925","6713","6599","6545","6537","6055","5834","6608","5801","5440","6639","5377","4821","6908","5648","5128",""
"MA200-0420","21778","51","1","1.10","1.4","2023-05-04T07:29:30","120","2023/05/04","07:29:30","-15.797939360141754","35.02866382710636","2.5","13","30","64","85","-25073","-1073","3100","11","150","149.74","112.85","36.88","21.09","57.2","12.30","90200","20.63","DUALSPOT-UV-BLUE-GREEN-RED-IR","743073","696664","905154","7.588007","2.471494","0.000405","845162","892566","836068","6.011730","1.889587","-0.012781","834985","873033","833519","5.343818","1.651400","-0.024817","859622","878887","893000","4.506382","1.377088","-0.028775","757301","895560","964147","3.162614","0.923296","-0.079782","7411","7426","7433","7210","6857","6695","7123","6547","6289","7570","6966","6701","7478","6411","5971",""
"MA200-0420","21779","51","1","1.10","1.4","2023-05-04T07:30:00","120","2023/05/04","07:30:00","-15.797854125499725","35.02584099769592","11.3","13","30","64","85","-24683","141","2987","11","150","150.21","112.19","38.02","21.11","57.1","12.28","90144","20.63","DUALSPOT-UV-BLUE-GREEN-RED-IR","742879","696985","905922","7.692598","2.508892","0.009813","846302","894280","837885","6.088370","1.914245","-0.013103","834386","872850","833529","5.410773","1.671695","-0.033327","859574","879203","893455","4.561573","1.393307","-0.051871","756983","895476","964120","3.203884","0.935308","-0.077751","5475","5776","5922","5064","4807","4689","4954","4431","4197","4935","4279","3991","5138","4413","4113",""
"MA200-0420","21780","51","1","1.10","1.4","2023-05-04T07:30:30","120","2023/05/04","07:30:30","-15.798465371131897","35.022884329780936","6.5","13","30","64","85","-24144","-1440","2976","11","150","149.60","112.61","37.00","21.15","57.1","12.31","90228","20.63","DUALSPOT-UV-BLUE-GREEN-RED-IR","742377","697182","906687","7.831678","2.556175","0.006273","845662","894300","838234","6.192344","1.947468","-0.006722","834190","873272","834182","5.504060","1.699996","-0.022650","852626","872628","887007","4.640226","1.417646","-0.019678","756847","895709","964571","3.259283","0.949672","-0.129902","7254","7507","7629","6845","6657","6571","6877","6351","6115","7007","6600","6421","6872","5424","4828",""
"MA200-0420","21781","51","1","1.10","1.4","2023-05-04T07:31:00","120","2023/05/04","07:31:00","-15.799638569355011","35.02246749587357","5.1","13","30","64","85","-24325","787","5233","11","150","150.33","112.59","37.74","21.17","57.0","12.30","90156","20.63","DUALSPOT-UV-BLUE-GREEN-RED-IR","741964","697427","907343","7.974409","2.602501","-0.006205","845543","894802","838950","6.301552","1.981169","-0.020791","828661","868023","829419","5.601970","1.730042","-0.024875","852272","872754","887309","4.723979","1.441155","-0.064692","756874","896116","965160","3.321659","0.968595","-0.046628","7445","7209","7094","7190","6619","6357","7219","6609","6336","7463","6249","5716","7739","7003","6701",""
"MA200-0420","21782","51","1","1.10","1.4","2023-05-04T07:31:30","120","2023/05/04","07:31:30","-15.800641775131226","35.0219593308866","4.0","13","30","64","85","-24676","1428","2812","11","150","149.89","112.48","37.41","21.19","56.8","12.29","90096","20.69","DUALSPOT-UV-BLUE-GREEN-RED-IR","740419","696446","906393","8.083370","2.639309","0.002832","843976","893629","838036","6.385481","2.007175","-0.017320","832933","872958","834297","5.676440","1.752770","-0.023811","851522","872346","887080","4.786964","1.460354","-0.028499","756255","895652","964739","3.365093","0.978700","-0.218453","5689","5779","5823","5531","5153","4980","5496","5044","4842","5618","5149","4943","5394","3773","3108",""
"MA200-0420","21783","51","1","1.10","1.4","2023-05-04T07:32:00","120","2023/05/04","07:32:00","-15.800726890563965","35.02270316146314","2.6","13","30","64","85","-24962","517","3082","11","150","150.08","112.81","37.27","21.21","56.8","12.28","90104","20.69","DUALSPOT-UV-BLUE-GREEN-RED-IR","741719","698221","909094","8.204822","2.680194","0.003361","845699","896011","840528","6.477582","2.036888","-0.005451","828934","869221","830950","5.756856","1.777172","-0.023178","852779","874052","888980","4.855530","1.480951","-0.030884","756955","896788","966113","3.415804","0.992170","-0.111618","6323","6444","6502","6052","5910","5845","5918","5436","5221","6097","5545","5302","6279","5049","4546",""
"MA200-0420","21784","51","1","1.10","1.4","2023-05-04T07:32:30","120","2023/05/04","07:32:30","-15.800691604614258","35.022419495508075","0.2","13","30","64","85","-25175","-487","2050","11","150","150.08","112.70","37.38","21.24","56.6","12.28","90104","20.69","DUALSPOT-UV-BLUE-GREEN-RED-IR","741658","698548","909763","8.291403","2.708784","-0.000791","844914","895570","840246","6.541037","2.055288","-0.034310","828732","869326","831151","5.813363","1.795435","-0.006598","853426","874995","890075","4.903568","1.496095","-0.015631","757276","897428","966942","3.452936","1.004334","-0.005135","4512","4492","4482","4173","3649","3408","4162","4056","4008","4276","4064","3971","4602","4545","4522",""
"MA200-0420","21785","51","1","1.10","1.4","2023-05-04T07:33:00","120","2023/05/04","07:33:00","-15.800688683986664","35.02200233004987","4.5","13","30","64","85","-24864","784","2144","11","150","149.89","112.56","37.33","21.27","56.7","12.33","90088","20.75","DUALSPOT-UV-BLUE-GREEN-RED-IR","741463","698695","910122","8.357376","2.727386","-0.034198","845975","897012","841725","6.591034","2.067983","-0.078644","828464","869376","831294","5.858289","1.804500","-0.222415","853254","875041","890190","4.939316","1.503322","-0.258846","757234","897545","967079","3.479192","1.008739","-0.657121","3442","2927","2677","3292","2521","2168","3313","2016","1438","3186","1942","1398","3258","1648","991",""
"MA200-0420","21786","51","1","1.10","1.4","2023-05-04T07:33:30","120","2023/05/04","07:33:30","-15.800812840461731","35.02439066208899","10.1","13","30","64","84","-24888","-963","3812","11","150","149.63","112.28","37.34","21.29","56.7","12.33","90092","20.75","DUALSPOT-UV-BLUE-GREEN-RED-IR","735430","693816","904333","8.500437","2.778331","0.011186","838418","889795","835335","6.697130","2.102906","-0.002279","828868","870455","832619","5.948487","1.833367","-0.009698","854377","876765","892228","5.015889","1.526972","-0.022790","752571","892407","961743","3.531011","1.023638","-0.066790","7483","8012","8270","7004","6932","6899","6669","6417","6305","6842","6353","6140","6447","5573","5216",""
"MA200-0420","21787","51","1","1.10","1.4","2023-05-04T07:34:00","120","2023/05/04","07:34:00","-15.800868391990662","35.027141662314534","10.2","13","30","64","85","-24564","652","3355","11","150","149.94","112.61","37.34","21.31","56.5","12.31","90056","20.81","DUALSPOT-UV-BLUE-GREEN-RED-IR","734608","693927","905060","8.706564","2.850097","0.007955","838582","890802","836670","6.851661","2.156252","0.008269","827858","870149","832699","6.085640","1.880901","0.010107","853720","876732","892503","5.129845","1.565382","0.004543","752414","892676","962263","3.611923","1.048307","-0.035395","10751","11289","11551","10173","10592","10784","10112","10570","10774","10153","10321","10395","10037","9230","8899",""
"MA200-0420","21788","51","1","1.10","1.4","2023-05-04T07:34:30","120","2023/05/04","07:34:30","-15.800894737243652","35.030281994491816","15.0","13","30","64","84","-24652","992","3471","11","150","150.23","112.95","37.28","21.33","56.4","12.29","89952","20.81","DUALSPOT-UV-BLUE-GREEN-RED-IR","733892","694079","905895","8.897341","2.917780","0.011271","838030","891076","837373","7.000410","2.208555","0.012450","827561","870563","833461","6.217436","1.924979","0.003041","852923","876533","892667","5.241211","1.602715","0.004213","752222","892973","962823","3.691862","1.073919","-0.011664","9920","10663","11026","9762","10400","10694","9687","9816","9874","9891","10046","10115","9886","9597","9478",""
"MA200-0420","21789","51","1","1.10","1.4","2023-05-04T07:35:00","120","2023/05/04","07:35:00","-15.801457047462463","35.03465649113059","14.8","13","30","64","84","-24544","-5428","-8200","11","150","150.62","113.02","37.60","21.35","56.1","12.24","89880","20.81","DUALSPOT-UV-BLUE-GREEN-RED-IR","731485","693014","905434","9.180130","3.021452","0.014354","835945","890038","837101","7.217889","2.290481","0.022475","825833","869778","833338","6.410578","1.995891","0.020371","845226","869540","886058","5.404713","1.659966","0.013004","751210","892453","962672","3.812124","1.112046","-0.018712","14696","16192","16926","14265","16150","17027","14188","15655","16319","14514","15274","15611","14864","14163","13874",""
"MA200-0420","21790","51","1","1.10","1.4","2023-05-04T07:35:30","120","2023/05/04","07:35:30","-15.801974654197693","35.03746432438493","12.5","13","30","64","84","-24640","-7620","-5976","11","150","149.32","112.24","37.07","21.37","55.9","12.19","89736","20.88","DUALSPOT-UV-BLUE-GREEN-RED-IR","730199","693536","907256","9.512680","3.132526","0.001734","835103","890981","838769","7.483236","2.374238","-0.009281","824702","870193","834408","6.645663","2.070528","-0.008979","843899","869538","886633","5.602729","1.723558","-0.007439","751032","893265","964016","3.954521","1.159812","0.005455","17402","17597","17693","17525","16748","16387","17388","16714","16409","17699","17209","16991","17722","17998","18113",""
"MA200-0420","21791","51","1","1.10","1.4","2023-05-04T07:36:00","120","2023/05/04","07:36:00","-15.8032266497612","35.0403826572001","12.0","13","30","64","84","-24276","-6800","-7415","11","150","150.15","112.01","38.14","21.39","55.8","12.19","89540","20.88","DUALSPOT-UV-BLUE-GREEN-RED-IR","726818","691830","905999","9.870399","3.250829","-0.004547","831859","889089","837659","7.767239","2.463645","-0.016010","821854","868574","833437","6.898909","2.148413","-0.023721","842302","869051","886673","5.819040","1.788892","-0.033510","749362","892150","963195","4.107509","1.204627","-0.060017","18758","18218","17953","18797","17377","16718","18771","16953","16131","19375","17186","16214","19080","16414","15307",""
"MA200-0420","21792","51","1","1.10","1.4","2023-05-04T07:36:30","120","2023/05/04","07:36:30","-15.804342687129974","35.043652322143316","15.8","13","30","64","84","-25062","-6041","-6100","11","150","149.34","112.56","36.78","21.42","55.7","12.19","89396","20.94","DUALSPOT-UV-BLUE-GREEN-RED-IR","726339","693617","909903","10.388157","3.429752","0.007633","825792","884932","834832","8.177506","2.600813","0.004041","816640","865085","831048","7.263239","2.267569","0.000201","842193","870722","889226","6.127696","1.887571","-0.005230","749828","893990","965831","4.329338","1.275216","-0.008857","27016","28575","29343","27019","27649","27942","26871","26898","26910","27510","26919","26656","27529","26812","26512",""
"MA200-0420","21793","51","1","1.10","1.4","2023-05-04T07:37:00","120","2023/05/04","07:37:00","-15.803098499774933","35.04745899513364","15.3","13","30","64","84","-24795","-5204","-6770","11","150","150.15","112.56","37.59","21.45","55.6","12.19","89436","21.00","DUALSPOT-UV-BLUE-GREEN-RED-IR","718856","688466","904527","10.815399","3.577474","0.004644","823836","884950","835859","8.526445","2.715832","-0.002267","815052","865310","832140","7.576335","2.369660","-0.004687","842250","872378","891746","6.394194","1.973723","-0.007574","749446","894786","967261","4.520784","1.333856","-0.029424","22294","23083","23473","22981","22684","22545","23093","22549","22301","23753","22995","22656","23760","21793","20970",""
"MA200-0420","21794","51","1","1.10","1.4","2023-05-04T07:37:30","120","2023/05/04","07:37:30","-15.80144190788269","35.05107466131449","13.6","13","30","64","84","-24904","-5336","-7772","11","150","149.72","112.53","37.19","21.48","55.6","12.21","89376","21.06","DUALSPOT-UV-BLUE-GREEN-RED-IR","714262","687866","906407","11.589659","3.848573","0.007051","819803","884792","837688","9.168555","2.931500","0.002548","811102","864767","833359","8.145637","2.557599","-0.000202","838563","871737","892557","6.872831","2.128117","-0.005236","742506","888779","961934","4.858717","1.440301","-0.014706","40414","42816","44010","42302","42990","43314","42003","41956","41934","42674","41651","41192","41952","39983","39154",""
"MA200-0420","21795","51","1","1.10","1.4","2023-05-04T07:38:00","120","2023/05/04","07:38:00","-15.801883578300476","35.05472932383418","16.4","13","30","64","84","-24732","-5340","-7352","11","150","149.47","112.44","37.03","21.51","55.5","12.23","0","0.00","DUALSPOT-UV-BLUE-GREEN-RED-IR","713249","687931","907259","11.896950","3.955120","0.006176","819613","885633","838994","9.412807","3.012682","0.001439","810465","865008","834032","8.370417","2.629637","-0.004851","832609","866363","887475","7.068811","2.189492","-0.010803","742631","889567","963067","5.001354","1.483009","-0.029604","16052","16901","17325","16103","16254","16324","16597","16153","15949","17486","16630","16246","17721","16113","15435",""
"MA200-0420","21796","51","1","1.10","1.4","2023-05-04T07:38:30","120","2023/05/04","07:38:30","-15.80368161201477","35.05822231993079","13.6","13","30","64","84","-24808","-4600","-7237","11","150","149.63","112.40","37.22","21.55","55.4","12.24","0","0.00","DUALSPOT-UV-BLUE-GREEN-RED-IR","713499","688979","909218","12.091795","4.026025","0.010671","820098","887013","840691","9.562202","3.062832","0.002056","810625","865932","835235","8.502215","2.672779","-0.002026","833286","867704","889143","7.181533","2.226105","-0.003994","743040","890551","964374","5.084329","1.507184","-0.040563","10181","11187","11690","9853","9987","10050","9734","9621","9570","10061","9867","9780","10312","9071","8549",""
"MA200-0420","21797","51","1","1.10","1.4","2023-05-04T07:39:00","120","2023/05/04","07:39:00","-15.804078996181488","35.061524491757154","13.5","13","30","64","84","-24376","-4796","-7340","11","150","150.27","112.78","37.49","21.58","55.3","12.22","89196","21.19","DUALSPOT-UV-BLUE-GREEN-RED-IR","712151","689508","911232","12.445757","4.150135","0.006100","812761","880954","835879","9.843787","3.157347","0.001432","804463","861036","831316","8.752690","2.754885","-0.002369","832413","868245","890357","7.391717","2.292502","-0.010504","742617","891113","965474","5.236297","1.554622","-0.018128","18434","19443","19948","18509","18688","18773","18438","18182","18064","18697","17768","17350","18823","17676","17191",""
"MA200-0420","21798","51","1","1.10","1.4","2023-05-04T07:39:30","120","2023/05/04","07:39:30","-15.804571866989136","35.06515999138355","12.3","13","30","64","84","-24991","-4042","-8957","11","150","149.69","112.28","37.41","21.62","55.2","12.24","89112","21.25","DUALSPOT-UV-BLUE-GREEN-RED-IR","704871","683656","904375","12.770691","4.265281","0.006830","811984","881378","836822","10.099386","3.240520","-0.003518","804040","861689","832439","8.979964","2.826315","-0.010035","832315","869097","891694","7.583801","2.351324","-0.017502","742156","891270","965965","5.370172","1.592455","-0.051226","16997","18079","18621","16875","16482","16296","16804","15852","15415","17163","15775","15152","16655","14128","13062",""
"MA200-0420","21799","51","1","1.10","1.4","2023-05-04T07:40:00","120","2023/05/04","07:40:00","-15.80499279499054","35.06829431653023","12.1","13","30","64","84","-25108","-5080","-7879","11","150","150.02","112.36","37.66","21.65","55.0","12.23","89016","21.31","DUALSPOT-UV-BLUE-GREEN-RED-IR","703797","684108","906096","13.074678","4.373956","0.006970","810866","881774","838024","10.349531","3.326547","0.003590","803166","862194","833631","9.203080","2.901768","0.001423","825908","863659","886749","7.773006","2.413447","-0.003898","737863","887077","961889","5.507787","1.636728","-0.010972","15890","16950","17483","16503","16935","17140","16485","16635","16704","16893","16551","16396","17108","16423","16133",""
"MA200-0420","21800","51","1","1.10","1.4","2023-05-04T07:40:30","120","2023/05/04","07:40:30","-15.804738163948059","35.07031448185444","5.8","13","30","64","84","-24696","-6324","-8604","11","150","150.08","112.48","37.60","21.68","54.9","12.22","88932","21.31","DUALSPOT-UV-BLUE-GREEN-RED-IR","702545","684332","907479","13.457708","4.515392","0.010117","809884","882274","839295","10.665051","3.436542","0.005591","802180","862507","834640","9.488503","2.999878","0.004199","825278","864231","887990","8.021446","2.497250","0.001640","737419","887476","962827","5.687418","1.695684","-0.004646","20001","22095","23153","20794","21688","22113","21067","21664","21941","22159","22362","22454","22308","21905","21734",""
"MA200-0420","21801","51","1","1.10","1.4","2023-05-04T07:41:00","120","2023/05/04","07:41:00","-15.804216027259827","35.07163564115763","5.1","13","30","64","84","-24640","-5712","-7704","11","150","150.08","112.69","37.39","21.72","54.8","12.23","88832","21.38","DUALSPOT-UV-BLUE-GREEN-RED-IR","703412","685565","909420","13.556164","4.550192","0.006599","810748","883647","840798","10.740286","3.461075","-0.002425","797295","857631","830089","9.556133","3.021294","-0.007479","826225","865519","889487","8.078048","2.515011","-0.010592","738068","888519","964083","5.730116","1.706963","-0.071400","5131","5466","5635","4949","4864","4823","4982","4755","4650","5039","4765","4642","5293","4214","3756",""
"MA200-0420","21802","51","1","1.10","1.4","2023-05-04T07:41:30","120","2023/05/04","07:41:30","-15.803757905960083","35.07281248271465","4.3","13","30","64","84","-24741","-5958","-7762","11","150","149.81","112.32","37.49","21.75","54.7","12.23","0","0.00","DUALSPOT-UV-BLUE-GREEN-RED-IR","702630","685410","909658","13.614458","4.571001","0.006953","804557","877555","835323","10.787781","3.476274","-0.006007","797091","858015","830725","9.599283","3.034091","-0.020290","826028","865825","889969","8.113730","2.525363","-0.028901","737950","888775","964505","5.758632","1.714556","-0.070250","3048","3260","3367","3134","3005","2944","3189","2834","2669","3187","2770","2581","3546","2829","2525",""
"MA200-0420","21803","51","1","1.10","1.4","2023-05-04T07:42:00","120","2023/05/04","07:42:00","-15.803341925144196","35.073961816728115","4.8","13","30","64","84","-24456","-6224","-7515","11","150","150.29","112.31","37.98","21.79","54.7","12.26","0","0.00","DUALSPOT-UV-BLUE-GREEN-RED-IR","698950","684938","911294","14.367857","4.834596","0.003450","801334","877391","836807","11.404669","3.684342","-0.000340","793812","857441","831607","10.152020","3.217488","-0.002794","823597","865912","891361","8.588190","2.678918","-0.007755","735957","888385","965067","6.107767","1.823322","-0.020714","39401","40765","41456","40719","40612","40561","40860","40090","39732","42383","40562","39737","43426","40005","38549",""
"MA200-0420","21804","51","1","1.10","1.4","2023-05-04T07:42:30","120","2023/05/04","07:42:30","-15.802795231342316","35.075173646211624","5.4","13","30","64","83","-24533","-5987","-7450","11","150","149.60","112.44","37.16","21.82","54.5","12.23","88620","21.50","DUALSPOT-UV-BLUE-GREEN-RED-IR","693627","680059","905070","14.455790","4.869154","0.015351","801708","878170","837750","11.476089","3.711879","0.017221","794575","858588","832899","10.216626","3.241038","0.012825","818311","860615","886086","8.644880","2.698601","0.007921","736891","889731","966658","6.149755","1.836106","-0.020565","4593","5462","5903","4708","5493","5868","4770","5261","5489","5058","5314","5430","5216","4805","4630",""
"MA200-0420","21805","51","1","1.10","1.4","2023-05-04T07:43:00","120","2023/05/04","07:43:00","-15.802191138267517","35.07637166231871","3.9","13","30","64","84","-24920","-4856","-7628","11","150","149.76","112.48","37.28","21.85","54.4","12.24","88592","21.56","DUALSPOT-UV-BLUE-GREEN-RED-IR","694962","681783","907638","14.562851","4.905790","0.003215","803300","880358","840025","11.564601","3.739822","-0.006514","794820","859274","833688","10.297178","3.264671","-0.019601","818318","860995","886597","8.713587","2.718559","-0.025105","737568","890839","967995","6.203415","1.851558","-0.037033","5590","5772","5865","5833","5557","5424","5945","5263","4947","6128","5371","5028","6664","5790","5419",""
"MA200-0420","21806","51","1","1.10","1.4","2023-05-04T07:43:30","120","2023/05/04","07:43:30","-15.801653563976288","35.07726614177227","4.1","13","30","64","84","-24862","-5050","-7725","11","150","150.28","112.56","37.72","21.90","54.3","12.26","88588","21.56","DUALSPOT-UV-BLUE-GREEN-RED-IR","695042","682550","909135","14.719078","4.959608","0.002754","803393","881174","841128","11.687841","3.779137","-0.006533","794462","859524","834203","10.405328","3.298575","-0.010023","818658","861876","887755","8.806886","2.746562","-0.020288","732697","885374","962224","6.271883","1.870691","-0.049442","8152","8380","8496","8116","7727","7541","7977","7462","7223","8316","7448","7055","8497","7086","6486",""
"MA200-0420","21807","51","1","1.10","1.4","2023-05-04T07:44:00","120","2023/05/04","07:44:00","-15.801149666309357","35.0781139805913","3.6","13","30","64","84","-24788","-5136","-7764","11","150","149.47","112.32","37.15","21.93","54.2","12.25","88572","21.63","DUALSPOT-UV-BLUE-GREEN-RED-IR","694934","682733","909615","14.774229","4.981266","0.014904","803426","881541","841616","11.730232","3.795243","0.015349","789698","854630","829628","10.445340","3.314006","0.018717","820345","863898","889953","8.840152","2.759258","0.020669","733405","886427","963487","6.299268","1.879475","-0.007167","2884","3423","3698","2797","3213","3412","2957","3448","3676","2971","3428","3635","3406","3302","3259",""
"MA200-0420","21808","51","1","1.10","1.4","2023-05-04T07:44:30","120","2023/05/04","07:44:30","-15.80063807964325","35.07896315306425","3.4","13","30","64","83","-25042","-5348","-5948","11","150","150.62","112.15","38.47","21.96","54.1","12.26","88544","21.63","DUALSPOT-UV-BLUE-GREEN-RED-IR","690497","678657","904333","14.838114","5.003885","0.003113","798206","876037","836510","11.780699","3.811276","-0.010405","790228","855457","830550","10.490968","3.327829","-0.019698","820586","864400","890591","8.880246","2.770312","-0.044974","733418","886682","963811","6.329563","1.888377","-0.040606","3345","3453","3507","3335","3089","2971","3377","2982","2799","3586","2882","2563","3773","3232","3001",""
"MA200-0420","21809","51","1","1.10","1.4","2023-05-04T07:45:00","120","2023/05/04","07:45:00","-15.800124764442444","35.07974314689636","3.8","13","30","64","83","-25158","-5662","-6129","11","150","149.44","112.44","37.00","22.01","54.0","12.26","88532","21.75","DUALSPOT-UV-BLUE-GREEN-RED-IR","689766","678350","904292","14.932480","5.037132","0.006461","797302","875551","836301","11.858265","3.837663","0.004022","790204","855826","831123","10.558313","3.349983","-0.000025","820584","864723","891118","8.939160","2.790111","0.003373","733294","886796","964091","6.375559","1.900648","-0.057881","4929","5278","5455","5114","5287","5370","4972","4971","4971","5256","5369","5420","5714","4633","4174",""
"MA200-0420","21810","51","1","1.10","1.4","2023-05-04T07:45:30","120","2023/05/04","07:45:30","-15.799285352230072","35.079643815755844","3.8","13","30","64","83","-24625","-4257","-7351","11","150","149.33","112.53","36.80","22.04","53.9","12.26","88520","21.75","DUALSPOT-UV-BLUE-GREEN-RED-IR","690962","679961","906749","15.032076","5.072429","0.007465","798636","877494","838362","11.937268","3.863800","0.001420","791381","857532","832962","10.631299","3.373980","0.000738","815824","860088","886520","9.001815","2.810799","0.001545","734601","888712","966335","6.425138","1.916978","0.001587","5198","5633","5855","5204","5265","5294","5384","5413","5427","5585","5640","5664","6154","6199","6218",""
"MA200-0420","21811","51","1","1.10","1.4","2023-05-04T07:46:00","120","2023/05/04","07:46:00","-15.79865550994873","35.07862214744091","4.5","13","30","64","83","-24700","-2604","-7760","11","150","150.07","112.44","37.63","22.07","54.0","12.32","88596","21.81","DUALSPOT-UV-BLUE-GREEN-RED-IR","690379","679688","906567","15.109884","5.097456","-0.004121","798452","877661","838626","12.008195","3.883445","-0.028448","790629","857057","832610","10.696819","3.391027","-0.045174","813834","858322","884788","9.061902","2.827732","-0.032873","733750","887900","965553","6.472372","1.930615","-0.037571","4064","3906","3826","4676","3870","3485","4837","3761","3261","5361","4514","4130","5868","5062","4720",""
"MA200-0420","21812","51","1","1.10","1.4","2023-05-04T07:46:30","120","2023/05/04","07:46:30","-15.798075556755066","35.07764648646116","4.0","13","30","64","83","-24780","-4928","-7875","11","150","149.67","111.99","37.68","22.11","54.2","12.41","88640","21.81","DUALSPOT-UV-BLUE-GREEN-RED-IR","692699","682086","909831","15.136936","5.101446","-0.366275","794956","874025","835126","12.031747","3.882760","0.220671","792518","859315","834776","10.719720","3.391587","0.354987","816800","861613","888185","9.081331","2.827670","0.346505","730775","884452","961790","6.490005","1.932066","2.192585","1418","621","216","1559","-134","-942","1697","123","-605","1740","-16","-810","2199","538","-166",""
"MA200-0420","21813","51","1","1.10","1.4","2023-05-04T07:47:00","120","2023/05/04","07:47:00","-15.797632873058319","35.07706048339605","0.5","12","30","64","83","-24888","-4944","-7179","11","150","150.15","111.88","38.27","22.14","54.3","12.48","88648","21.88","DUALSPOT-UV-BLUE-GREEN-RED-IR","692022","682528","911269","15.268665","5.152101","0.010339","794677","874883","836621","12.144958","3.924072","0.007398","786354","853664","829908","10.818373","3.426391","0.004057","817042","862826","889948","9.167542","2.856835","-0.001770","730453","884790","962580","6.554617","1.951152","-0.036776","6915","7774","8212","7501","8002","8242","7320","7550","7656","7730","7645","7607","8067","6967","6500",""
"MA200-0420","21814","51","1","1.10","1.4","2023-05-04T07:47:30","120","2023/05/04","07:47:30","-15.797071635723114","35.07728014141321","2.7","12","30","64","83","-24324","-5980","-8068","11","150","150.08","112.12","37.96","22.19","54.3","12.53","88604","21.94","DUALSPOT-UV-BLUE-GREEN-RED-IR","686198","677433","904908","15.539000","5.250305","0.006397","794253","875116","837195","12.368899","4.002309","0.003653","786730","854719","831205","11.024813","3.496682","0.000766","817227","863543","891009","9.347239","2.917048","-0.001607","730656","885469","963513","6.686832","1.994351","-0.007816","14161","15196","15724","14806","15280","15506","15285","15374","15416","16079","15915","15841","16472","15898","15654",""
"MA200-0420","21815","51","1","1.10","1.4","2023-05-04T07:48:00","120","2023/05/04","07:48:00","-15.796310365200043","35.077356815338135","3.3","12","30","64","83","-24596","-3948","-8175","11","150","149.87","112.19","37.68","22.23","54.3","12.56","88600","22.00","DUALSPOT-UV-BLUE-GREEN-RED-IR","687302","678884","907075","15.609383","5.270368","-0.018962","795547","876890","838996","12.415389","4.015714","-0.021303","787527","855853","832389","11.060562","3.505653","-0.053156","818618","865187","892757","9.370258","2.922583","-0.075044","731579","886783","965009","6.708355","1.998242","-0.286320","3684","3127","2843","3071","2637","2429","2645","1976","1665","2058","1473","1208","2679","1442","917",""
"MA200-0420","21816","51","1","1.10","1.4","2023-05-04T07:48:30","120","2023/05/04","07:48:30","-15.79562908411026","35.077713154256344","2.4","12","30","64","83","-24880","-3080","-8068","11","150","149.85","111.98","37.86","22.28","54.3","12.60","88644","22.00","DUALSPOT-UV-BLUE-GREEN-RED-IR","687766","679412","907852","15.637913","5.283302","0.021730","796280","877708","839850","12.430149","4.023034","0.032847","788096","856474","833024","11.073616","3.511893","0.034082","813095","859363","886779","9.380997","2.927921","0.043282","731816","887087","965311","6.718185","2.000123","-0.241052","1496","2006","2266","977","1433","1651","967","1368","1554","962","1414","1619","1226","693","468",""
"MA200-0420","21817","51","1","1.10","1.4","2023-05-04T07:49:00","120","2023/05/04","07:49:00","-15.795385479927063","35.077828988432884","2.3","12","30","64","83","-24684","-1244","-7836","11","150","150.15","112.24","37.91","22.29","54.1","12.57","88660","22.06","DUALSPOT-UV-BLUE-GREEN-RED-IR","688852","680601","909558","15.662384","5.292688","0.010848","797900","879657","841732","12.447602","4.027522","-0.043784","788657","857244","833819","11.089884","3.516573","-0.025060","813820","860269","887708","9.395832","2.931316","-0.093868","732465","888042","966399","6.732570","2.004106","-0.051256","1280","1454","1542","1152","877","746","1203","1024","941","1326","898","704","1790","1467","1331",""
"MA200-0420","21818","51","1","1.10","1.4","2023-05-04T07:49:30","120","2023/05/04","07:49:30","-15.795576512813568","35.077747978270054","0.5","12","30","64","82","-24884","-6064","-6452","11","150","149.95","112.44","37.51","22.35","54.2","12.63","88644","22.06","DUALSPOT-UV-BLUE-GREEN-RED-IR","688349","680178","909053","15.682581","5.299921","0.006367","790593","871637","834107","12.462077","4.030639","-0.088323","788404","857011","833603","11.102463","3.519386","-0.083997","813141","859597","887066","9.406572","2.933038","-0.327408","732247","887800","966145","6.743030","2.004494","0.708490","1055","1132","1172","954","616","454","928","622","480","958","460","234","1299","144","-344",""
"MA200-0420","21819","51","1","1.10","1.4","2023-05-04T07:50:00","120","2023/05/04","07:50:00","-15.795857787132263","35.077605314552784","3.3","12","30","64","83","-24579","-6825","-7070","11","150","150.02","112.28","37.73","22.38","54.1","12.64","88628","22.13","DUALSPOT-UV-BLUE-GREEN-RED-IR","684694","676730","904546","15.715027","5.311567","0.005934","793165","874637","837030","12.483700","4.039371","0.018398","785082","853519","830268","11.121698","3.524875","-0.025474","816644","863417","891037","9.423908","2.938488","-0.010988","729387","884415","962498","6.756132","2.008244","-0.039602","1697","1812","1871","1427","1715","1853","1422","1207","1108","1549","1448","1403","1630","1388","1285",""
"MA200-0420","21820","51","1","1.10","1.4","2023-05-04T07:50:30","120","2023/05/04","07:50:30","-15.796691179275513","35.07732380926609","3.4","12","30","64","83","-25275","-4408","-5291","11","150","149.54","111.98","37.56","22.42","54.0","12.64","88596","22.19","DUALSPOT-UV-BLUE-GREEN-RED-IR","684376","676511","904385","15.747004","5.325351","0.019125","792202","873643","836177","12.503162","4.046238","0.005694","785122","853616","830436","11.137636","3.530097","-0.003162","815781","862561","890223","9.437386","2.943507","0.014648","728853","883868","961906","6.769537","2.010566","-0.325422","1677","2155","2400","1288","1355","1387","1181","1154","1141","1207","1340","1401","1672","863","522",""
"MA200-0420","21821","51","1","1.10","1.4","2023-05-04T07:51:00","120","2023/05/04","07:51:00","-15.797512769699097","35.077150486409664","3.3","12","30","64","83","-25116","-2332","-5572","11","150","149.76","112.08","37.67","22.47","53.7","12.60","88644","22.25","DUALSPOT-UV-BLUE-GREEN-RED-IR","686162","678334","906933","15.766426","5.337703","0.036423","794844","876613","839083","12.516249","4.056871","0.054103","786842","855544","832367","11.150409","3.538889","0.054307","811887","858473","886076","9.447766","2.950852","0.065248","730504","885928","964230","6.779922","2.015017","0.041494","1017","1925","2390","865","2092","2681","946","1937","2398","929","1956","2422","1294","1650","1801",""
"MA200-0420","21822","51","1","1.10","1.4","2023-05-04T07:51:30","120","2023/05/04","07:51:30","-15.797305047512054","35.076338820159435","3.2","12","30","64","83","-25152","-3396","-6852","11","150","149.41","112.07","37.34","22.51","53.6","12.61","88664","22.25","DUALSPOT-UV-BLUE-GREEN-RED-IR","687434","679821","909048","15.812759","5.351040","-0.016376","796385","878545","840993","12.549602","4.063767","-0.101875","787461","856405","833260","11.178219","3.545725","-0.055747","812044","858831","886435","9.469000","2.954765","-0.195774","730961","886639","965017","6.798818","2.019739","-0.081190","2428","2097","1928","2206","1369","968","2060","1520","1269","1900","1051","666","2355","1766","1517",""
"MA200-0420","21823","51","1","1.10","1.4","2023-05-04T07:52:00","120","2023/05/04","07:52:00","-15.796952784061432","35.07554464787245","2.6","12","30","64","83","-25150","-2325","-7162","11","150","149.89","112.28","37.60","22.55","53.7","12.69","88736","22.31","DUALSPOT-UV-BLUE-GREEN-RED-IR","688054","680777","910436","15.864477","5.359649","-0.199068","796419","878893","841369","12.588281","4.066437","0.539491","788262","857572","834393","11.211828","3.548127","0.680756","813954","861067","888806","9.499258","2.958813","-0.718645","731702","887757","966252","6.825231","2.022192","5.575241","2705","1344","650","2553","526","-440","2485","530","-374","2703","1079","345","3286","911","-88",""
"MA200-0420","21824","51","1","1.10","1.4","2023-05-04T07:52:30","120","2023/05/04","07:52:30","-15.796089947223663","35.07578030973673","4.3","12","30","64","83","-24728","-4055","-7556","11","150","149.82","112.36","37.46","22.58","53.7","12.72","88748","22.38","DUALSPOT-UV-BLUE-GREEN-RED-IR","682316","675656","903824","15.984991","5.391538","-0.028277","790525","872892","835780","12.666211","4.086745","-0.037561","787960","857621","834577","11.274497","3.563273","-0.059673","814540","862008","889878","9.547457","2.970171","-0.077591","731823","888190","966814","6.866668","2.029924","-0.242771","6299","5000","4338","5141","4018","3484","4630","3356","2768","4303","3041","2472","5151","2883","1931",""
"MA200-0420","21825","51","1","1.10","1.4","2023-05-04T07:53:00","120","2023/05/04","07:53:00","-15.795013844966888","35.07627931237221","3.3","12","30","64","83","-25264","-2060","-6140","11","150","149.87","112.36","37.52","22.63","53.8","12.78","88812","22.38","DUALSPOT-UV-BLUE-GREEN-RED-IR","683985","677438","906286","16.009691","5.398473","-0.019732","792660","875399","838206","12.684790","4.089844","-0.222608","784293","853790","830905","11.291771","3.564942","2.387786","815060","862661","890557","9.563502","2.973838","-0.088357","732029","888564","967226","6.881256","2.031884","-0.811050","1291","1085","981","1225","612","320","1276","369","-49","1432","980","776","1813","729","275",""
"MA200-0420","21826","51","1","1.10","1.4","2023-05-04T07:53:30","120","2023/05/04","07:53:30","-15.794098615646362","35.076826982200146","3.8","12","30","64","83","-24900","-3592","-7475","11","150","149.59","112.25","37.34","22.66","53.9","12.85","88860","22.44","DUALSPOT-UV-BLUE-GREEN-RED-IR","683014","676731","905480","16.064421","5.414867","-0.011008","791499","874380","837298","12.723973","4.099047","-0.060200","783603","853273","830425","11.327085","3.572303","-0.105947","815099","862898","890897","9.593060","2.978909","-0.246057","727024","882630","960807","6.902061","2.034688","-0.781511","2863","2578","2433","2587","1826","1465","2612","1636","1187","2641","1362","786","2589","1048","404",""
"MA200-0420","21827","51","1","1.10","1.4","2023-05-04T07:54:00","120","2023/05/04","07:54:00","-15.793135046958923","35.07743530720472","3.9","12","30","64","83","-24492","-4992","-7520","11","150","149.81","112.15","37.65","22.71","54.1","12.94","88896","22.50","DUALSPOT-UV-BLUE-GREEN-RED-IR","684568","678462","907937","16.103161","5.428318","0.003038","793655","876934","839814","12.748895","4.104621","-0.076144","785388","855371","832506","11.349411","3.577191","-0.091009","810559","858202","886066","9.610675","2.981419","-0.524309","728836","884953","963380","6.918592","2.037516","-0.329464","2028","2098","2133","1647","1097","835","1652","1077","812","1575","668","260","2059","1049","627",""
"MA200-0420","21828","51","1","1.10","1.4","2023-05-04T07:54:30","120","2023/05/04","07:54:30","-15.792218923568726","35.07818581163883","4.6","12","30","64","83","-25079","-5158","-7154","11","150","149.89","112.20","37.68","22.75","54.1","12.98","88868","22.56","DUALSPOT-UV-BLUE-GREEN-RED-IR","685715","679828","909939","16.161934","5.447317","-0.003706","794502","878029","840955","12.783676","4.115492","-0.008900","786094","856294","833467","11.378351","3.585362","-0.026621","812001","859877","887818","9.631762","2.987561","-0.024735","729418","885763","964286","6.934982","2.039734","-0.790723","3076","2961","2902","2297","2138","2063","2141","1800","1643","1885","1635","1522","2040","822","314",""
"MA200-0420","21829","51","1","1.10","1.4","2023-05-04T07:55:00","120","2023/05/04","07:55:00","-15.791180729866028","35.078777983784676","4.9","12","30","64","82","-25088","-3252","-7628","11","150","149.63","111.81","37.82","22.79","54.1","13.01","88876","22.56","DUALSPOT-UV-BLUE-GREEN-RED-IR","685854","680187","910575","16.205290","5.465288","0.015665","789129","872313","835556","12.812006","4.125536","0.005177","786252","856606","833849","11.401458","3.593695","0.007731","811795","859799","887799","9.651652","2.994269","-0.000444","729458","885948","964550","6.951271","2.045185","-0.002222","2277","2791","3052","1878","1968","2011","1715","1829","1881","1784","1779","1777","2035","2013","2004",""
"MA200-0420","21830","51","1","1.10","1.4","2023-05-04T07:55:30","120","2023/05/04","07:55:30","-15.790158927440643","35.07918481528759","4.4","12","30","64","82","-24680","-3056","-6779","11","150","149.50","111.93","37.57","22.83","54.1","13.06","88932","22.63","DUALSPOT-UV-BLUE-GREEN-RED-IR","680916","675490","904447","16.254419","5.480814","-0.005962","789547","873010","836256","12.845218","4.132932","-0.076663","787408","858038","835301","11.430552","3.600442","-0.071940","813587","861818","889952","9.676060","3.000313","-0.063382","730600","887445","966198","6.969400","2.048611","-0.232959","2578","2427","2350","2199","1459","1108","2158","1490","1184","2187","1613","1356","2262","1274","862",""
"MA200-0420","21831","51","1","1.10","1.4","2023-05-04T07:56:00","120","2023/05/04","07:56:00","-15.78909319639206","35.07929714769125","4.2","12","30","64","82","-24758","-3425","-7041","11","150","150.15","112.44","37.71","22.87","54.1","13.10","89000","22.69","DUALSPOT-UV-BLUE-GREEN-RED-IR","679775","674701","903625","16.331654","5.508512","0.005807","788177","871744","835220","12.896933","4.152149","0.010658","786317","857136","834536","11.474063","3.614330","-0.006599","812337","860709","888915","9.712890","3.011577","-0.015052","729646","886482","965183","6.997652","2.055660","-0.081260","4034","4314","4457","3409","3778","3953","3212","3057","2986","3286","2997","2867","3509","2611","2237",""
"MA200-0420","21832","51","1","1.10","1.4","2023-05-04T07:56:30","120","2023/05/04","07:56:30","-15.788058638572693","35.07921364158392","4.1","12","30","64","83","-24688","-3896","-7824","11","150","149.50","112.31","37.19","22.90","54.1","13.11","89024","22.69","DUALSPOT-UV-BLUE-GREEN-RED-IR","682352","677540","907677","16.396687","5.532766","0.009754","791628","875827","839261","12.939043","4.165698","-0.003391","782742","853478","831075","11.510455","3.625554","-0.009692","814589","863300","891679","9.741357","3.020023","-0.018249","730688","887918","966836","7.020527","2.060852","-0.114398","3401","3830","4048","2779","2700","2662","2690","2505","2420","2543","2278","2159","2845","1949","1577",""
"MA200-0420","21833","51","1","1.10","1.4","2023-05-04T07:57:00","120","2023/05/04","07:57:00","-15.787242531776428","35.07943347841501","1.6","12","30","64","82","-24904","-3116","-6950","11","150","149.50","111.85","37.65","22.94","54.2","13.18","89044","22.69","DUALSPOT-UV-BLUE-GREEN-RED-IR","683148","678574","909191","16.453623","5.549595","-0.013706","792511","877059","840487","12.979289","4.173804","-0.111799","783696","854734","832343","11.544530","3.630954","-0.293310","815335","864253","892695","9.772088","3.026647","-0.111315","731643","889230","968277","7.043300","2.064824","-0.304100","2989","2625","2439","2667","1596","1088","2529","1190","576","2756","1765","1320","2844","1473","905",""
"MA200-0420","21834","51","1","1.10","1.4","2023-05-04T07:57:30","120","2023/05/04","07:57:30","-15.787591278553009","35.079318806529045","3.7","12","30","64","82","-24760","-4880","-6756","11","150","150.15","112.12","38.03","22.98","54.1","13.21","89036","22.75","DUALSPOT-UV-BLUE-GREEN-RED-IR","683609","679433","910598","16.527885","5.576147","0.004576","793269","878202","841726","13.021498","4.188067","-0.000416","784240","855531","833216","11.578706","3.642678","0.001422","810038","858822","887162","9.796746","3.034466","-0.010612","727384","884181","962854","7.063226","2.068847","-0.189401","3890","4101","4208","2790","2780","2775","2530","2559","2573","2206","2063","1998","2482","1478","1061",""
"MA200-0420","21835","51","1","1.10","1.4","2023-05-04T07:58:00","120","2023/05/04","07:58:00","-15.788368582725525","35.07923647761345","3.4","12","30","64","82","-24541","-4854","-7850","11","150","149.38","112.28","37.09","23.02","54.2","13.26","89008","22.81","DUALSPOT-UV-BLUE-GREEN-RED-IR","678042","674137","903700","16.594728","5.598802","0.002270","787035","871510","835432","13.064649","4.200221","-0.021254","784809","856384","834108","11.615922","3.651315","-0.065997","811248","860285","888748","9.826869","3.043406","-0.017572","728036","885145","963953","7.086126","2.074040","-0.112409","3496","3587","3633","2849","2428","2229","2751","1933","1557","2691","2417","2295","2849","1955","1585",""
"MA200-0420","21836","51","1","1.10","1.4","2023-05-04T07:58:30","120","2023/05/04","07:58:30","-15.789157807826996","35.079304814338684","2.8","12","30","64","82","-24829","-5425","-6975","11","150","149.95","112.08","37.87","23.06","54.1","13.26","88992","22.81","DUALSPOT-UV-BLUE-GREEN-RED-IR","678522","674847","904885","16.658199","5.627489","0.020279","787840","872602","836610","13.104096","4.216791","0.020152","785081","856822","834657","11.649045","3.666335","0.028596","812366","861618","890218","9.854690","3.053074","0.004045","728676","886069","964996","7.107767","2.079570","-0.073874","3326","4449","5022","2609","3244","3545","2453","3293","3678","2490","2561","2593","2697","2040","1768",""
"MA200-0420","21837","51","1","1.10","1.4","2023-05-04T07:59:00","120","2023/05/04","07:59:00","-15.789945185184479","35.07927547395229","2.7","12","30","64","82","-24508","-5160","-8100","11","150","150.07","112.01","38.06","23.10","53.9","13.26","88956","22.88","DUALSPOT-UV-BLUE-GREEN-RED-IR","679906","676448","907296","16.715553","5.649744","0.010559","789495","874630","838679","13.141685","4.232079","0.017128","780540","852009","830121","11.682394","3.677785","0.001277","812424","861814","890515","9.881799","3.063383","0.014893","728656","886159","965140","7.128971","2.086816","0.001109","3007","3434","3652","2487","2977","3210","2471","2497","2509","2428","2717","2847","2644","2659","2665",""
"MA200-0420","21838","51","1","1.10","1.4","2023-05-04T07:59:30","120","2023/05/04","07:59:30","-15.790697455406189","35.07899548113346","3.1","12","30","64","82","-24729","-5762","-7075","11","150","149.53","112.11","37.42","23.15","53.8","13.26","88924","22.94","DUALSPOT-UV-BLUE-GREEN-RED-IR","680584","677366","908641","16.765162","5.670303","0.015948","790480","875956","840024","13.174664","4.243076","-0.000120","781834","853628","831734","11.709503","3.687000","0.002219","814108","863763","892583","9.904406","3.069826","-0.027160","729676","887547","966719","7.147669","2.090945","-0.128389","2599","3226","3547","2180","2178","2177","2007","2044","2061","2023","1727","1594","2329","1541","1214",""
"MA200-0420","21839","51","1","1.10","1.4","2023-05-04T08:00:00","120","2023/05/04","08:00:00","-15.791463673114777","35.07867465168238","3.5","12","30","64","82","-24752","-5020","-7892","11","150","149.44","112.01","37.43","23.21","53.8","13.32","88892","23.00","DUALSPOT-UV-BLUE-GREEN-RED-IR","679524","676675","907953","16.835590","5.691850","-0.008695","789030","874698","838921","13.223571","4.255105","-0.048218","780856","852858","831081","11.752311","3.695953","-0.102279","806439","855879","884505","9.940653","3.078609","-0.066593","724147","881043","959669","7.175594","2.096878","-0.147795","3693","3381","3221","3236","2382","1976","3173","1985","1440","3246","2354","1953","3482","2214","1690",""
"MA200-0420","21840","51","1","1.10","1.4","2023-05-04T08:00:30","120","2023/05/04","08:00:30","-15.792302072048187","35.07816081494093","3.9","12","30","64","82","-24958","-4483","-7300","11","150","149.44","112.20","37.23","23.22","53.8","13.34","88880","23.00","DUALSPOT-UV-BLUE-GREEN-RED-IR","675896","673287","903608","16.898658","5.716820","0.013365","785467","870913","835406","13.261929","4.268581","0.006010","782750","855089","833331","11.785453","3.706759","-0.002213","809137","858858","887681","9.966857","3.086974","-0.005842","726148","883566","962458","7.195534","2.101553","-0.098406","3301","3938","4264","2534","2683","2753","2452","2409","2389","2343","2254","2214","2482","1753","1453",""
"MA200-0420","21841","51","1","1.10","1.4","2023-05-04T08:01:00","120","2023/05/04","08:01:00","-15.792723000049591","35.07749832421541","3.4","12","30","64","82","-24966","-279","-6908","11","150","150.33","112.59","37.74","23.27","53.8","13.37","88948","23.06","DUALSPOT-UV-BLUE-GREEN-RED-IR","676962","674540","905450","16.952850","5.736259","0.005652","786709","872507","837002","13.298385","4.279829","-0.010004","783206","855788","834063","11.817109","3.715795","-0.023394","809489","859433","888338","9.994728","3.095131","-0.022553","726172","883741","962706","7.216720","2.106578","-0.097441","2827","3025","3126","2400","2209","2118","2334","1987","1828","2483","2168","2026","2628","1860","1543",""
"MA200-0420","21842","51","1","1.10","1.4","2023-05-04T08:01:30","120","2023/05/04","08:01:30","-15.792253255844116","35.076727487146854","1.1","12","30","64","82","-25220","-48","-7800","11","150","149.94","112.15","37.79","23.31","53.8","13.43","89056","23.06","DUALSPOT-UV-BLUE-GREEN-RED-IR","676585","674353","905354","16.993916","5.751016","0.005371","786078","871993","836587","13.326075","4.285634","-0.094308","782277","854917","833281","11.840306","3.721470","-0.056240","808917","858965","887865","10.015607","3.099382","-0.134059","725634","883185","962126","7.233064","2.109630","-0.234884","2150","2293","2366","1830","1138","811","1717","1246","1030","1867","1128","797","2035","1128","754",""
"MA200-0420","21843","51","1","1.10","1.4","2023-05-04T08:02:00","120","2023/05/04","08:02:00","-15.792497992515564","35.077152982354164","2.9","12","30","64","82","-24492","-7296","-6615","11","150","149.89","111.77","38.12","23.36","53.8","13.45","88996","23.13","DUALSPOT-UV-BLUE-GREEN-RED-IR","678757","676681","908637","17.035236","5.766666","0.008406","788558","874878","839437","13.350816","4.295904","0.018162","780021","852559","831049","11.862274","3.729504","0.008058","812487","862813","891903","10.032408","3.104508","-0.017947","727919","886113","965382","7.249059","2.113332","-0.114487","2171","2411","2534","1641","1997","2166","1631","1750","1804","1508","1349","1278","1999","1356","1092",""
"MA200-0420","21844","51","1","1.10","1.4","2023-05-04T08:02:30","120","2023/05/04","08:02:30","-15.792868316173553","35.0776996538043","2.5","12","30","64","82","-24020","-5908","-7632","11","150","149.87","112.07","37.81","23.41","53.5","13.43","88920","23.19","DUALSPOT-UV-BLUE-GREEN-RED-IR","679152","677240","909598","17.079020","5.789078","0.025706","789834","876375","840987","13.377189","4.310549","0.036483","780358","853061","831650","11.885736","3.741056","0.033771","812523","862952","892147","10.050377","3.113208","0.038475","727966","886245","965577","7.263761","2.118371","0.003014","2294","3481","4090","1744","2871","3407","1738","2536","2903","1608","2308","2622","1832","1861","1873",""
"MA200-0420","21845","51","1","1.10","1.4","2023-05-04T08:03:00","120","2023/05/04","08:03:00","-15.793638527393341","35.077088326215744","3.8","12","30","64","82","-24664","-5316","-7932","11","150","149.82","112.40","37.42","23.45","53.4","13.42","88928","23.19","DUALSPOT-UV-BLUE-GREEN-RED-IR","680026","678286","911172","17.128324","5.808660","0.013197","784475","870665","835609","13.411198","4.321397","-0.004911","781300","854255","832874","11.913574","3.751003","0.008121","806982","857217","886288","10.076545","3.122735","0.011853","728497","887019","966452","7.284824","2.124358","-0.035692","2576","3073","3328","2243","2149","2104","2056","2207","2276","2335","2554","2652","2617","2235","2077",""
"MA200-0420","21846","51","1","1.10","1.4","2023-05-04T08:03:30","120","2023/05/04","08:03:30","-15.794414818286896","35.07673531025648","3.2","12","30","64","82","-24444","-4932","-8376","11","150","150.23","112.13","38.10","23.50","53.3","13.45","88884","23.25","DUALSPOT-UV-BLUE-GREEN-RED-IR","675048","673640","905064","17.188654","5.827093","-0.010457","785156","871675","836676","13.452281","4.332608","-0.030402","781732","854964","833642","11.950926","3.759706","-0.070850","807992","858480","887638","10.105783","3.129070","-0.109266","724482","882293","961336","7.306917","2.129294","-0.127939","3160","2841","2678","2716","2181","1927","2765","1896","1497","2615","1668","1243","2752","1810","1422",""
"MA200-0420","21847","51","1","1.10","1.4","2023-05-04T08:04:00","120","2023/05/04","08:04:00","-15.794828534126282","35.076282642781734","3.0","12","30","64","82","-24915","-1342","-6430","11","150","149.85","112.30","37.54","23.55","53.3","13.51","88876","23.31","DUALSPOT-UV-BLUE-GREEN-RED-IR","675936","674708","906621","17.236528","5.842996","-0.000557","785961","872736","837751","13.484028","4.340506","-0.044925","777694","850702","829539","11.977498","3.765487","-0.086623","809625","860346","889616","10.129161","3.135627","-0.030013","725594","883768","962969","7.324524","2.132359","-0.284921","2503","2488","2480","2095","1559","1305","1964","1278","964","2088","1752","1601","2190","1140","709",""
"MA200-0420","21848","51","1","1.10","1.4","2023-05-04T08:04:30","120","2023/05/04","08:04:30","-15.794371664524078","35.07544181495905","2.8","12","30","64","82","-25028","-1919","-7424","11","150","150.08","112.48","37.61","23.59","53.4","13.57","88996","23.38","DUALSPOT-UV-BLUE-GREEN-RED-IR","676279","675326","907643","17.299532","5.862379","-0.007943","786683","873873","838896","13.527686","4.349697","-0.088848","777937","851228","830106","12.014009","3.773367","-0.089034","810964","861985","891397","10.159423","3.141273","-0.174869","726019","884464","963774","7.350473","2.136529","-0.372111","3290","3027","2892","2877","1811","1306","2694","1739","1302","2699","1506","972","3222","1548","862",""
"MA200-0420","21849","51","1","1.10","1.4","2023-05-04T08:05:00","120","2023/05/04","08:05:00","-15.794064164161682","35.07479714602232","2.3","12","30","64","82","-24780","-4420","-7715","11","150","150.15","112.24","37.90","23.65","53.6","13.66","89028","23.44","DUALSPOT-UV-BLUE-GREEN-RED-IR","677629","676980","910134","17.358584","5.884010","0.006546","788769","876423","841460","13.564466","4.360229","-0.021294","778961","852543","831469","12.043472","3.778779","-0.164503","811575","862804","892275","10.182944","3.146709","-0.082567","726764","885522","964977","7.367759","2.138737","-0.957879","3090","3351","3486","2429","2059","1884","2179","1185","731","2102","1438","1142","2151","814","267",""
"MA200-0420","21850","51","1","1.10","1.4","2023-05-04T08:05:30","120","2023/05/04","08:05:30","-15.793679177761078","35.07404964417219","2.0","12","30","64","82","-24420","-4164","-6252","11","150","149.81","112.77","37.03","23.69","53.7","13.73","89036","23.50","DUALSPOT-UV-BLUE-GREEN-RED-IR","671651","672297","904728","17.588958","5.961670","0.002190","782563","870671","836462","13.713833","4.406852","-0.005741","778891","853373","832706","12.164574","3.816038","-0.008329","805577","857094","886741","10.272943","3.174278","-0.010490","726549","885772","965536","7.432972","2.159302","-0.007980","11998","12316","12479","9818","9332","9102","8915","8352","8095","8006","7468","7227","8078","7757","7625",""
"MA200-0420","21851","51","1","1.10","1.4","2023-05-04T08:06:00","120","2023/05/04","08:06:00","-15.79324734210968","35.07343681156635","3.1","13","30","64","81","-24566","-6908","-6762","11","150","149.41","112.14","37.27","23.73","53.9","13.83","88988","23.50","DUALSPOT-UV-BLUE-GREEN-RED-IR","670010","671691","904607","17.886310","6.065601","0.004052","781227","870204","836495","13.931377","4.477567","-0.002400","777013","852182","831910","12.351986","3.875744","-0.005206","804282","856489","886434","10.428452","3.223480","-0.007166","725471","885037","964944","7.543026","2.192376","-0.020699","15574","16379","16791","14381","14065","13916","13875","13300","13037","13913","13244","12945","13709","12396","11858",""
"MA200-0420","21852","51","1","1.10","1.4","2023-05-04T08:06:30","120","2023/05/04","08:06:30","-15.79241168498993","35.07298481464386","4.5","13","30","64","82","-25392","-3907","-6108","11","150","149.53","112.15","37.38","23.77","54.0","13.92","88972","23.56","DUALSPOT-UV-BLUE-GREEN-RED-IR","672195","674143","908153","17.948752","6.089399","0.009937","783581","873102","839357","13.971831","4.489977","-0.009519","779561","855244","834968","12.387601","3.886664","-0.010675","807978","860636","890787","10.455862","3.230290","-0.055795","723294","882534","962272","7.564371","2.195950","-0.310170","3270","3739","3980","2674","2460","2360","2636","2425","2328","2452","1827","1548","2658","1335","794",""
"MA200-0420","21853","51","1","1.10","1.4","2023-05-04T08:07:00","120","2023/05/04","08:07:00","-15.792012751102448","35.07210631668568","3.5","13","30","64","82","-24491","-6887","-6720","11","150","149.60","112.32","37.28","23.82","54.2","14.01","88960","23.63","DUALSPOT-UV-BLUE-GREEN-RED-IR","672902","675050","909582","18.005582","6.109667","0.005614","784541","874328","840632","14.006171","4.498453","-0.043358","775203","850594","830499","12.417085","3.892409","-0.121559","808776","861615","891809","10.478915","3.234534","-0.172784","723748","883212","963028","7.582861","2.198589","-0.537085","2972","3192","3306","2266","1685","1410","2179","1279","868","2059","1142","732","2299","988","453",""
"MA200-0420","21854","51","1","1.10","1.4","2023-05-04T08:07:30","120","2023/05/04","08:07:30","-15.791464865207672","35.07194998860359","4.0","13","30","64","81","-24808","-4470","-7316","11","150","149.65","112.55","37.09","23.87","54.2","14.04","88912","23.69","DUALSPOT-UV-BLUE-GREEN-RED-IR","672203","674624","909224","18.068070","6.136825","0.018019","777827","867069","833803","14.044561","4.514904","0.021839","779493","855530","835416","12.447524","3.905707","0.025848","808318","861265","891581","10.505035","3.245293","0.025277","723248","882745","962546","7.602941","2.203646","-0.065392","3260","4300","4834","2528","3287","3647","2245","2976","3310","2328","2910","3170","2492","1904","1664",""
"MA200-0420","21855","51","1","1.10","1.4","2023-05-04T08:08:00","120","2023/05/04","08:08:00","-15.79044896364212","35.07244447618723","4.2","13","30","64","82","-25036","-3707","-7440","11","150","150.21","112.69","37.53","23.91","54.2","14.10","88948","23.75","DUALSPOT-UV-BLUE-GREEN-RED-IR","669002","671567","905205","18.111096","6.151594","0.002456","780563","870244","836931","14.071833","4.523999","0.000162","776736","852645","832635","12.471098","3.911101","-0.067165","805279","858143","888378","10.524220","3.250501","-0.034685","725366","885406","965525","7.619240","2.207532","-0.087520","2242","2311","2347","1794","1796","1798","1736","1193","945","1708","1392","1251","2020","1446","1212",""
"MA200-0420","21856","51","1","1.10","1.4","2023-05-04T08:08:30","120","2023/05/04","08:08:30","-15.789465188980103","35.07289680838585","4.1","13","30","64","82","-24733","-2566","-7929","11","150","150.02","112.52","37.51","23.97","54.1","14.12","89028","23.81","DUALSPOT-UV-BLUE-GREEN-RED-IR","670454","673149","907521","18.146312","6.169191","0.023725","781709","871635","838347","14.093078","4.534900","0.031434","777728","853752","833809","12.490368","3.920275","0.030759","806810","859857","890225","10.540109","3.257288","0.027460","726462","886869","967146","7.633411","2.211251","-0.055984","1838","2755","3228","1399","2154","2513","1421","2030","2308","1416","1815","1993","1759","1385","1232",""
"MA200-0420","21857","51","1","1.10","1.4","2023-05-04T08:09:00","120","2023/05/04","08:09:00","-15.788696885108948","35.073311142623425","3.0","13","30","64","82","-24575","-3900","-6875","11","150","149.67","112.19","37.48","24.01","53.9","14.11","89080","23.88","DUALSPOT-UV-BLUE-GREEN-RED-IR","671366","674325","909410","18.214188","6.198827","0.017440","783196","873542","840383","14.142858","4.555584","0.018703","778503","854860","835050","12.534037","3.938043","0.019247","807178","860440","890982","10.578218","3.272741","0.022354","726141","886653","967021","7.664278","2.221118","-0.008424","3553","4644","5207","3289","4091","4472","3231","3936","4258","3407","4136","4463","3843","3677","3610",""
"MA200-0420","21858","51","1","1.10","1.4","2023-05-04T08:09:30","120","2023/05/04","08:09:30","-15.788155198097229","35.07364448159933","1.9","13","30","64","82","-25316","-1329","-6675","11","150","149.94","112.44","37.50","24.06","53.7","14.08","89108","23.88","DUALSPOT-UV-BLUE-GREEN-RED-IR","671190","674526","910011","18.288306","6.231937","0.018583","783427","874213","841220","14.197756","4.579723","0.022520","773955","850170","830691","12.582302","3.959864","0.027149","808112","861711","892488","10.619331","3.290542","0.028412","722318","882189","962270","7.695158","2.232103","0.011148","3871","5185","5864","3619","4771","5320","3563","4830","5412","3668","4762","5253","3836","4092","4196",""
"MA200-0420","21859","51","1","1.10","1.4","2023-05-04T08:10:00","120","2023/05/04","08:10:00","-15.787461638450623","35.0738518089056","2.6","13","30","64","82","-24836","-2132","-7732","11","150","149.56","112.56","37.00","24.12","53.6","14.11","89160","23.94","DUALSPOT-UV-BLUE-GREEN-RED-IR","666550","670546","905185","18.467164","6.299244","0.009753","777473","868291","835937","14.348482","4.633851","0.008369","774170","851130","831970","12.716328","4.006070","0.005223","802429","856205","887086","10.734468","3.331550","0.010056","722923","883384","963804","7.777517","2.259673","0.003234","9333","10684","11383","9927","10844","11281","9885","10367","10588","10262","11119","11504","10221","10408","10485",""
"MA200-0420","21860","51","1","1.10","1.4","2023-05-04T08:10:30","120","2023/05/04","08:10:30","-15.786881506443024","35.07411564141512","2.3","13","30","64","82","-24737","-3608","-7595","11","150","150.08","112.69","37.39","24.15","53.7","14.16","89196","24.00","DUALSPOT-UV-BLUE-GREEN-RED-IR","667309","671621","906900","18.545782","6.324413","-0.003036","778721","870029","837729","14.401621","4.646469","-0.050233","775089","852408","833296","12.765004","4.016167","-0.094551","803966","858096","889129","10.772799","3.338825","-0.151617","723781","884635","965182","7.804973","2.263704","-0.468477","4097","3953","3879","3495","2501","2028","3586","2242","1624","3412","1951","1295","3403","1506","730",""
"MA200-0420","21861","51","1","1.10","1.4","2023-05-04T08:11:00","120","2023/05/04","08:11:00","-15.786275565624237","35.07440447807312","2.7","13","30","64","82","-24825","-3845","-6937","11","150","149.94","112.73","37.21","24.20","53.6","14.19","89208","24.06","DUALSPOT-UV-BLUE-GREEN-RED-IR","668163","672803","908722","18.615628","6.352470","0.013307","779940","871671","839460","14.451054","4.664756","0.010465","775534","853130","834139","12.806740","4.031610","0.011716","804940","859372","890569","10.808331","3.351548","0.010117","724273","885425","966162","7.832910","2.272184","-0.016317","3639","4428","4837","3250","3643","3830","3073","3445","3616","3162","3430","3550","3461","3183","3069",""
"MA200-0420","21862","51","1","1.10","1.4","2023-05-04T08:11:30","120","2023/05/04","08:11:30","-15.785560369491577","35.07481397688389","3.5","13","30","64","82","-25060","-2744","-6928","11","150","150.15","112.65","37.50","24.25","53.5","14.19","89252","24.13","DUALSPOT-UV-BLUE-GREEN-RED-IR","667987","673446","910408","18.761878","6.414089","0.015326","779609","872312","840757","14.580514","4.716885","0.016224","770908","848943","830630","12.923404","4.076654","0.014645","805051","860346","892113","10.913772","3.390764","0.013322","724184","886037","967233","7.916393","2.299622","-0.002301","7625","9651","10703","8519","10305","11159","8598","9972","10605","9390","10492","10988","10352","10221","10167",""
"MA200-0420","21863","51","1","1.10","1.4","2023-05-04T08:12:00","120","2023/05/04","08:12:00","-15.784876048564911","35.075368486344814","3.3","13","30","64","81","-24952","-1956","-7043","11","150","150.08","112.84","37.25","24.31","53.2","14.18","89336","24.13","DUALSPOT-UV-BLUE-GREEN-RED-IR","657918","665868","902458","19.340272","6.646496","0.012859","774967","870275","840664","15.115892","4.923821","0.013380","765964","846497","829947","13.431342","4.267818","0.012687","800705","858454","891817","11.375035","3.560198","0.012397","716112","878472","960329","8.282171","2.427709","0.009568","30108","36649","40074","35174","41187","44091","37373","42610","45050","41013","45639","47746","45285","48040","49182",""
"MA200-0420","21864","51","1","1.10","1.4","2023-05-04T08:12:30","120","2023/05/04","08:12:30","-15.78463476896286","35.075938142836094","2.0","13","30","64","82","-24952","-3504","-5012","11","150","149.38","112.12","37.25","24.35","53.0","14.16","89412","24.19","DUALSPOT-UV-BLUE-GREEN-RED-IR","654257","666133","906526","20.318668","7.041103","0.012139","765302","864200","837690","15.976377","5.253274","0.011582","761673","846112","832211","14.230230","4.568726","0.011561","790640","851703","887222","12.090705","3.821572","0.010482","713874","879041","962899","8.831545","2.619443","0.007579","51252","62218","68033","56892","65562","69809","59154","67062","70802","64037","70393","73330","68446","71899","73356",""
"MA200-0420","21865","51","1","1.10","1.4","2023-05-04T08:13:00","120","2023/05/04","08:13:00","-15.785012066364288","35.076372154057026","1.8","13","30","64","81","-25028","-3780","-7524","11","150","149.76","112.36","37.39","24.40","52.8","14.14","89428","24.25","DUALSPOT-UV-BLUE-GREEN-RED-IR","649247","664474","907558","21.090534","7.357267","0.012407","760116","862707","839004","16.710739","5.541039","0.012553","756639","844743","833408","14.933782","4.837870","0.012124","786187","850870","888803","12.741272","4.063362","0.011484","710453","878233","964088","9.359243","2.807424","0.009760","40348","49660","54648","48451","57048","61312","51984","59755","63478","58089","64870","68046","65607","70224","72202",""
"MA200-0420","21866","51","1","1.10","1.4","2023-05-04T08:13:30","120","2023/05/04","08:13:30","-15.785280287265778","35.07667065411806","1.2","13","30","64","81","-24537","-4270","-7625","11","150","150.15","112.55","37.60","24.45","52.7","14.14","89432","24.25","DUALSPOT-UV-BLUE-GREEN-RED-IR","640768","660641","907075","22.451492","7.925684","0.012423","750553","857972","838396","18.002598","6.056220","0.012555","746866","839690","832175","16.175283","5.321896","0.012325","776765","846316","887691","13.895651","4.500222","0.011818","703240","874148","962677","10.295282","3.145616","0.010208","71024","88799","98497","85091","101580","109939","91580","106882","114384","102902","116573","123121","116180","125655","129824",""
"MA200-0420","21867","51","1","1.10","1.4","2023-05-04T08:14:00","120","2023/05/04","08:14:00","-15.785713493824005","35.077183149755","2.3","13","30","64","81","-24368","-4724","-8984","11","150","149.76","112.08","37.67","24.49","52.5","14.13","89424","24.31","DUALSPOT-UV-BLUE-GREEN-RED-IR","634999","659604","910822","23.384910","8.321995","0.012407","738314","850380","835450","18.908718","6.426019","0.012960","739962","838035","834673","17.041782","5.667102","0.012754","771168","846041","891348","14.702329","4.813657","0.012810","698584","873488","965343","10.961391","3.392689","0.011904","48914","61792","68907","59930","72772","79383","64182","76079","82007","72206","83475","88961","83019","91621","95477",""
"MA200-0420","21868","51","1","1.10","1.4","2023-05-04T08:14:30","120","2023/05/04","08:14:30","-15.785998344421387","35.07757131010294","2.0","13","30","64","81","-23940","-6504","-9720","11","150","149.44","112.28","37.15","24.55","52.3","14.13","89400","24.38","DUALSPOT-UV-BLUE-GREEN-RED-IR","624878","652530","904682","24.831520","8.949558","0.013175","732738","848339","836475","20.304752","7.006741","0.013883","730663","831818","831476","18.408042","6.223321","0.014022","760640","838720","886565","15.992412","5.322958","0.014032","695195","872988","967282","12.023243","3.793592","0.014203","75673","99207","112469","92171","115868","128353","101023","124287","136170","115272","137524","148625","132109","150731","159315",""
"MA200-0420","21869","51","1","1.10","1.4","2023-05-04T08:15:00","120","2023/05/04","08:15:00","-15.786451697349548","35.0780281573534","2.5","13","30","64","81","-24425","-7533","-5500","11","150","149.89","112.13","37.76","24.59","52.1","14.10","89308","24.44","DUALSPOT-UV-BLUE-GREEN-RED-IR","624363","652443","905052","24.978420","9.014656","0.013245","732274","848220","836617","20.412724","7.052309","0.013669","730004","831432","831256","18.506072","6.263339","0.013127","759326","837586","885579","16.081373","5.358026","0.012670","694149","871973","966282","12.094372","3.817539","-0.000027","7694","10125","11498","7138","8946","9900","7258","8798","9587","7959","9317","9996","8861","8859","8858",""
"MA200-0420","21870","51","1","1.10","1.4","2023-05-04T08:15:30","120","2023/05/04","08:15:30","-15.787204027175903","35.07790098339319","2.7","13","30","64","81","-24995","-5408","-6558","11","150","149.76","112.56","37.20","24.63","51.8","14.05","89272","24.50","DUALSPOT-UV-BLUE-GREEN-RED-IR","625402","654168","908157","25.139492","9.085217","0.013432","734185","850907","839626","20.501498","7.088310","0.012571","731750","833808","833892","18.576158","6.289911","0.009801","762624","841511","889918","16.130819","5.375900","0.007647","691927","869393","963509","12.127510","3.826813","-0.023760","8405","11141","12690","5846","7174","7876","5169","5930","6320","4407","4820","5027","4112","3483","3192",""
"MA200-0420","21871","51","1","1.10","1.4","2023-05-04T08:16:00","120","2023/05/04","08:16:00","-15.787995219230652","35.07768415659666","3.1","13","30","64","81","-24804","-4858","-6650","11","150","149.94","112.56","37.38","24.68","51.4","13.98","89244","24.50","DUALSPOT-UV-BLUE-GREEN-RED-IR","626236","655326","910120","25.257282","9.138676","0.014450","735269","852415","841293","20.568690","7.118750","0.017395","732106","834386","834622","18.629442","6.313732","0.018455","763517","842643","891248","16.171957","5.393575","0.018924","692276","869946","964209","12.156265","3.836102","-0.003402","6146","8400","9678","4425","6037","6890","3929","5291","5989","3666","4744","5283","3568","3471","3426",""
"MA200-0420","21872","51","1","1.10","1.4","2023-05-04T08:16:30","120","2023/05/04","08:16:30","-15.78879451751709","35.07755848020315","2.9","13","30","64","81","-24316","-5816","-7729","11","150","150.02","112.05","37.97","24.73","51.2","13.96","89224","24.56","DUALSPOT-UV-BLUE-GREEN-RED-IR","620379","649268","901755","25.274140","9.146225","0.013255","734129","851152","840077","20.582628","7.123513","0.000596","731708","833992","834270","18.642190","6.317990","-0.001211","762733","841850","890426","16.184343","5.397849","0.001657","691715","869330","963585","12.170597","3.840661","-0.008101","883","1167","1328","922","929","933","944","930","923","1109","1129","1139","1786","1677","1626",""
"MA200-0420","21873","51","1","1.10","1.4","2023-05-04T08:17:00","120","2023/05/04","08:17:00","-15.789588034152985","35.077653147280216","3.1","13","30","64","81","-24384","-6344","-7732","11","150","149.90","112.29","37.61","24.77","51.1","13.97","89172","24.63","DUALSPOT-UV-BLUE-GREEN-RED-IR","622608","651711","905223","25.296218","9.153595","-0.000210","730833","847423","836444","20.597974","7.126159","-0.139428","729018","831047","831332","18.657116","6.319540","1.292992","759469","838358","886743","16.197287","5.400698","-0.065356","693447","871634","966149","12.182472","3.841850","3.518946","1154","1151","1148","1013","521","261","1103","342","-47","1156","760","561","1477","441","-35",""
"MA200-0420","21874","51","1","1.10","1.4","2023-05-04T08:17:30","120","2023/05/04","08:17:30","-15.790120244026184","35.07792314887047","2.8","13","30","64","81","-24336","-8456","-7784","11","150","149.69","112.64","37.05","24.82","50.9","13.96","89088","24.63","DUALSPOT-UV-BLUE-GREEN-RED-IR","623328","652924","907378","25.374378","9.186913","0.012486","731889","849180","838514","20.661820","7.152171","0.012936","728947","831411","831993","18.713928","6.341878","0.012183","759562","838849","887521","16.246344","5.418593","0.008640","693270","871732","966428","12.220795","3.852143","-0.029957","4075","5281","5965","4201","5204","5734","4187","5005","5424","4369","4845","5083","4752","3880","3479",""
"MA200-0420","21875","51","1","1.10","1.4","2023-05-04T08:18:00","120","2023/05/04","08:18:00","-15.790335237979889","35.07861864566803","2.4","13","30","64","81","-24344","-7343","-7404","11","150","149.38","112.32","37.05","24.87","50.7","13.93","89016","24.69","DUALSPOT-UV-BLUE-GREEN-RED-IR","622855","653406","909080","25.678260","9.317570","0.012560","732093","850456","840517","20.909676","7.254756","0.013415","728981","832403","833649","18.936582","6.432055","0.013539","759391","839506","888809","16.436893","5.492785","0.012961","693687","872954","968191","12.360413","3.902966","0.010623","15890","20710","23455","16358","20523","22736","16457","20204","22132","17020","20088","21627","17364","19160","19988",""
"MA200-0420","21876","51","1","1.10","1.4","2023-05-04T08:18:30","120","2023/05/04","08:18:30","-15.790614128112793","35.078998140990734","3.0","13","30","64","81","-24772","-5696","-7304","11","150","149.95","112.36","37.59","24.90","50.4","13.87","88964","24.75","DUALSPOT-UV-BLUE-GREEN-RED-IR","621532","652120","907433","25.715924","9.334736","0.014101","730136","848292","838477","20.937380","7.267988","0.018905","727993","831377","832697","18.961068","6.442907","0.017392","759108","839267","888633","16.458256","5.503210","0.024788","688071","865947","960515","12.380455","3.909605","-0.001189","1968","2682","3088","1827","2609","3025","1809","2396","2699","1907","2782","3221","2491","2467","2455",""
"MA200-0420","21877","51","1","1.10","1.4","2023-05-04T08:19:00","120","2023/05/04","08:19:00","-15.791385233402252","35.078706316649914","3.1","13","30","64","81","-24728","-5460","-7568","11","150","149.50","112.28","37.22","24.94","50.2","13.87","88912","24.75","DUALSPOT-UV-BLUE-GREEN-RED-IR","622349","653765","910611","25.871494","9.404408","0.013743","731211","850500","841289","21.073204","7.322860","0.011919","728782","833120","834993","19.080210","6.489841","0.011646","760803","841867","891897","16.561264","5.543128","0.012242","689315","868155","963314","12.457478","3.937799","0.010632","8138","10996","12628","8967","10930","11975","8809","10470","11326","9204","10761","11544","9582","10583","11045",""
"MA200-0420","21878","51","1","1.10","1.4","2023-05-04T08:19:30","120","2023/05/04","08:19:30","-15.792188584804535","35.078260473906994","3.5","13","30","64","81","-24764","-4492","-7604","11","150","150.08","112.48","37.60","24.99","50.1","13.89","88912","24.81","DUALSPOT-UV-BLUE-GREEN-RED-IR","614351","647982","905312","26.064126","9.487610","0.012079","722444","843514","836680","21.245034","7.393552","0.012308","720871","826725","830483","19.227578","6.548880","0.012038","757358","840441","892022","16.685621","5.590932","0.011036","686864","867038","963451","12.558662","3.973649","0.006424","10058","12998","14680","11324","13938","15334","10877","13037","14152","11092","12756","13595","12566","13320","13669",""
"MA200-0420","21879","51","1","1.10","1.4","2023-05-04T08:20:00","120","2023/05/04","08:20:00","-15.793173670768738","35.07748982310295","5.5","13","30","64","80","-24648","-4144","-7900","11","150","149.44","112.44","37.00","25.03","50.1","13.92","88944","24.88","DUALSPOT-UV-BLUE-GREEN-RED-IR","603669","642775","904717","28.338306","10.477592","0.011957","710725","836997","835426","23.265876","8.244390","0.012988","710437","821703","830287","21.116258","7.327847","0.013243","747623","836119","892104","18.371150","6.268026","0.013667","679797","863429","963134","13.859818","4.476347","0.014764","118797","157168","179678","133236","170487","190932","139455","174804","193590","150395","183613","200815","161654","189811","203243",""
"MA200-0420","21880","51","1","1.10","1.4","2023-05-04T08:20:30","120","2023/05/04","08:20:30","-15.794032156467438","35.07689631730318","2.7","13","30","64","81","-24420","-5650","-7270","11","150","149.89","112.24","37.64","25.08","50.1","13.96","88920","24.94","DUALSPOT-UV-BLUE-GREEN-RED-IR","605219","644544","907313","28.359852","10.489021","0.016925","713426","840271","838745","23.284036","8.249826","-0.008574","711916","823493","832189","21.132086","7.332617","-0.008690","744371","832546","888329","18.387310","6.273253","-0.003095","681407","865553","965568","13.875256","4.479818","-0.068324","1127","1783","2168","1199","1070","999","1170","1052","989","1444","1393","1366","1921","1288","986",""
"MA200-0420","21881","51","1","1.10","1.4","2023-05-04T08:21:00","120","2023/05/04","08:21:00","-15.794840812683105","35.07650615274906","4.3","13","30","64","81","-24458","-5283","-7554","11","150","149.74","112.15","37.59","25.14","50.1","14.01","88868","25.00","DUALSPOT-UV-BLUE-GREEN-RED-IR","606895","646469","910137","28.392616","10.503105","0.010905","715584","843003","841523","23.310658","8.259059","0.002197","713374","825361","834117","21.158272","7.342303","0.006475","745282","833720","889651","18.410348","6.281395","0.004149","682093","866581","966762","13.897335","4.486308","-0.015968","1715","2200","2485","1759","1821","1854","1938","2139","2246","2061","2173","2231","2750","2411","2250",""
"MA200-0420","21882","51","1","1.10","1.4","2023-05-04T08:21:30","120","2023/05/04","08:21:30","-15.795666575431824","35.07602182030678","3.7","13","30","64","81","-24444","-6312","-7452","11","150","149.95","112.44","37.51","25.19","50.2","14.08","88820","25.06","DUALSPOT-UV-BLUE-GREEN-RED-IR","603060","642452","904533","28.413834","10.508556","-0.020210","710945","837590","836158","23.328320","8.264143","-0.011556","714047","826214","834978","21.173422","7.344580","-0.250391","746503","835180","891221","18.425244","6.284243","-0.099792","682705","867500","967748","13.912525","4.488048","-2.262225","1108","853","704","1164","1004","917","1118","503","177","1328","761","468","1887","648","58",""
"MA200-0420","21883","51","1","1.10","1.4","2023-05-04T08:22:00","120","2023/05/04","08:22:00","-15.796574413776398","35.075581811368465","3.3","13","30","64","81","-24483","-4241","-8008","11","150","150.15","112.20","37.94","25.23","50.2","14.12","88784","25.06","DUALSPOT-UV-BLUE-GREEN-RED-IR","603870","643623","906383","28.440106","10.519463","0.009330","711741","838786","837483","23.345904","8.270503","0.004165","709978","821690","830561","21.189690","7.348483","-0.037786","747615","836589","892811","18.439168","6.287589","-0.042484","679264","863288","963141","13.928547","4.490082","-0.844681","1375","1688","1872","1161","1242","1286","1203","854","668","1244","884","698","1994","748","156",""
"MA200-0420","21884","51","1","1.10","1.4","2023-05-04T08:22:30","120","2023/05/04","08:22:30","-15.797043204307556","35.07580332458019","2.6","13","30","64","80","-25383","-7254","-7279","11","150","150.15","112.76","37.39","25.29","50.0","14.13","88748","25.13","DUALSPOT-UV-BLUE-GREEN-RED-IR","602943","642929","905626","28.552346","10.556938","0.000387","710294","837349","836196","23.423032","8.297211","0.002748","709817","821726","830698","21.254306","7.371413","0.004573","741483","829917","885816","18.491972","6.306494","0.005842","679015","863183","963135","13.974937","4.503665","-0.014923","5846","5887","5911","5070","5296","5419","4757","5092","5269","4698","5073","5267","5747","5075","4755",""
"MA200-0420","21885","51","1","1.10","1.4","2023-05-04T08:23:00","120","2023/05/04","08:23:00","-15.797402501106262","35.07653531432152","3.5","13","30","64","80","-24744","-5188","-7552","11","150","149.69","112.44","37.25","25.33","49.9","14.12","88704","25.19","DUALSPOT-UV-BLUE-GREEN-RED-IR","604488","644694","908261","28.580528","10.568260","0.008827","712780","840407","839369","23.441912","8.307643","0.021689","711099","823349","832447","21.271874","7.380224","0.020700","743635","832407","888562","18.507298","6.313378","0.018950","680433","865100","965334","13.991253","4.507375","-0.061558","1472","1785","1968","1244","2075","2532","1297","1963","2317","1367","1854","2106","2027","1391","1089",""
"MA200-0420","21886","51","1","1.10","1.4","2023-05-04T08:23:30","120","2023/05/04","08:23:30","-15.797906696796417","35.07738031446934","3.8","13","30","64","80","-24625","-4608","-7370","11","150","150.15","112.08","38.06","25.37","49.5","14.05","88688","25.19","DUALSPOT-UV-BLUE-GREEN-RED-IR","605300","645925","910398","28.650940","10.599350","0.011265","708506","835760","834999","23.497810","8.330847","0.010907","711599","824265","833569","21.321294","7.399810","0.009556","743745","832853","889239","18.549438","6.329311","0.007915","680410","865390","965810","14.028614","4.518841","-0.011785","3689","4797","5448","3697","4519","4971","3660","4272","4597","3772","4199","4421","4656","4208","3995",""
"MA200-0420","21887","51","1","1.10","1.4","2023-05-04T08:24:00","120","2023/05/04","08:24:00","-15.79844582080841","35.07829897850752","4.2","13","30","64","80","-24684","-5564","-8052","11","150","149.69","112.21","37.48","25.40","49.2","13.99","88664","25.25","DUALSPOT-UV-BLUE-GREEN-RED-IR","601269","641694","904531","28.710174","10.627369","0.013856","714199","842487","841805","23.541946","8.351446","0.016186","712291","825117","834525","21.361564","7.416977","0.013919","745484","834817","891408","18.585252","6.345666","0.019260","681206","866460","966995","14.056648","4.527835","-0.004419","3100","4390","5148","2915","4074","4710","2979","3802","4240","3202","4377","4987","3490","3351","3285",""
"MA200-0420","21888","51","1","1.10","1.4","2023-05-04T08:24:30","120","2023/05/04","08:24:30","-15.798906028270721","35.079094149172306","3.1","13","30","64","81","-24272","-6496","-7588","11","150","149.81","112.23","37.57","25.45","48.9","13.91","88616","25.25","DUALSPOT-UV-BLUE-GREEN-RED-IR","601768","642249","905403","28.728160","10.637402","0.017895","709869","837400","836817","23.554860","8.360119","0.025870","712479","825382","834844","21.373508","7.424850","0.027958","745182","834534","891176","18.596188","6.353214","0.033193","681372","866742","967375","14.069141","4.531986","-0.000785","941","1568","1937","852","1711","2183","883","1739","2195","977","2015","2553","1555","1543","1538",""
"MA200-0420","21889","51","1","1.10","1.4","2023-05-04T08:25:00","120","2023/05/04","08:25:00","-15.79957640171051","35.079797483980656","4.1","13","30","64","81","-24976","-4032","-6360","11","150","149.69","112.16","37.53","25.49","48.5","13.83","88556","25.31","DUALSPOT-UV-BLUE-GREEN-RED-IR","602625","643267","907007","28.754104","10.652142","0.018287","710882","838677","838152","23.573452","8.370477","0.021540","709177","821606","831114","21.389934","7.435413","0.027377","746456","836026","892822","18.609902","6.359897","0.022008","681987","867613","968372","14.083069","4.537361","0.013110","1358","2307","2865","1228","2046","2496","1215","2336","2934","1226","1786","2077","1734","2000","2127",""
"MA200-0420","21890","51","1","1.10","1.4","2023-05-04T08:25:30","120","2023/05/04","08:25:30","-15.800219416618347","35.08012265712023","4.6","13","30","64","80","-24936","-3800","-7024","11","150","149.62","111.98","37.64","25.52","48.0","13.70","88596","25.31","DUALSPOT-UV-BLUE-GREEN-RED-IR","600607","642197","906739","29.034176","10.776501","0.011644","709093","837737","838166","23.799912","8.471544","0.014175","707768","820975","831296","21.592440","7.522032","0.013663","740252","830012","887152","18.785344","6.434906","0.015584","677297","862420","963156","14.216793","4.587949","0.011004","14689","19408","22192","14991","19907","22624","15013","19107","21296","15718","19995","22224","16681","18776","19775",""
"MA200-0420","21891","51","1","1.10","1.4","2023-05-04T08:26:00","120","2023/05/04","08:26:00","-15.800065875053406","35.08132114261389","4.4","13","30","64","80","-24791","-3000","-8020","11","150","149.63","112.01","37.62","25.57","47.7","13.63","0","0.00","DUALSPOT-UV-BLUE-GREEN-RED-IR","600941","643132","908570","29.193668","10.841091","0.008446","709555","838961","839776","23.938952","8.524317","0.007019","707415","821221","831857","21.717592","7.568436","0.006335","739772","830028","887443","18.894682","6.474128","0.004962","676830","862287","963267","14.304398","4.618412","0.003465","8363","10084","11100","9202","10399","11061","9276","10240","10756","9793","10459","10806","10926","11312","11496",""
"MA200-0420","21892","51","1","1.10","1.4","2023-05-04T08:26:30","120","2023/05/04","08:26:30","-15.799376666545868","35.08229147642851","4.9","13","30","64","80","-24668","-3632","-7840","11","150","149.63","112.12","37.50","25.60","47.7","13.68","0","0.00","DUALSPOT-UV-BLUE-GREEN-RED-IR","593011","639589","908871","30.342690","11.340691","0.010675","700908","834835","840037","24.997456","8.972394","0.011720","699841","818053","832702","22.704944","7.981302","0.012263","732927","827543","888655","19.781714","6.838786","0.013112","671533","860021","963917","15.012672","4.897342","0.013887","60191","78249","89026","69984","88576","98985","73109","91403","101319","79370","97557","107167","88243","103903","111485",""
"MA200-0420","21893","51","1","1.10","1.4","2023-05-04T08:27:00","120","2023/05/04","08:27:00","-15.798420310020447","35.082852974534035","3.7","13","30","64","80","-24752","-3500","-7747","11","150","150.15","112.59","37.55","25.64","47.8","13.73","88752","25.44","DUALSPOT-UV-BLUE-GREEN-RED-IR","590977","638407","908125","30.833480","11.535320","0.007522","698558","833167","839110","25.433624","9.140619","0.007715","697801","816830","832078","23.127276","8.139011","0.006738","731003","826468","888122","20.172572","6.979744","0.005480","669998","859038","963306","15.329708","5.003854","0.000698","25602","30441","33334","28717","33209","35728","31141","34866","36889","34827","37658","39156","39334","39621","39760",""
"MA200-0420","21894","51","1","1.10","1.4","2023-05-04T08:27:30","120","2023/05/04","08:27:30","-15.79751831293106","35.08332014083862","4.7","13","30","64","80","-24595","-2700","-7437","11","150","150.15","112.21","37.93","25.67","47.8","13.77","88804","25.44","DUALSPOT-UV-BLUE-GREEN-RED-IR","586781","634280","902583","30.937164","11.574413","0.005031","699373","834619","840787","25.517982","9.169245","0.000232","697862","817301","832760","23.201548","8.163217","-0.002528","731597","827507","889367","20.237026","7.000063","-0.005683","669969","859269","963707","15.380520","5.019750","-0.008085","5427","6053","6427","5573","5594","5606","5495","5297","5190","5762","5373","5168","6325","5854","5625",""
"MA200-0420","21895","51","1","1.10","1.4","2023-05-04T08:28:00","120","2023/05/04","08:28:00","-15.796386003494263","35.0836838260293","4.5","13","30","64","80","-24933","-3391","-7279","11","150","150.34","112.64","37.70","25.71","47.8","13.79","88876","25.50","DUALSPOT-UV-BLUE-GREEN-RED-IR","588268","635999","905157","30.965862","11.587524","0.011893","695197","829714","835928","25.538580","9.178336","0.013005","699408","819240","834836","23.221080","8.171465","0.012379","733581","829835","891963","20.254224","7.008133","0.018791","671547","861431","966162","15.396946","5.021796","-0.888912","1496","2042","2368","1355","1787","2029","1439","1816","2020","1531","2147","2473","2037","757","138",""
"MA200-0420","21896","51","1","1.10","1.4","2023-05-04T08:28:30","120","2023/05/04","08:28:30","-15.795200049877167","35.08377048373222","5.1","13","30","64","80","-24695","-4179","-7404","11","150","149.95","112.24","37.71","25.75","47.8","13.83","88892","25.50","DUALSPOT-UV-BLUE-GREEN-RED-IR","588647","636702","906402","31.040474","11.614628","0.003703","696228","831258","837658","25.594140","9.198624","0.004667","695667","815096","830723","23.269384","8.186299","-0.006565","733959","830490","892790","20.294588","7.021012","-0.004103","671557","861655","966519","15.429577","5.031490","-0.013434","3904","4221","4411","3669","3988","4167","3572","3265","3099","3607","3426","3330","4061","3591","3363",""
"MA200-0420","21897","51","1","1.10","1.4","2023-05-04T08:29:00","120","2023/05/04","08:29:00","-15.794058561325073","35.08380465209484","4.5","13","30","64","80","-24864","-4764","-6572","11","150","149.44","112.44","37.00","25.78","47.7","13.85","88892","25.56","DUALSPOT-UV-BLUE-GREEN-RED-IR","587962","636114","905665","31.071496","11.627781","0.010159","694888","829752","836193","25.614826","9.206696","0.008784","698971","819081","834850","23.286422","8.193272","0.011744","732983","829510","891813","20.309902","7.026459","0.005435","666609","855410","959559","15.443779","5.034418","-0.080462","1620","2088","2367","1363","1617","1759","1258","1565","1731","1366","1477","1536","1764","1105","786",""
"MA200-0420","21898","51","1","1.10","1.4","2023-05-04T08:29:30","120","2023/05/04","08:29:30","-15.792963922023773","35.08401232212782","4.0","13","30","64","80","-24904","-4587","-5987","11","150","149.56","112.48","37.08","25.81","47.7","13.85","88880","25.56","DUALSPOT-UV-BLUE-GREEN-RED-IR","589497","637911","908396","31.113064","11.644039","0.007377","697427","832915","839479","25.643462","9.215370","-0.005654","695992","815728","831497","23.314108","8.201547","-0.007221","734326","831125","893577","20.333034","7.033225","-0.010247","671619","861945","966925","15.463394","5.038831","-0.057558","2170","2575","2817","1887","1734","1648","2043","1852","1749","2063","1830","1707","2436","1662","1288",""
"MA200-0420","21899","51","1","1.10","1.4","2023-05-04T08:30:00","120","2023/05/04","08:30:00","-15.791892051696777","35.084435649216175","4.2","13","30","64","80","-24962","-3916","-6291","11","150","150.15","112.20","37.94","25.84","47.6","13.86","88888","25.56","DUALSPOT-UV-BLUE-GREEN-RED-IR","589491","638253","909249","31.189296","11.675640","0.008503","697508","833462","840241","25.705138","9.239318","0.007310","695754","815758","831752","23.367910","8.223301","0.009923","729005","825409","887601","20.380756","7.050696","0.005502","667685","857177","961665","15.501537","5.050064","-0.015290","3990","4891","5431","4074","4678","5017","3981","4759","5182","4267","4619","4805","4748","4135","3838",""
"MA200-0420","21900","51","1","1.10","1.4","2023-05-04T08:30:30","120","2023/05/04","08:30:30","-15.790827691555023","35.08507431298494","5.9","13","30","64","80","-25104","-2987","-6762","11","150","149.56","111.61","37.95","25.89","47.5","13.87","88952","25.63","DUALSPOT-UV-BLUE-GREEN-RED-IR","590087","639079","910653","31.260982","11.706921","0.009973","698290","834555","841497","25.756512","9.260182","0.009041","696558","816850","833000","23.413788","8.240634","0.006253","729458","826063","888410","20.420642","7.064438","0.000971","668544","858404","963126","15.531586","5.058625","-0.020371","3772","4841","5481","3412","4075","4448","3412","3791","3998","3585","3632","3657","3760","3151","2857",""
"MA200-0420","21901","51","1","1.10","1.4","2023-05-04T08:31:00","120","2023/05/04","08:31:00","-15.789571166038513","35.08590181171894","6.3","13","30","64","80","-25220","-3495","-6733","11","150","149.95","112.12","37.83","25.95","47.4","13.90","89016","25.69","DUALSPOT-UV-BLUE-GREEN-RED-IR","585230","634264","904361","31.354648","11.748970","0.011032","697309","833946","841259","25.833164","9.290694","0.008489","696379","817151","833591","23.481600","8.265788","0.005670","730140","827284","889993","20.478124","7.086632","0.008838","668328","858475","963434","15.577141","5.074930","0.005320","4906","6529","7501","5068","5979","6491","5021","5520","5792","5143","5886","6280","5675","6021","6188",""
"MA200-0420","21902","51","1","1.10","1.4","2023-05-04T08:31:30","120","2023/05/04","08:31:30","-15.788598656654358","35.086717151105404","4.8","13","30","64","80","-25064","-4180","-6304","11","150","149.89","112.20","37.68","25.95","47.3","13.88","89048","25.69","DUALSPOT-UV-BLUE-GREEN-RED-IR","585844","635151","905754","31.439236","11.785103","0.009642","693519","829565","836968","25.899348","9.318160","0.010389","696415","817374","833942","23.541988","8.289709","0.009213","730266","827556","890433","20.531744","7.106909","0.007867","668379","858709","963769","15.618763","5.087599","-0.010335","4427","5632","6353","4372","5403","5982","4468","5270","5705","4794","5398","5718","5182","4696","4461",""
"MA200-0420","21903","51","1","1.10","1.4","2023-05-04T08:32:00","120","2023/05/04","08:32:00","-15.78801167011261","35.08749948441982","3.1","13","30","64","80","-24900","-4562","-6633","11","150","149.74","111.94","37.79","25.96","47.2","13.85","89052","25.69","DUALSPOT-UV-BLUE-GREEN-RED-IR","585737","635276","906205","31.481484","11.804211","0.011184","693394","829659","837274","25.929302","9.331991","0.014072","696723","817981","834702","23.570098","8.301775","0.012525","730424","827946","890968","20.555292","7.116130","0.009561","668275","858766","963917","15.639923","5.095252","0.006115","2216","2969","3421","1983","2713","3123","2084","2650","2958","2110","2447","2626","2640","2828","2919",""
"MA200-0420","21904","51","1","1.10","1.4","2023-05-04T08:32:30","120","2023/05/04","08:32:30","-15.788341403007507","35.08718332648277","3.8","13","30","64","80","-24433","-4991","-7904","11","150","150.02","111.97","38.05","25.96","47.2","13.84","89044","25.75","DUALSPOT-UV-BLUE-GREEN-RED-IR","585995","635750","907031","31.559398","11.835979","0.007676","693749","830325","838035","25.995320","9.355113","0.001756","693148","813963","830701","23.629468","8.322892","0.002845","731154","828985","892159","20.608384","7.134937","0.002953","669267","860202","965629","15.678238","5.105863","-0.024119","4087","4903","5394","4371","4504","4580","4402","4607","4719","4757","4958","5065","4780","3895","3468",""
"MA200-0420","21905","51","1","1.10","1.4","2023-05-04T08:33:00","120","2023/05/04","08:33:00","-15.7889683842659","35.08647198975086","3.9","13","30","64","80","-24508","-5058","-7583","11","150","150.60","112.20","38.40","26.01","47.2","13.89","89020","25.75","DUALSPOT-UV-BLUE-GREEN-RED-IR","585527","635354","906616","31.587796","11.847782","0.008090","693026","829584","837325","26.013910","9.360912","-0.006164","696395","817885","834733","23.645014","8.325824","-0.095406","729830","827568","890683","20.621084","7.137758","-0.056165","668472","859266","964563","15.689842","5.108472","-0.066049","1486","1805","1996","1228","1119","1058","1150","633","353","1135","737","526","1444","948","709",""
"MA200-0420","21906","51","1","1.10","1.4","2023-05-04T08:33:30","120","2023/05/04","08:33:30","-15.789834201335907","35.08586315065622","4.6","13","30","64","80","-24608","-5448","-7236","11","150","149.63","112.01","37.62","26.05","47.2","13.94","88992","25.81","DUALSPOT-UV-BLUE-GREEN-RED-IR","586971","637054","909197","31.627338","11.864620","0.009485","694716","831731","839568","26.038166","9.369684","0.004109","693650","814788","831656","23.666194","8.332358","-0.006086","726894","824325","887265","20.638936","7.142993","-0.011659","669566","860790","966330","15.704227","5.110600","-0.309427","2073","2628","2962","1605","1728","1797","1570","1441","1372","1598","1396","1288","1794","790","306",""
"MA200-0420","21907","51","1","1.10","1.4","2023-05-04T08:34:00","120","2023/05/04","08:34:00","-15.790797173976898","35.085226483643055","4.0","13","30","64","79","-24704","-5260","-7320","11","150","151.58","113.31","38.27","26.08","47.2","13.97","88964","25.88","DUALSPOT-UV-BLUE-GREEN-RED-IR","585990","636090","907972","31.661320","11.880177","0.011452","693930","830903","838820","26.059446","9.377386","0.003856","693034","814159","831068","23.685988","8.339318","0.002520","726047","823464","886350","20.654520","7.147856","-0.006385","664796","854744","959542","15.719059","5.113840","-0.069931","1761","2387","2763","1392","1491","1547","1450","1509","1542","1379","1274","1219","1828","1182","871",""
"MA200-0420","21908","51","1","1.10","1.4","2023-05-04T08:34:30","120","2023/05/04","08:34:30","-15.791505694389343","35.08476414531469","1.9","13","30","64","80","-24684","-5288","-7936","11","150","150.21","112.32","37.89","26.12","47.2","13.98","88924","25.88","DUALSPOT-UV-BLUE-GREEN-RED-IR","587969","638380","911394","31.701420","11.898674","0.011683","690989","827478","835442","26.087088","9.388398","0.008449","694432","815930","832926","23.708306","8.347046","0.001652","727643","825371","888479","20.674850","7.155619","0.008120","670378","862017","967771","15.734306","5.117573","-0.043530","2096","2867","3330","1824","2154","2340","1649","1693","1716","1815","2055","2182","1896","1376","1125",""
