"Serial number","Datum ID","Session ID","Data format version","Firmware version","App version","Date / time local","Timezone offset (mins)","Date local (yyyy/MM/dd)","Time local (hh:mm:ss)","GPS lat (ddmm.mmmmm)","GPS long (dddmm.mmmmm)","GPS speed (km/h)","GPS sat count","Timebase (s)","Status","Battery remaining (%)","Accel X","Accel Y","Accel Z","Tape position","Flow setpoint (mL/min)","Flow total (mL/min)","Flow1 (mL/min)","Flow2 (mL/min)","Sample temp (C)","Sample RH (%)","Sample dewpoint (C)","Internal pressure (Pa)","Internal temp (C)","Optical config","UV Sen1","UV Sen2","UV Ref","UV ATN1","UV ATN2","UV K","Blue Sen1","Blue Sen2","Blue Ref","Blue ATN1","Blue ATN2","Blue K","Green Sen1","Green Sen2","Green Ref","Green ATN1","Green ATN2","Green K","Red Sen1","Red Sen2","Red Ref","Red ATN1","Red ATN2","Red K","IR Sen1","IR Sen2","IR Ref","IR ATN1","IR ATN2","IR K","UV BC1","UV BC2","UV BCc","Blue BC1","Blue BC2","Blue BCc","Green BC1","Green BC2","Green BCc","Red BC1","Red BC2","Red BCc","IR BC1","IR BC2","IR BCc","Readable status"
"MA200-0420","53238","84","1","1.10","1.6","2023-08-25T07:45:00","120","2023/08/25","07:45:00","-15.7871795296669","35.03523599356413","0.1","9","300","66","80","-383","23591","-1016","1","150","150.02","117.89","32.13","22.14","47.4","10.43","89464","21.25","DUALSPOT-UV-BLUE-GREEN-RED-IR","766171","692468","905663","0.000000","0.000000","0.000000","855918","885185","840806","0.000000","0.000000","0.000000","834919","859633","830343","0.000000","0.000000","0.000000","860077","872179","892254","0.000000","0.000000","0.000000","753534","864885","961985","0.000000","0.000000","0.000000","","","","","","","","","","","","","","","","Start up-DualSpot on"
"MA200-0420","53239","84","1","1.10","1.6","2023-08-25T07:50:00","120","2023/08/25","07:50:00","-15.787268817424774","35.035235825926065","0.1","9","300","64","79","-487","23675","-995","1","150","149.94","117.57","32.37","22.28","49.5","11.22","89468","21.38","DUALSPOT-UV-BLUE-GREEN-RED-IR","738810","685770","905954","0.000000","0.000000","0.000000","829099","872017","833217","0.000000","0.000000","0.000000","819546","855679","830503","0.000000","0.000000","0.000000","840251","861449","884412","0.000000","0.000000","0.000000","746778","862807","961683","0.000000","0.000000","0.000000","","","","","","","","","","","","","","","","DualSpot on"
"MA200-0420","53240","84","1","1.10","1.6","2023-08-25T07:55:00","120","2023/08/25","07:55:00","-15.787156641483307","35.035305660218","0.0","10","300","64","79","-472","23588","-948","1","150","149.44","117.26","32.18","22.46","50.7","11.71","89484","21.56","DUALSPOT-UV-BLUE-GREEN-RED-IR","715128","679056","905529","3.212190","0.937074","0.025438","819562","875131","840934","2.084183","0.565499","0.000000","804375","850701","829509","1.748795","0.462466","0.000000","834533","864351","890536","1.376048","0.350770","0.000000","744138","865338","966493","0.853874","0.208126","0.000000","16090","17104","17522","13176","13027","13176","12382","11931","12382","11773","10936","11773","10172","9035","10172","DualSpot on"
"MA200-0420","53241","84","1","1.10","1.6","2023-08-25T08:00:00","120","2023/08/25","08:00:00","-15.787132441997528","35.035339660942554","0.0","11","300","64","79","-450","23565","-969","1","150","149.76","117.46","32.30","22.62","51.3","12.06","89480","21.75","DUALSPOT-UV-BLUE-GREEN-RED-IR","692911","672393","905145","6.338438","1.886261","0.020358","802992","870038","840718","4.103461","1.123422","0.001574","791061","847080","829741","3.447582","0.917947","-0.010238","823051","860991","890161","2.720977","0.697698","0.000000","736977","862570","965376","1.705434","0.412790","0.000000","15633","17260","17949","12744","12805","12827","12007","11707","11598","11488","10775","11488","10128","8851","10128","DualSpot on"
"MA200-0420","53242","84","1","1.10","1.6","2023-08-25T08:05:00","120","2023/08/25","08:05:00","-15.78724879026413","35.03541415929794","0.2","12","300","64","78","-412","23560","-1024","1","150","149.94","117.74","32.21","22.80","51.7","12.33","89476","21.94","DUALSPOT-UV-BLUE-GREEN-RED-IR","674494","666395","904625","8.982430","2.725277","0.020801","787959","864726","839921","5.906592","1.644682","0.012357","783043","847808","834019","4.985237","1.347708","0.005803","812110","857312","889287","3.958902","1.027050","-0.009703","730228","859850","964246","2.512159","0.611816","0.000000","13190","15301","16221","11353","11998","12247","10842","11078","11165","10548","10259","10158","9571","8632","9571","DualSpot on"
"MA200-0420","53243","84","1","1.10","1.6","2023-08-25T08:10:00","120","2023/08/25","08:10:00","-15.78732281923294","35.0352444909513","0.2","12","300","64","78","-488","23576","-871","1","150","150.01","117.61","32.40","22.99","52.0","12.60","89492","22.19","DUALSPOT-UV-BLUE-GREEN-RED-IR","658892","661187","904475","11.309416","3.492515","0.019605","775153","860591","840011","7.555081","2.131962","0.012225","771273","843592","833244","6.407131","1.752406","0.006823","802143","853918","888555","5.118600","1.343287","-0.002711","722934","856167","962006","3.281219","0.804475","-0.041569","11621","13909","14931","10390","11149","11448","10037","10370","10496","9892","9792","9757","9134","8307","8038","DualSpot on"
"MA200-0420","53244","84","1","1.10","1.6","2023-08-25T08:15:00","120","2023/08/25","08:15:00","-15.787117719650269","35.035341665148735","0.1","12","300","64","78","-400","23604","-970","1","150","149.69","117.34","32.35","23.21","52.1","12.82","0","0.00","DUALSPOT-UV-BLUE-GREEN-RED-IR","649774","661150","910890","13.411884","4.206520","0.018814","762256","855305","838718","9.079325","2.595895","0.013985","760463","839598","832522","7.732821","2.139860","0.009900","792422","850231","887434","6.210490","1.646568","0.001594","720959","858587","966524","4.023647","0.991910","-0.031347","10524","12962","14076","9630","10630","11030","9380","9942","10157","9336","9404","9429","8838","8093","7848","DualSpot on"
"MA200-0420","53245","84","1","1.10","1.6","2023-08-25T08:20:00","120","2023/08/25","08:20:00","-15.787114560604095","35.03534549474716","0.3","12","300","64","78","-446","23553","-1034","1","150","150.53","117.54","32.99","23.35","51.8","12.88","0","0.00","DUALSPOT-UV-BLUE-GREEN-RED-IR","635034","654241","907386","15.324837","4.872719","0.017023","748619","848193","835418","10.490879","3.037888","0.013336","753627","839251","835271","8.966635","2.511048","0.010115","788015","851703","891536","7.232671","1.939392","0.003784","713066","853585","962626","4.723709","1.175276","-0.020676","9559","11860","12933","8902","9931","10351","8715","9340","9584","8725","8904","8970","8320","7764","7580","DualSpot on"
"MA200-0420","53246","84","1","1.10","1.6","2023-08-25T08:25:00","120","2023/08/25","08:25:00","-15.787131309509277","35.03527632728219","0.1","12","300","64","77","-433","23500","-950","1","150","150.02","117.58","32.44","23.50","51.9","13.03","89496","22.63","DUALSPOT-UV-BLUE-GREEN-RED-IR","622639","649010","906041","17.147324","5.525268","0.017793","743827","850563","841409","11.849787","3.474706","0.015966","743363","834664","833792","10.159165","2.878940","0.013915","778400","847260","889475","8.227688","2.231598","0.009847","711236","855728","966798","5.412859","1.357522","-0.010874","9104","11813","13101","8567","9980","10567","8420","9414","9806","8490","9035","9238","8187","7846","7732","DualSpot on"
"MA200-0420","53247","84","1","1.10","1.6","2023-08-25T08:30:00","120","2023/08/25","08:30:00","-15.787132322788239","35.03530265763402","0.1","11","300","64","77","-488","23552","-855","1","150","149.86","117.57","32.29","23.67","52.0","13.23","89492","22.88","DUALSPOT-UV-BLUE-GREEN-RED-IR","610358","643530","904314","18.951012","6.183208","0.017277","732592","845297","839875","13.189780","3.910822","0.015776","733895","830751","832894","11.338072","3.246477","0.014027","769771","843737","888358","9.214244","2.522589","0.010010","705210","852775","965249","6.097313","1.538779","-0.008278","9011","11966","13397","8449","10011","10669","8325","9448","9899","8418","9040","9274","8132","7840","7742","DualSpot on"
"MA200-0420","53248","84","1","1.10","1.6","2023-08-25T08:35:00","120","2023/08/25","08:35:00","-15.78721821308136","35.03528466075659","0.0","11","300","64","77","-431","23580","-1024","1","150","149.59","117.35","32.24","23.83","52.0","13.38","89492","23.00","DUALSPOT-UV-BLUE-GREEN-RED-IR","598995","638825","903795","20.771690","6.863418","0.016836","721630","840244","838611","14.547916","4.361176","0.015694","724137","826449","831728","12.531779","3.625892","0.014447","766599","846135","893565","10.214326","2.823356","0.011345","698176","848601","962312","6.798675","1.726474","-0.005259","9112","12394","14013","8579","10357","11118","8445","9771","10312","8550","9360","9670","8349","8134","8060","DualSpot on"
"MA200-0420","53249","84","1","1.10","1.6","2023-08-25T08:40:00","120","2023/08/25","08:40:00","-15.787145495414734","35.03528966009617","0.0","11","300","64","76","-536","23572","-988","1","150","149.69","117.02","32.67","24.02","51.9","13.53","89496","23.19","DUALSPOT-UV-BLUE-GREEN-RED-IR","592647","639203","910689","22.593998","7.559009","0.015740","711187","835676","837982","15.927704","4.830494","0.014982","714679","822343","830915","13.754184","4.022757","0.013608","751854","835808","885502","11.245480","3.140434","0.010972","696526","851112","967104","7.532837","1.928650","-0.002469","9146","12505","14194","8740","10649","11480","8672","10085","10669","8840","9737","10084","8764","8645","8604","DualSpot on"
"MA200-0420","53250","84","1","1.10","1.6","2023-08-25T08:45:00","120","2023/08/25","08:45:00","-15.78718113899231","35.035267159342766","0.0","11","300","64","76","-412","23584","-1024","1","150","149.84","117.43","32.41","24.23","51.8","13.67","89508","23.44","DUALSPOT-UV-BLUE-GREEN-RED-IR","577904","630086","903838","24.364486","8.246223","0.015618","702279","832616","838868","17.297248","5.302218","0.015229","706080","819156","831044","14.974346","4.424334","0.014331","750804","840631","893487","12.285860","3.465046","0.012520","690935","848878","966586","8.285099","2.138159","0.001464","8855","12454","14295","8646","10790","11738","8626","10287","10983","8888","10049","10504","8949","9030","9059","DualSpot on"
"MA200-0420","53251","84","1","1.10","1.6","2023-08-25T08:50:00","120","2023/08/25","08:50:00","-15.787250697612762","35.03528565913439","0.1","11","300","64","75","-452","23516","-867","1","150","149.50","117.38","32.12","24.44","51.5","13.78","0","0.00","DUALSPOT-UV-BLUE-GREEN-RED-IR","570398","629926","911201","26.467560","9.071999","0.015043","692004","828321","838780","18.756772","5.809861","0.015029","696559","814976","830280","16.241310","4.844349","0.014255","742147","836972","892533","13.336159","3.792279","0.012159","684542","845497","964663","9.015888","2.338968","0.000612","10523","15099","17486","9218","11715","12836","8961","10856","11661","8977","10220","10714","8697","8733","8745","DualSpot on"
"MA200-0420","53252","84","1","1.10","1.6","2023-08-25T08:55:00","120","2023/08/25","08:55:00","-15.787154018878937","35.035324823111296","0.1","11","300","64","74","-468","23532","-808","1","150","149.97","117.38","32.59","24.71","51.3","13.99","0","0.00","DUALSPOT-UV-BLUE-GREEN-RED-IR","553084","619375","904312","28.799996","10.013168","0.014240","681229","823980","839225","20.378942","6.388690","0.014408","686656","810928","830112","17.656956","5.325847","0.013810","727009","826485","884707","14.521746","4.173433","0.012502","677647","842098","963151","9.867451","2.581509","0.003444","11671","16964","19785","10244","13168","14503","10012","12267","13241","10133","11735","12381","10134","10397","10490","DualSpot on"
"MA200-0420","53253","84","1","1.10","1.6","2023-08-25T09:00:00","120","2023/08/25","09:00:00","-15.787149608135223","35.035296991467476","0.0","11","300","64","74","-504","23504","-779","1","150","149.82","117.22","32.60","24.97","50.6","14.00","0","0.00","DUALSPOT-UV-BLUE-GREEN-RED-IR","544761","616462","906623","30.575450","10.732819","0.013520","673714","821573","840670","21.661718","6.851323","0.013970","680338","809404","831756","18.779540","5.710823","0.013357","722043","826098","887003","15.464586","4.478754","0.012147","673478","840994","963707","10.547253","2.772363","0.001195","8896","12965","15165","8112","10519","11633","7950","9803","10613","8069","9395","9936","8101","8177","8204","DualSpot on"
"MA200-0420","53254","84","1","1.10","1.6","2023-08-25T09:05:00","120","2023/08/25","09:05:00","-15.787081480026245","35.03536182641983","0.1","11","300","64","73","-470","23520","-891","1","150","150.02","117.12","32.90","25.16","49.9","13.98","0","0.00","DUALSPOT-UV-BLUE-GREEN-RED-IR","534801","611637","906133","32.369084","11.468872","0.012869","665288","818088","841149","22.982362","7.335678","0.013485","671820","805331","830945","19.941222","6.118132","0.013225","720326","829572","893630","16.441622","4.801353","0.012083","671875","843141","968141","11.244072","2.975053","0.004107","8994","13141","15417","8358","10914","12112","8234","10279","11184","8369","9838","10444","8311","8606","8713","DualSpot on"
"MA200-0420","53255","84","1","1.10","1.6","2023-08-25T09:10:00","120","2023/08/25","09:10:00","-15.787162482738495","35.03527765721083","0.0","11","300","64","73","-460","23600","-1056","1","150","150.15","117.31","32.84","25.37","49.4","14.00","0","0.00","DUALSPOT-UV-BLUE-GREEN-RED-IR","524913","606917","906242","34.240076","12.251675","0.012705","655428","812864","839970","24.332232","7.835016","0.013214","663545","801521","830437","21.121778","6.533196","0.012796","713057","826666","893386","17.431762","5.128936","0.011748","666339","840444","967011","11.951195","3.179441","0.003541","9368","14000","16581","8530","11271","12573","8355","10492","11450","8468","10007","10649","8420","8693","8792","DualSpot on"
"MA200-0420","53256","84","1","1.10","1.6","2023-08-25T09:15:00","120","2023/08/25","09:15:00","-15.7871373295784","35.03530132770538","0.1","11","300","64","72","-400","23580","-1004","1","150","149.76","117.02","32.73","25.58","49.0","14.06","0","0.00","DUALSPOT-UV-BLUE-GREEN-RED-IR","513694","600614","904316","36.195784","13.085278","0.012450","645991","807802","838919","25.661418","8.333244","0.013050","658654","801545","833888","22.273550","6.942734","0.012687","704118","821533","890672","18.392414","5.448732","0.011560","659643","836025","963819","12.635529","3.377983","0.003819","9816","14957","17868","8420","11283","12659","8171","10386","11390","8236","9801","10460","8169","8472","8583","DualSpot on"
"MA200-0420","53257","84","1","1.10","1.6","2023-08-25T09:20:00","120","2023/08/25","09:20:00","-15.787106096744537","35.03530748933554","0.1","12","300","64","72","-470","23500","-808","1","150","150.41","117.81","32.60","25.79","48.6","14.12","89516","25.06","DUALSPOT-UV-BLUE-GREEN-RED-IR","507566","598637","907142","37.711540","13.730598","0.012162","635704","800478","834804","26.772248","8.753492","0.013189","649470","795283","830276","23.247020","7.294738","0.013294","699715","820799","892396","19.211416","5.727526","0.012861","656052","834911","964250","13.223747","3.553526","0.007340","7556","11628","13959","6989","9557","10805","6860","8965","9928","6974","8581","9263","6974","7523","7724","DualSpot on"
"MA200-0420","53258","84","1","1.10","1.6","2023-08-25T09:25:00","120","2023/08/25","09:25:00","-15.78715443611145","35.03525182232261","0.0","12","300","64","72","-431","23584","-1092","1","150","149.47","117.65","31.81","25.96","48.4","14.25","0","0.00","DUALSPOT-UV-BLUE-GREEN-RED-IR","498072","593706","906540","39.530000","14.488186","0.011649","631909","802118","840497","28.051026","9.230170","0.012859","645799","796437","834758","24.351158","7.688672","0.013070","692876","817728","891767","20.122162","6.033789","0.012829","650892","832107","962766","13.860043","3.739130","0.007024","9078","13987","16827","8057","11107","12603","7791","10280","11429","7766","9658","10468","7555","8150","8369","DualSpot on"
"MA200-0420","53259","84","1","1.10","1.6","2023-08-25T09:30:00","120","2023/08/25","09:30:00","-15.787201344966888","35.03522999212146","0.1","12","300","64","71","-475","23504","-916","1","150","149.90","117.80","32.09","26.22","48.2","14.40","0","0.00","DUALSPOT-UV-BLUE-GREEN-RED-IR","491394","590383","906773","40.902496","15.077919","0.011676","626122","799746","841248","29.059036","9.613241","0.012772","639899","793657","834543","25.238420","8.008905","0.012775","687491","815376","891465","20.869638","6.287308","0.012438","650711","835067","967755","14.402214","3.898009","0.006526","6843","10793","13099","6343","8848","10087","6253","8284","9228","6365","7925","8597","6429","6915","7096","DualSpot on"
"MA200-0420","53260","84","1","1.10","1.6","2023-08-25T09:35:00","120","2023/08/25","09:35:00","-15.787186026573181","35.0352341607213","0.0","12","300","64","71","-388","23580","-971","1","150","149.50","117.61","31.88","26.48","48.1","14.61","89528","25.75","DUALSPOT-UV-BLUE-GREEN-RED-IR","484706","587711","909225","42.543780","15.800163","0.011702","615961","792281","837014","30.191298","10.046962","0.012664","630507","786895","830354","26.217954","8.362450","0.012485","682997","814438","892926","21.686586","6.563648","0.012088","646897","833602","967719","14.986057","4.067731","0.006025","8196","13304","16322","7136","10084","11554","6914","9205","10279","6968","8695","9444","6934","7436","7622","DualSpot on"
"MA200-0420","53261","84","1","1.10","1.6","2023-08-25T09:40:00","120","2023/08/25","09:40:00","-15.78725153207779","35.03521965816617","0.1","12","300","64","70","-496","23536","-920","1","150","149.71","117.80","31.91","26.75","48.1","14.85","89524","26.06","DUALSPOT-UV-BLUE-GREEN-RED-IR","474596","580943","905447","44.246124","16.544254","0.011189","610164","790543","839022","31.382274","10.506883","0.012437","625938","786352","832912","27.252738","8.742879","0.012651","674224","808486","889012","22.546100","6.860583","0.012583","639830","828075","963033","15.599930","4.249756","0.007390","8487","13697","16809","7494","10686","12292","7292","9899","11130","7320","9336","10219","7279","7969","8227","DualSpot on"
"MA200-0420","53262","84","1","1.10","1.6","2023-08-25T09:45:00","120","2023/08/25","09:45:00","-15.787109613418579","35.03525698930025","0.0","12","300","64","69","-444","23468","-748","1","150","149.81","118.23","31.57","26.98","47.1","14.74","89520","26.31","DUALSPOT-UV-BLUE-GREEN-RED-IR","467387","576922","905282","45.747896","17.216300","0.011368","603697","787444","839405","32.488658","10.945179","0.012979","618846","782152","831542","28.225784","9.109641","0.013390","667357","804523","887224","23.365798","7.150329","0.013612","638536","829821","966850","16.196232","4.433670","0.010857","7460","12502","15544","6937","10291","11995","6832","9644","10983","6955","9207","10199","7045","8137","8548","DualSpot on"
"MA200-0420","53263","84","1","1.10","1.6","2023-08-25T09:50:00","120","2023/08/25","09:50:00","-15.787233531475067","35.0352429933846","0.1","12","300","64","69","-450","23512","-870","1","150","149.87","117.98","31.89","27.19","46.6","14.75","0","0.00","DUALSPOT-UV-BLUE-GREEN-RED-IR","463124","576324","910624","47.254584","17.908340","0.011209","595312","781789","837246","33.630848","11.406568","0.012727","611777","778117","830465","29.247472","9.500369","0.013014","660521","800777","885873","24.243356","7.464941","0.013219","633151","826505","964915","16.846848","4.634039","0.009574","7500","12746","15947","7176","10725","12547","7189","10172","11607","7462","9897","10981","7703","8777","9184","DualSpot on"
"MA200-0420","53264","84","1","1.10","1.6","2023-08-25T09:55:00","120","2023/08/25","09:55:00","-15.787198662757874","35.03523198887706","0.0","11","300","64","69","-452","23500","-772","1","150","149.67","117.74","31.93","27.35","46.3","14.80","0","0.00","DUALSPOT-UV-BLUE-GREEN-RED-IR","455814","571507","908712","48.642396","18.544026","0.010830","587171","776113","834764","34.713328","11.842729","0.012223","608532","778575","834075","30.213386","9.871407","0.012645","658736","802812","890807","25.072052","7.763164","0.012815","627255","822278","961830","17.461628","4.824894","0.009537","6923","11692","14630","6815","10125","11839","6811","9646","11022","7061","9369","10404","7294","8349","8751","DualSpot on"
"MA200-0420","53265","84","1","1.10","1.6","2023-08-25T10:00:00","120","2023/08/25","10:00:00","-15.787161648273468","35.035243824124336","0.0","11","300","64","68","-488","23496","-884","1","150","150.15","117.39","32.76","27.54","45.8","14.82","0","0.00","DUALSPOT-UV-BLUE-GREEN-RED-IR","449156","566767","906251","49.843072","19.104614","0.010470","584877","777311","839313","35.645640","12.226704","0.011784","601820","773901","831782","31.046120","10.198383","0.012157","651589","797715","887449","25.784828","8.024854","0.012188","625931","823506","964865","17.989220","4.991725","0.008650","6007","10051","12564","5887","8689","10152","5889","8287","9459","6091","8014","8883","6278","7114","7435","DualSpot on"
"MA200-0420","53266","84","1","1.10","1.6","2023-08-25T10:05:00","120","2023/08/25","10:05:00","-15.787420809268951","35.0351494923234","0.1","11","300","64","68","-458","23483","-925","1","150","150.52","117.35","33.17","27.79","45.8","15.03","0","0.00","DUALSPOT-UV-BLUE-GREEN-RED-IR","445430","565403","908975","50.973528","19.640450","0.010282","576684","770422","834969","36.538068","12.600247","0.011585","598264","773049","833488","31.847382","10.514560","0.011667","648843","797783","889803","26.473078","8.283480","0.012242","623129","822698","965495","18.503708","5.156826","0.008538","5658","9488","11889","5637","8348","9775","5668","7913","9020","5884","7822","8705","6124","6953","7273","DualSpot on"
"MA200-0420","53267","84","1","1.10","1.6","2023-08-25T10:10:00","120","2023/08/25","10:10:00","-15.787210822105408","35.03521882370114","0.0","11","300","68","67","-400","23495","-1095","2","150","149.69","117.97","31.72","28.01","45.3","15.06","89492","27.38","DUALSPOT-UV-BLUE-GREEN-RED-IR","761485","693225","907939","0.000000","0.000000","0.000000","854490","886042","837880","0.000000","0.000000","0.000000","836923","863365","830127","0.000000","0.000000","0.000000","856750","869461","886189","0.000000","0.000000","0.000000","753091","866097","960740","0.000000","0.000000","0.000000","","","","","","","","","","","","","","","","Tape advance-DualSpot on"
"MA200-0420","53268","84","1","1.10","1.6","2023-08-25T10:15:00","120","2023/08/25","10:15:00","-15.787159979343414","35.03525599092245","0.1","11","300","68","67","-427","23472","-908","2","150","150.33","118.07","32.26","28.18","44.7","15.02","89484","27.50","DUALSPOT-UV-BLUE-GREEN-RED-IR","745780","689372","908298","0.000000","0.000000","0.000000","842551","882521","837645","0.000000","0.000000","0.000000","827797","861171","830520","0.000000","0.000000","0.000000","849474","867740","886505","0.000000","0.000000","0.000000","753729","870303","966687","0.000000","0.000000","0.000000","","","","","","","","","","","","","","","","Tape advance-DualSpot on"
"MA200-0420","53269","84","1","1.10","1.6","2023-08-25T10:20:00","120","2023/08/25","10:20:00","-15.787156820297241","35.03527865931392","0.0","10","300","64","66","-425","23591","-1033","2","150","149.40","117.35","32.05","28.34","44.4","15.07","89476","27.69","DUALSPOT-UV-BLUE-GREEN-RED-IR","727288","681835","903602","1.998788","0.582542","0.000000","833992","881987","840205","1.326603","0.365066","0.000000","820133","860171","832035","1.112107","0.300019","0.000000","844775","868481","889289","0.869301","0.229577","0.000000","746252","865069","962109","0.524885","0.132426","0.000000","10004","10675","10004","8380","8443","8380","7868","7771","7868","7432","7186","7432","6248","5771","6248","DualSpot on"
"MA200-0420","53270","84","1","1.10","1.6","2023-08-25T10:25:00","120","2023/08/25","10:25:00","-15.787201344966888","35.03527348861098","0.0","10","300","64","66","-470","23579","-820","2","150","149.92","117.70","32.22","28.44","43.7","14.90","89472","27.69","DUALSPOT-UV-BLUE-GREEN-RED-IR","716565","680193","906244","3.777515","1.116636","0.031988","819353","874024","835489","2.535221","0.708508","0.000000","814082","860089","834309","2.129242","0.583392","0.000000","840202","868844","891610","1.671861","0.447156","0.000000","743747","865294","963579","1.011835","0.255748","0.000000","8876","9735","10096","7612","7901","7612","7174","7301","7174","6841","6774","6841","5779","5346","5779","DualSpot on"
"MA200-0420","53271","84","1","1.10","1.6","2023-08-25T10:30:00","120","2023/08/25","10:30:00","-15.787145972251892","35.03527932614088","0.2","12","300","64","65","-450","23512","-866","2","150","149.87","117.40","32.47","28.58","43.5","14.97","89472","27.94","DUALSPOT-UV-BLUE-GREEN-RED-IR","703049","675402","904690","5.514427","1.652511","0.025690","808466","869723","834175","3.717470","1.046407","0.011971","804472","856124","832783","3.133135","0.862705","0.002645","831555","864942","889525","2.470790","0.663739","0.000000","738344","862154","961275","1.504678","0.382042","0.000000","8689","9693","10123","7465","7714","7812","7099","7142","7158","6827","6692","6827","5864","5433","5864","DualSpot on"
"MA200-0420","53272","84","1","1.10","1.6","2023-08-25T10:35:00","120","2023/08/25","10:35:00","-15.787177741527557","35.03528315573931","0.0","12","300","64","65","-470","23550","-983","2","150","149.82","118.01","31.81","28.71","43.3","14.98","89472","28.00","DUALSPOT-UV-BLUE-GREEN-RED-IR","694963","675227","909200","7.162967","2.171983","0.027239","803218","871344","838697","4.904442","1.396203","0.023498","794057","851226","830439","4.151123","1.153564","0.018446","821421","859459","885953","3.293625","0.894171","0.015367","736628","863519","964112","2.025093","0.516108","0.000000","8205","9591","10194","7456","8151","8427","7161","7590","7755","6995","7267","7368","6160","5887","6160","DualSpot on"
"MA200-0420","53273","84","1","1.10","1.6","2023-08-25T10:40:00","120","2023/08/25","10:40:00","-15.787231981754303","35.035267658531666","0.1","12","300","64","65","-500","23524","-867","2","150","149.60","117.07","32.53","28.75","42.8","14.86","0","0.00","DUALSPOT-UV-BLUE-GREEN-RED-IR","684990","672513","909947","8.700615","2.661188","0.019873","795436","869699","839862","6.022239","1.725584","0.013000","786793","849241","830792","5.117325","1.431524","0.009168","815791","858406","886770","4.074349","1.110765","-0.000495","732966","862358","964017","2.519500","0.643689","0.000000","7714","8833","9327","7078","7507","7679","6851","7094","7189","6690","6680","6677","5899","5479","5899","DualSpot on"
"MA200-0420","53274","84","1","1.10","1.6","2023-08-25T10:45:00","120","2023/08/25","10:45:00","-15.787151157855988","35.03527465835214","0.1","12","300","64","64","-441","23483","-904","2","150","150.64","117.58","33.07","28.80","42.7","14.88","0","0.00","DUALSPOT-UV-BLUE-GREEN-RED-IR","675459","669738","910611","10.174688","3.145708","0.019293","787540","867528","840497","7.095392","2.051025","0.013981","779941","847334","831202","6.040503","1.702666","0.009624","810661","857566","887792","4.822757","1.321929","0.000922","729878","861712","964517","2.993272","0.768872","0.000000","7363","8606","9162","6766","7295","7511","6518","6807","6921","6386","6406","6414","5628","5288","5628","DualSpot on"
"MA200-0420","53275","84","1","1.10","1.6","2023-08-25T10:50:00","120","2023/08/25","10:50:00","-15.787151873111725","35.035261157900095","0.0","12","300","64","64","-408","23529","-870","2","150","149.95","116.94","33.01","28.93","42.7","14.99","0","0.00","DUALSPOT-UV-BLUE-GREEN-RED-IR","660804","661587","903912","11.629625","3.633173","0.018383","779468","865003","840743","8.158019","2.374446","0.012187","773074","845313","831467","6.958168","1.973986","0.008930","804821","855929","887974","5.567890","1.535841","0.004130","725772","859851","963652","3.467079","0.894320","-0.026296","7307","8673","9294","6736","7263","7479","6514","6824","6946","6392","6501","6543","5659","5309","5187","DualSpot on"
"MA200-0420","53276","84","1","1.10","1.6","2023-08-25T10:55:00","120","2023/08/25","10:55:00","-15.787119030952454","35.03527199104428","0.1","13","300","64","63","-495","23458","-791","2","150","149.69","117.34","32.35","29.12","42.3","14.98","0","0.00","DUALSPOT-UV-BLUE-GREEN-RED-IR","649089","657927","904687","13.496933","4.273557","0.019480","770162","862201","841366","9.426468","2.769333","0.016390","764810","842696","831580","8.042741","2.298838","0.013401","797532","853512","887696","6.444400","1.787285","0.008214","721343","858206","963210","4.030891","1.043053","-0.015383","9347","11625","12681","8014","9048","9478","7673","8336","8601","7494","7797","7913","6712","6421","6320","DualSpot on"
"MA200-0420","53277","84","1","1.10","1.6","2023-08-25T11:00:00","120","2023/08/25","11:00:00","-15.787171363830566","35.03528065606952","0.1","13","300","64","63","-425","23491","-1075","2","150","149.95","117.61","32.34","29.31","41.9","15.03","89444","28.69","DUALSPOT-UV-BLUE-GREEN-RED-IR","642967","658443","910295","15.061859","4.808502","0.017479","760157","857514","839712","10.539766","3.116667","0.015234","756091","838648","829981","8.999106","2.586764","0.013070","789736","849808","885829","7.217028","2.010981","0.009487","720608","860467","967024","4.527805","1.173293","-0.014872","7815","9716","10608","7017","7962","8359","6750","7392","7650","6590","6940","7075","5902","5626","5529","DualSpot on"
"MA200-0420","53278","84","1","1.10","1.6","2023-08-25T11:05:00","120","2023/08/25","11:05:00","-15.78715580701828","35.03526799380779","0.0","13","300","64","63","-364","23596","-944","2","150","149.63","117.06","32.56","29.28","41.1","14.69","89436","28.50","DUALSPOT-UV-BLUE-GREEN-RED-IR","631952","653693","908611","16.608067","5.348697","0.016498","750854","853159","838308","11.606245","3.462511","0.016460","753579","841148","834812","9.910505","2.873271","0.015617","789981","854450","892605","7.945142","2.229449","0.012393","716965","858921","966481","4.983104","1.299182","-0.001664","7758","9743","10686","6753","7873","8348","6463","7304","7647","6240","6730","6921","5433","5400","5388","DualSpot on"
"MA200-0420","53279","84","1","1.10","1.6","2023-08-25T11:10:00","120","2023/08/25","11:10:00","-15.787200331687927","35.03527798876166","0.2","13","300","64","62","-408","23492","-800","2","150","150.15","117.24","32.91","29.31","41.1","14.73","89416","28.56","DUALSPOT-UV-BLUE-GREEN-RED-IR","622711","649841","907797","17.990090","5.847759","0.016562","742316","849273","837295","12.627685","3.797573","0.015384","745629","837306","833362","10.795259","3.154313","0.014525","782538","850652","890633","8.670798","2.451003","0.012561","712188","856028","964548","5.446649","1.433503","0.007710","6923","8907","9862","6458","7547","8016","6265","7090","7430","6209","6754","6968","5523","5701","5765","DualSpot on"
"MA200-0420","53280","84","1","1.10","1.6","2023-08-25T11:15:00","120","2023/08/25","11:15:00","-15.78711622953415","35.03527132421732","0.1","13","300","64","61","-384","23628","-1356","2","150","150.41","117.34","33.07","29.37","40.6","14.58","89404","28.56","DUALSPOT-UV-BLUE-GREEN-RED-IR","612913","646071","907649","19.564460","6.419052","0.015318","733681","845671","836905","13.750553","4.171145","0.014962","737673","833846","832490","11.766945","3.465634","0.013803","775353","847460","889456","9.460012","2.692690","0.011412","707844","853930","963560","5.958570","1.576438","-0.002152","7880","10146","11253","7094","8374","8931","6875","7815","8208","6748","7332","7564","6094","6037","6017","DualSpot on"
"MA200-0420","53281","84","1","1.10","1.6","2023-08-25T11:20:00","120","2023/08/25","11:20:00","-15.787177741527557","35.03525982797146","0.1","13","300","64","61","-295","23625","-908","2","150","149.59","117.16","32.42","29.48","40.5","14.66","89408","28.75","DUALSPOT-UV-BLUE-GREEN-RED-IR","602870","641271","905738","21.004688","6.952469","0.015989","723938","840350","834532","14.805749","4.522860","0.015359","730260","830595","831711","12.683337","3.760283","0.014745","767745","843545","887376","10.213565","2.924239","0.013109","707574","856655","967977","6.450544","1.716747","0.006194","7220","9662","10871","6676","8041","8641","6493","7544","7987","6452","7164","7450","5865","6045","6110","DualSpot on"
"MA200-0420","53282","84","1","1.10","1.6","2023-08-25T11:25:00","120","2023/08/25","11:25:00","-15.78720486164093","35.03526882454753","0.2","13","300","64","61","-372","23484","-855","2","150","149.94","117.32","32.62","29.52","40.1","14.53","89380","28.81","DUALSPOT-UV-BLUE-GREEN-RED-IR","596361","639471","907655","22.304126","7.445507","0.015860","718732","839551","836500","15.761703","4.852462","0.016340","725467","829723","833139","13.516286","4.038008","0.016368","765127","844585","890377","10.896171","3.140805","0.015183","701229","851578","963495","6.892191","1.845035","0.008355","6505","8877","10066","6040","7490","8135","5894","7068","7568","5837","6660","6994","5258","5493","5579","DualSpot on"
"MA200-0420","53283","84","1","1.10","1.6","2023-08-25T11:30:00","120","2023/08/25","11:30:00","-15.78717166185379","35.035269156098366","0.1","13","300","64","60","-425","23487","-787","2","150","150.37","116.97","33.41","29.53","39.7","14.40","89372","28.75","DUALSPOT-UV-BLUE-GREEN-RED-IR","586609","634013","904399","23.590950","7.941314","0.014615","715772","841192","840866","16.695654","5.178535","0.014605","717453","824997","830683","14.328268","4.310110","0.013866","756813","839197","886585","11.561486","3.353043","0.012234","700354","853148","966488","7.323200","1.970124","0.002958","6461","8717","9862","5919","7236","7828","5763","6762","7192","5706","6374","6646","5147","5230","5261","DualSpot on"
"MA200-0420","53284","84","1","1.10","1.6","2023-08-25T11:35:00","120","2023/08/25","11:35:00","-15.787248492240906","35.035275824368","0.0","12","300","64","60","-391","23504","-833","2","150","149.69","117.26","32.43","29.57","39.4","14.29","89352","28.81","DUALSPOT-UV-BLUE-GREEN-RED-IR","581182","632728","906896","24.796516","8.419701","0.016007","705045","833436","835832","17.601750","5.502918","0.017034","713450","824753","832660","15.123540","4.582484","0.016845","754938","840868","890237","12.220745","3.565430","0.015443","694904","849082","963123","7.756885","2.098034","0.010745","6038","8663","10013","5728","7414","8181","5630","6972","7555","5640","6570","6952","5166","5509","5636","DualSpot on"
"MA200-0420","53285","84","1","1.10","1.6","2023-08-25T11:40:00","120","2023/08/25","11:40:00","-15.787217736244202","35.03527499362826","0.1","12","300","64","60","-444","23516","-796","2","150","149.76","116.90","32.85","29.46","38.6","13.89","89348","28.69","DUALSPOT-UV-BLUE-GREEN-RED-IR","575199","631891","911166","26.296554","9.017464","0.014785","701682","835022","840577","18.646678","5.880298","0.015767","708985","824398","834949","16.023699","4.896062","0.016007","751780","841508","893093","12.953070","3.806842","0.015194","693813","850528","966120","8.223926","2.239962","0.012225","7536","10687","12331","6626","8515","9385","6392","7924","8598","6284","7372","7824","5581","6034","6204","DualSpot on"
"MA200-0420","53286","84","1","1.10","1.6","2023-08-25T11:45:00","120","2023/08/25","11:45:00","-15.787134349346161","35.0352674908936","0.0","12","300","64","59","-336","23488","-824","2","150","149.87","116.74","33.13","29.34","38.3","13.67","89352","28.56","DUALSPOT-UV-BLUE-GREEN-RED-IR","566043","626797","908552","27.619954","9.545971","0.013888","692519","829240","837739","19.626626","6.235165","0.014675","702311","821185","834154","16.879258","5.194447","0.014723","745782","838732","892202","13.658197","4.039937","0.013887","690361","849027","965708","8.678780","2.378359","0.010416","6658","9369","10801","6222","7940","8740","6084","7477","8096","6059","7058","7478","5442","5835","5983","DualSpot on"
"MA200-0420","53287","84","1","1.10","1.6","2023-08-25T11:50:00","120","2023/08/25","11:50:00","-15.787144005298615","35.03526932373643","0.0","12","300","64","59","-468","23516","-871","2","150","149.47","116.63","32.83","29.38","37.9","13.56","89336","28.69","DUALSPOT-UV-BLUE-GREEN-RED-IR","559565","624114","909210","28.846428","10.046947","0.014178","686722","827024","838320","20.536954","6.572662","0.015482","696819","818937","834225","17.674424","5.478375","0.015845","740958","836900","892245","14.315006","4.261719","0.015454","687323","847769","965586","9.110722","2.512467","0.013656","6176","8962","10450","5786","7620","8483","5660","7179","7861","5649","6776","7254","5173","5705","5908","DualSpot on"
"MA200-0420","53288","84","1","1.10","1.6","2023-08-25T11:55:00","120","2023/08/25","11:55:00","-15.787318348884583","35.035207990556955","0.1","12","300","64","59","-391","23550","-891","2","150","149.90","116.94","32.96","29.33","37.3","13.24","89324","28.56","DUALSPOT-UV-BLUE-GREEN-RED-IR","551699","619823","907429","30.070866","10.546268","0.013554","678553","822030","836127","21.477190","6.921207","0.014777","690558","815947","833682","18.506752","5.774353","0.014883","734929","833928","891169","15.008383","4.494144","0.014167","683680","846002","964931","9.571911","2.652726","0.010281","6150","8897","10381","5960","7838","8731","5909","7454","8155","5948","7074","7555","5509","5944","6110","DualSpot on"
"MA200-0420","53289","84","1","1.10","1.6","2023-08-25T12:00:00","120","2023/08/25","12:00:00","-15.787127792835236","35.03528032451868","0.1","12","300","64","58","-437","23550","-875","2","150","149.84","116.63","33.20","29.49","37.9","13.64","89300","28.88","DUALSPOT-UV-BLUE-GREEN-RED-IR","544575","615370","904786","31.077710","10.969604","0.013655","676971","824308","841022","22.292118","7.222897","0.013804","683452","811337","831098","19.234328","6.032592","0.013751","726432","827704","886318","15.627125","4.702512","0.013275","682192","846623","966913","9.998657","2.783488","0.009574","5070","7489","8808","5179","6736","7482","5179","6457","7041","5322","6296","6715","5111","5501","5652","DualSpot on"
"MA200-0420","53290","84","1","1.10","1.6","2023-08-25T12:05:00","120","2023/08/25","12:05:00","-15.787232160568237","35.03525049239397","0.1","13","300","64","58","-344","23572","-867","2","150","149.47","116.94","32.53","29.67","37.5","13.64","89288","29.06","DUALSPOT-UV-BLUE-GREEN-RED-IR","540819","615301","909296","32.261422","11.476246","0.014113","668275","818418","837916","23.212548","7.571768","0.015068","679897","811324","833562","20.053810","6.329653","0.015304","724958","829745","890616","16.319307","4.939703","0.015286","676412","842296","963392","10.485538","2.932814","0.011877","5945","9147","10915","5835","7950","8974","5818","7581","8394","5938","7315","7912","5816","6412","6643","DualSpot on"
"MA200-0420","53291","84","1","1.10","1.6","2023-08-25T12:10:00","120","2023/08/25","12:10:00","-15.787213027477264","35.03528666123748","0.1","13","300","64","58","-370","23566","-825","2","150","149.56","117.02","32.54","29.77","36.9","13.46","89272","29.06","DUALSPOT-UV-BLUE-GREEN-RED-IR","534109","611703","908417","33.421986","11.970791","0.013567","661689","814796","837050","24.102878","7.915601","0.015213","674294","808634","833207","20.837842","6.618866","0.015534","719147","826642","889335","16.972412","5.168095","0.015926","672752","840313","962456","10.927116","3.071393","0.013887","5825","8926","10657","5640","7833","8905","5562","7379","8224","5599","7041","7673","5271","5949","6214","DualSpot on"
"MA200-0420","53292","84","1","1.10","1.6","2023-08-25T12:15:00","120","2023/08/25","12:15:00","-15.787077963352203","35.03532515838742","0.1","12","300","64","57","-424","23472","-792","2","150","149.41","116.75","32.66","29.94","36.9","13.65","89260","29.25","DUALSPOT-UV-BLUE-GREEN-RED-IR","526548","607288","906656","34.646924","12.498135","0.013201","653358","809207","834376","25.042628","8.278208","0.014440","667833","805113","832140","21.672068","6.927139","0.014787","712895","823184","887781","17.671806","5.412460","0.014941","672498","842794","966746","11.413258","3.223116","0.012154","6162","9483","11357","5967","8230","9347","5932","7836","8730","6010","7506","8166","5817","6489","6753","DualSpot on"
"MA200-0420","53293","84","1","1.10","1.6","2023-08-25T12:20:00","120","2023/08/25","12:20:00","-15.787093460559845","35.03529982641339","0.0","12","300","64","57","-435","23564","-884","2","150","149.38","116.74","32.63","29.91","36.1","13.24","89252","29.19","DUALSPOT-UV-BLUE-GREEN-RED-IR","519994","603245","904666","35.680736","12.948936","0.013111","652784","812388","840325","25.846206","8.597675","0.014995","661830","801394","830560","22.385980","7.199060","0.015562","706877","819374","885559","18.273282","5.628203","0.015895","668265","839783","964598","11.820999","3.354559","0.014915","5201","8114","9773","5102","7257","8331","5076","6918","7791","5168","6633","7284","4878","5626","5923","DualSpot on"
"MA200-0420","53294","84","1","1.10","1.6","2023-08-25T12:25:00","120","2023/08/25","12:25:00","-15.787206649780273","35.03524365648627","0.1","12","300","64","56","-504","23500","-744","2","150","149.60","116.58","33.02","29.93","36.1","13.30","89252","29.19","DUALSPOT-UV-BLUE-GREEN-RED-IR","516344","602158","906760","36.623136","13.363907","0.012727","643725","804851","835006","26.608892","8.895568","0.013630","658412","800681","831944","23.071012","7.455522","0.013962","704106","819226","887232","18.854688","5.833475","0.013945","666747","840214","966329","12.227921","3.483774","0.011833","4748","7380","8893","4850","6687","7609","4878","6447","7196","5003","6236","6788","4876","5466","5701","DualSpot on"
"MA200-0420","53295","84","1","1.10","1.6","2023-08-25T12:30:00","120","2023/08/25","12:30:00","-15.787165105342865","35.03528815880418","0.1","12","300","64","56","-424","23528","-796","2","150","149.77","116.82","32.95","30.11","36.3","13.54","89248","29.50","DUALSPOT-UV-BLUE-GREEN-RED-IR","513613","601525","909107","37.414296","13.728035","0.013350","641126","804660","837019","27.255728","9.159628","0.014769","656156","800761","833895","23.654216","7.682188","0.015171","703950","821635","891465","19.352994","6.017555","0.016022","661382","835436","961911","12.579601","3.599690","0.015186","3977","6490","7947","4104","5940","6870","4144","5711","6464","4279","5604","6202","4205","4914","5198","DualSpot on"
"MA200-0420","53296","84","1","1.10","1.6","2023-08-25T12:35:00","120","2023/08/25","12:35:00","-15.787156283855438","35.035284996032715","0.1","12","300","64","56","-427","23488","-676","2","150","149.82","116.71","33.12","30.38","36.2","13.73","89228","29.81","DUALSPOT-UV-BLUE-GREEN-RED-IR","506183","596060","905082","38.415452","14.189873","0.012965","638044","804413","839284","28.007784","9.460993","0.013698","648662","794886","829916","24.319118","7.935127","0.013809","700597","820664","892224","19.913236","6.216916","0.013546","662873","839639","967980","12.979614","3.722997","0.008321","5038","8191","10038","4777","6746","7750","4730","6341","7121","4816","6039","6595","4788","5201","5367","DualSpot on"
"MA200-0420","53297","84","1","1.10","1.6","2023-08-25T12:40:00","120","2023/08/25","12:40:00","-15.787086606025696","35.0352963283658","0.0","12","300","64","55","-356","23496","-780","2","150","150.35","117.45","32.91","30.70","36.1","13.98","89216","30.19","DUALSPOT-UV-BLUE-GREEN-RED-IR","503061","595586","908728","39.444536","14.674046","0.013174","629987","798009","835298","28.800400","9.782969","0.014070","645950","795063","832331","25.029194","8.207262","0.014134","692859","814735","887678","20.518014","6.436273","0.014637","656291","833817","962591","13.420189","3.860709","0.010408","5146","8642","10713","5003","7253","8411","5019","6866","7767","5166","6688","7383","5240","5846","6091","DualSpot on"
"MA200-0420","53298","84","1","1.10","1.6","2023-08-25T12:45:00","120","2023/08/25","12:45:00","-15.78724467754364","35.03527665883303","0.0","12","300","64","55","-433","23525","-825","2","150","149.71","116.94","32.78","31.06","36.0","14.21","0","0.00","DUALSPOT-UV-BLUE-GREEN-RED-IR","497942","592139","907039","40.280168","15.068142","0.012951","629373","800428","840204","29.481800","10.067451","0.014463","644410","796126","835449","25.641660","8.450526","0.014957","693367","818051","893056","21.043458","6.634454","0.015942","655655","835174","965354","13.804192","3.983735","0.012127","4197","7062","8774","4319","6434","7531","4348","6162","7053","4508","6066","6783","4587","5243","5509","DualSpot on"
"MA200-0420","53299","84","1","1.10","1.6","2023-08-25T12:50:00","120","2023/08/25","12:50:00","-15.787159025669098","35.03528782352805","0.1","12","300","64","54","-372","23576","-1048","2","150","148.77","115.92","32.85","31.26","35.2","14.06","0","0.00","DUALSPOT-UV-BLUE-GREEN-RED-IR","491658","587453","903628","41.173696","15.488968","0.012501","622447","794835","836828","30.186080","10.366023","0.014251","638334","791555","832770","26.267768","8.704151","0.014883","686393","812477","888778","21.572574","6.834738","0.015267","650435","830638","961317","14.183285","4.110441","0.014208","4527","7523","9329","4504","6736","7904","4484","6409","7362","4579","6116","6828","4568","5387","5721","DualSpot on"
"MA200-0420","53300","84","1","1.10","1.6","2023-08-25T12:55:00","120","2023/08/25","12:55:00","-15.787142157554626","35.035284496843815","0.0","12","300","64","54","-388","23504","-900","2","150","150.08","116.43","33.65","31.30","34.8","13.91","89208","30.63","DUALSPOT-UV-BLUE-GREEN-RED-IR","489855","588217","908892","42.114660","15.936459","0.012095","616701","790698","835019","30.898046","10.669629","0.013614","633114","787998","831211","26.899968","8.961717","0.014144","681400","809230","887022","22.103850","7.038872","0.014739","650855","833162","965488","14.549328","4.237570","0.015220","4746","7810","9675","4533","6688","7824","4508","6354","7276","4578","6085","6790","4391","5277","5641","DualSpot on"
"MA200-0420","53301","84","1","1.10","1.6","2023-08-25T13:00:00","120","2023/08/25","13:00:00","-15.787203013896942","35.03529032319784","0.0","11","300","64","54","-366","23504","-862","2","150","149.56","116.27","33.29","31.44","34.4","13.85","89208","30.75","DUALSPOT-UV-BLUE-GREEN-RED-IR","483451","583395","905611","43.081060","16.401222","0.012146","614994","791700","838632","31.613758","10.978795","0.013855","631396","788738","834153","27.528018","9.220538","0.014452","681073","811398","891232","22.627810","7.243044","0.015327","650438","834553","968260","14.908085","4.361445","0.015127","4881","8200","10240","4563","6884","8120","4484","6454","7447","4521","6153","6921","4310","5198","5565","DualSpot on"
"MA200-0420","53302","84","1","1.10","1.6","2023-08-25T13:05:00","120","2023/08/25","13:05:00","-15.787221312522888","35.03527098894119","0.0","11","300","64","53","-441","23537","-737","2","150","149.82","116.98","32.84","31.54","34.4","13.95","89212","30.94","DUALSPOT-UV-BLUE-GREEN-RED-IR","480094","581632","906286","43.850072","16.777580","0.012458","611885","790512","839616","32.235444","11.247634","0.014071","627639","786654","833833","28.086278","9.450753","0.014745","677436","809407","890661","23.102046","7.428021","0.015786","647717","832894","967488","15.243446","4.479561","0.017387","3861","6731","8510","3939","6068","7209","3962","5820","6762","4067","5651","6401","4004","5024","5448","DualSpot on"
"MA200-0420","53303","84","1","1.10","1.6","2023-08-25T13:10:00","120","2023/08/25","13:10:00","-15.787144660949707","35.035272657871246","0.1","11","300","64","53","-370","23545","-754","2","150","149.38","116.39","32.99","31.74","34.1","13.99","0","0.00","DUALSPOT-UV-BLUE-GREEN-RED-IR","476567","579323","905737","44.524576","17.113270","0.012379","608322","788299","839358","32.789718","11.493106","0.014155","624489","784948","833729","28.583324","9.658996","0.014672","674355","807802","890360","23.528660","7.595681","0.015447","644735","830736","966025","15.550896","4.584119","0.014203","3403","5977","7583","3530","5516","6588","3545","5241","6106","3677","5099","5777","3690","4427","4736","DualSpot on"
"MA200-0420","53304","84","1","1.10","1.6","2023-08-25T13:15:00","120","2023/08/25","13:15:00","-15.787147641181946","35.035295996814966","0.3","11","300","64","53","-475","23495","-708","2","150","149.56","116.55","33.01","31.82","33.5","13.81","0","0.00","DUALSPOT-UV-BLUE-GREEN-RED-IR","472771","576478","904111","45.149520","17.430466","0.012476","603591","784444","837234","33.316586","11.731904","0.014433","620740","782368","832719","29.061168","9.867052","0.015433","670733","805413","889251","23.939482","7.762822","0.016389","642191","829020","964981","15.842930","4.689522","0.017693","3149","5643","7211","3351","5362","6455","3403","5232","6172","3536","5079","5819","3500","4460","4863","DualSpot on"
"MA200-0420","53305","84","1","1.10","1.6","2023-08-25T13:20:00","120","2023/08/25","13:20:00","-15.787156641483307","35.03522065654397","0.5","12","300","64","52","-376","23460","-844","2","150","149.32","116.71","32.61","31.83","33.2","13.67","0","0.00","DUALSPOT-UV-BLUE-GREEN-RED-IR","473293","578832","910656","45.758012","17.742478","0.012609","600840","783024","837738","33.833944","11.970228","0.014805","617358","780152","832100","29.532128","10.071893","0.015504","666875","802671","887698","24.343040","7.929000","0.016950","639605","827139","963822","16.125751","4.793442","0.019192","3062","5619","7239","3286","5417","6584","3350","5215","6180","3469","5112","5906","3385","4451","4902","DualSpot on"
"MA200-0420","53306","84","1","1.10","1.6","2023-08-25T13:25:00","120","2023/08/25","13:25:00","-15.787178039550781","35.03525799140334","0.1","12","300","64","51","-368","23508","-820","2","150","150.15","116.35","33.80","31.68","32.6","13.25","0","0.00","DUALSPOT-UV-BLUE-GREEN-RED-IR","468661","574856","907210","46.359824","18.047130","0.011837","595638","778398","834714","34.346440","12.205786","0.013818","616650","781305","835014","29.996994","10.277522","0.014768","661819","798468","884488","24.742370","8.091718","0.015133","636675","824746","962044","16.399643","4.896478","0.018057","3038","5294","6732","3265","5166","6215","3317","5051","5955","3443","4830","5504","3288","4258","4672","DualSpot on"
"MA200-0420","53307","84","1","1.10","1.6","2023-08-25T13:30:00","120","2023/08/25","13:30:00","-15.78715968132019","35.0352528244257","0.1","12","300","64","51","-420","23466","-683","2","150","149.65","116.63","33.02","31.67","32.9","13.39","89156","30.94","DUALSPOT-UV-BLUE-GREEN-RED-IR","465661","572891","906962","46.981432","18.367340","0.012212","597147","782611","841252","34.871696","12.446717","0.014081","613249","779069","834372","30.472380","10.485683","0.014921","663851","802846","890853","25.149674","8.262282","0.016562","638168","828133","967016","16.681030","5.003244","0.019613","3130","5696","7344","3338","5409","6559","3383","5234","6205","3503","5183","6004","3370","4517","5009","DualSpot on"
"MA200-0420","53308","84","1","1.10","1.6","2023-08-25T13:35:00","120","2023/08/25","13:35:00","-15.78715831041336","35.03525582700968","0.2","12","300","64","51","-424","23524","-760","2","150","149.87","116.66","33.21","31.64","32.6","13.23","89148","30.88","DUALSPOT-UV-BLUE-GREEN-RED-IR","463595","572111","908621","47.606508","18.687728","0.011942","590272","775837","836031","35.402504","12.688795","0.013672","607435","773779","830466","30.956912","10.697233","0.014508","656989","796527","885349","25.569030","8.432261","0.015148","633192","823267","962397","16.983116","5.112767","0.016558","3147","5665","7293","3373","5403","6537","3448","5288","6259","3606","5134","5886","3617","4606","5032","DualSpot on"
"MA200-0420","53309","84","1","1.10","1.6","2023-08-25T13:40:00","120","2023/08/25","13:40:00","-15.787202537059784","35.035253159701824","0.3","12","300","64","50","-396","23520","-820","2","150","150.08","116.83","33.25","31.74","33.4","13.66","0","0.00","DUALSPOT-UV-BLUE-GREEN-RED-IR","461319","571012","909868","48.234420","19.013974","0.011956","587527","774426","836511","35.931116","12.932130","0.013663","605493","773385","831777","31.435914","10.906400","0.014312","656457","797846","888290","25.984562","8.602360","0.015231","632477","823917","964169","17.280846","5.220237","0.016063","3156","5762","7458","3354","5424","6589","3404","5222","6188","3568","5132","5905","3560","4514","4928","DualSpot on"
"MA200-0420","53310","84","1","1.10","1.6","2023-08-25T13:45:00","120","2023/08/25","13:45:00","-15.787227988243103","35.03527499362826","0.0","12","300","64","49","-366","23475","-679","2","150","149.60","116.58","33.02","31.84","33.4","13.75","0","0.00","DUALSPOT-UV-BLUE-GREEN-RED-IR","455617","565422","903617","48.791068","19.307900","0.012061","584544","772445","836214","36.405904","13.153073","0.013777","603458","772634","832549","31.866764","11.098018","0.014641","654680","797374","889203","26.356868","8.758269","0.015835","631009","823339","964453","17.549836","5.320002","0.017516","2804","5227","6814","3019","4959","6057","3068","4817","5751","3204","4736","5499","3223","4220","4653","DualSpot on"
"MA200-0420","53311","84","1","1.10","1.6","2023-08-25T13:50:00","120","2023/08/25","13:50:00","-15.787047982215881","35.0353349968791","0.1","12","300","64","49","-375","23512","-862","2","150","149.71","116.07","33.64","31.99","33.0","13.72","89148","31.38","DUALSPOT-UV-BLUE-GREEN-RED-IR","453491","564188","904298","49.334092","19.602764","0.011993","582077","771028","836553","36.866408","13.374867","0.013817","601437","771798","833282","32.286850","11.291214","0.014689","652785","796713","889824","26.719646","8.913198","0.015542","629530","822806","964788","17.814568","5.420090","0.017080","2747","5147","6730","2941","4887","5995","3004","4767","5715","3135","4620","5362","3186","4155","4579","DualSpot on"
"MA200-0420","53312","84","1","1.10","1.6","2023-08-25T13:55:00","120","2023/08/25","13:55:00","-15.787217736244202","35.03527332469821","0.1","12","300","64","48","-392","23552","-780","2","150","149.38","116.35","33.03","32.13","32.6","13.62","0","0.00","DUALSPOT-UV-BLUE-GREEN-RED-IR","453392","565435","908831","49.854248","19.884350","0.012064","582884","773881","841435","37.309256","13.587303","0.013949","596933","767724","830397","32.692070","11.475334","0.014703","647479","791851","885751","27.070454","9.064301","0.016163","629143","823653","966703","18.072406","5.515299","0.016719","2625","5007","6588","2821","4768","5883","2891","4628","5567","3024","4590","5378","3095","4027","4436","DualSpot on"
"MA200-0420","53313","84","1","1.10","1.6","2023-08-25T14:00:00","120","2023/08/25","14:00:00","-15.787193655967712","35.03525549173355","0.1","13","300","64","48","-352","23528","-676","2","150","149.94","116.12","33.82","32.15","32.2","13.49","0","0.00","DUALSPOT-UV-BLUE-GREEN-RED-IR","448211","560405","903337","50.399696","20.171914","0.011401","576284","767005","835770","37.778912","13.809285","0.013113","595388","767532","831768","33.121056","11.667387","0.013688","646730","792624","887995","27.443776","9.219997","0.014362","624544","819010","962216","18.344594","5.613916","0.014182","2758","4994","6485","2998","4865","5941","3067","4714","5610","3225","4618","5323","3274","4073","4425","DualSpot on"
"MA200-0420","53314","84","1","1.10","1.6","2023-08-25T14:05:00","120","2023/08/25","14:05:00","-15.787138819694519","35.035231325775385","0.1","13","300","68","48","-352","23532","-724","3","150","150.52","118.41","32.11","32.10","32.0","13.32","0","0.00","DUALSPOT-UV-BLUE-GREEN-RED-IR","780756","697661","911476","0.000000","0.000000","0.000000","866922","889473","838676","0.000000","0.000000","0.000000","847297","866137","830532","0.000000","0.000000","0.000000","868366","874394","889768","0.000000","0.000000","0.000000","762114","871635","967289","0.000000","0.000000","0.000000","","","","","","","","","","","","","","","","Tape advance-DualSpot on"
"MA200-0420","53315","84","1","1.10","1.6","2023-08-25T14:10:00","120","2023/08/25","14:10:00","-15.787174642086029","35.03526598960161","0.0","12","300","68","47","-425","23533","-670","3","150","150.34","118.13","32.22","32.07","32.0","13.32","0","0.00","DUALSPOT-UV-BLUE-GREEN-RED-IR","770286","694942","910927","0.000000","0.000000","0.000000","857937","886318","837653","0.000000","0.000000","0.000000","840769","864477","830581","0.000000","0.000000","0.000000","863759","873722","890487","0.000000","0.000000","0.000000","759558","871152","967631","0.000000","0.000000","0.000000","","","","","","","","","","","","","","","","Tape advance-DualSpot on"
"MA200-0420","53316","84","1","1.10","1.6","2023-08-25T14:15:00","120","2023/08/25","14:15:00","-15.787159025669098","35.03526032343507","0.1","13","300","64","47","-431","23560","-816","3","150","149.77","117.65","32.12","32.11","32.1","13.37","0","0.00","DUALSPOT-UV-BLUE-GREEN-RED-IR","759424","690740","908203","1.122354","0.303373","0.000000","848772","881985","835331","0.797951","0.212895","0.000000","838121","866076","833600","0.678443","0.179016","0.000000","855375","868700","886587","0.534622","0.139215","0.000000","754414","867381","964233","0.322813","0.081982","0.000000","5603","5547","5603","5027","4913","5027","4787","4627","4787","4558","4348","4558","3832","3565","3832","DualSpot on"
"MA200-0420","53317","84","1","1.10","1.6","2023-08-25T14:20:00","120","2023/08/25","14:20:00","-15.787167847156525","35.03527082130313","0.0","13","300","64","46","-408","23562","-829","3","150","150.15","118.28","31.86","32.19","32.2","13.50","0","0.00","DUALSPOT-UV-BLUE-GREEN-RED-IR","748208","685928","904533","2.203210","0.599090","0.000000","845931","884006","838972","1.569336","0.420528","0.000000","829921","861753","830921","1.336651","0.353240","0.000000","854445","871073","890234","1.055054","0.274214","0.000000","754449","869485","967335","0.641109","0.160997","0.000000","5367","5451","5367","4834","4831","4834","4619","4539","4619","4414","4250","4414","3759","3464","3759","DualSpot on"
"MA200-0420","53318","84","1","1.10","1.6","2023-08-25T14:25:00","120","2023/08/25","14:25:00","-15.787081778049469","35.03530116006732","0.0","13","300","64","46","-375","23550","-783","3","150","149.95","118.13","31.82","32.22","31.6","13.24","89144","31.56","DUALSPOT-UV-BLUE-GREEN-RED-IR","744443","688085","910316","3.341571","0.919626","0.017557","837419","880172","837180","2.361178","0.639564","0.000000","823716","859509","830286","2.010473","0.536424","0.000000","848449","868369","888737","1.588457","0.416508","0.000000","750950","867620","966062","0.971908","0.242499","0.000000","5660","5915","6013","4969","5102","4969","4735","4778","4735","4530","4485","4530","3911","3577","3911","DualSpot on"
"MA200-0420","53319","84","1","1.10","1.6","2023-08-25T14:30:00","120","2023/08/25","14:30:00","-15.78714632987976","35.03527882322669","0.1","13","300","64","45","-368","23484","-824","3","150","149.76","118.52","31.23","32.15","31.3","13.03","0","0.00","DUALSPOT-UV-BLUE-GREEN-RED-IR","734448","683865","907413","4.378027","1.218689","0.026552","828542","875484","834460","3.104837","0.848913","0.027652","821297","860945","833132","2.647167","0.715398","0.000000","842239","865174","886665","2.092103","0.554289","0.000000","747504","865589","964592","1.280603","0.324654","0.000000","5136","5623","5811","4651","4968","5088","4459","4757","4459","4263","4425","4263","3638","3674","3638","DualSpot on"
"MA200-0420","53320","84","1","1.10","1.6","2023-08-25T14:35:00","120","2023/08/25","14:35:00","-15.787151992321014","35.03526249155402","0.1","13","300","64","45","-388","23536","-776","3","150","149.60","117.98","31.62","32.14","31.0","12.87","0","0.00","DUALSPOT-UV-BLUE-GREEN-RED-IR","726102","680730","905817","5.349220","1.502958","0.021261","827789","879062","839556","3.807466","1.049828","0.022260","815266","858310","831992","3.247170","0.882542","0.015860","843741","869711","892494","2.570289","0.685116","0.000000","743967","863364","962825","1.572511","0.399353","0.000000","4834","5281","5455","4414","4710","4823","4222","4389","4451","4066","4151","4066","3456","3300","3456","DualSpot on"
"MA200-0420","53321","84","1","1.10","1.6","2023-08-25T14:40:00","120","2023/08/25","14:40:00","-15.787167847156525","35.03526799380779","0.0","12","300","64","44","-495","23541","-670","3","150","150.21","117.93","32.28","32.03","30.8","12.66","89136","31.31","DUALSPOT-UV-BLUE-GREEN-RED-IR","722171","681619","909596","6.310526","1.790702","0.018292","818930","874036","836450","4.510113","1.253414","0.016603","813201","859848","834909","3.851003","1.055741","0.016051","836083","864852","888693","3.052764","0.819716","0.008348","744890","866291","966839","1.862724","0.475025","0.000000","4787","5235","5412","4416","4675","4774","4251","4454","4531","4104","4183","4211","3437","3274","3437","DualSpot on"
"MA200-0420","53322","84","1","1.10","1.6","2023-08-25T14:45:00","120","2023/08/25","14:45:00","-15.787168860435486","35.0352538228035","0.1","12","300","64","43","-384","23552","-752","3","150","149.89","117.89","32.00","31.89","30.7","12.54","0","0.00","DUALSPOT-UV-BLUE-GREEN-RED-IR","714991","679480","909401","7.290195","2.082622","0.016534","813334","872505","836718","5.231587","1.463425","0.017483","807628","857772","834368","4.476852","1.234996","0.015852","831303","862995","888052","3.553505","0.958569","0.008119","742504","865486","966709","2.172685","0.557172","0.000000","4880","5358","5549","4536","4865","4993","4407","4651","4744","4261","4353","4388","3672","3586","3672","DualSpot on"
"MA200-0420","53323","84","1","1.10","1.6","2023-08-25T14:50:00","120","2023/08/25","14:50:00","-15.78710275888443","35.03530399128795","0.0","12","300","64","43","-350","23529","-845","3","150","149.94","117.78","32.16","31.83","31.2","12.70","0","0.00","DUALSPOT-UV-BLUE-GREEN-RED-IR","707210","677914","910648","8.506107","2.445737","0.013640","807017","871568","838103","6.168015","1.731211","0.009966","802660","857579","836116","5.298498","1.466357","0.007773","828578","864449","891152","4.229258","1.143626","0.000892","736301","861040","962874","2.608944","0.672374","0.000000","6063","6630","6859","5894","6171","6280","5791","5971","6040","5756","5772","5778","5174","5003","5174","DualSpot on"
"MA200-0420","53324","84","1","1.10","1.6","2023-08-25T14:55:00","120","2023/08/25","14:55:00","-15.78715854883194","35.035259660333395","0.0","12","300","64","42","-379","23483","-729","3","150","149.77","117.88","31.89","31.84","30.9","12.59","89128","31.13","DUALSPOT-UV-BLUE-GREEN-RED-IR","695908","671997","905604","9.570389","2.771745","0.016391","802425","871557","840109","6.984424","1.970631","0.014985","793398","851942","832325","6.012039","1.671731","0.013509","825020","864313","892491","4.812453","1.305957","0.007900","734615","861416","964202","2.981586","0.770761","0.000000","5303","6003","6289","5134","5565","5734","5025","5346","5469","4963","5106","5159","4416","4309","4416","DualSpot on"
"MA200-0420","53325","84","1","1.10","1.6","2023-08-25T15:00:00","120","2023/08/25","15:00:00","-15.787186861038208","35.0352768227458","0.1","12","300","64","42","-431","23680","-859","3","150","149.52","117.88","31.64","31.84","30.9","12.55","89132","31.13","DUALSPOT-UV-BLUE-GREEN-RED-IR","689263","670032","905862","10.555105","3.086517","0.020118","797204","870411","840921","7.732489","2.197850","0.020069","788355","850409","832476","6.665524","1.867318","0.020654","820128","862479","891964","5.345192","1.460822","0.019153","732237","860750","964386","3.323808","0.863995","0.005923","4906","5842","6229","4704","5323","5568","4602","5131","5337","4534","4909","5051","4055","4115","4137","DualSpot on"
"MA200-0420","53326","84","1","1.10","1.6","2023-08-25T15:05:00","120","2023/08/25","15:05:00","-15.787237346172333","35.03525549173355","0.2","12","300","64","41","-372","23552","-900","3","150","150.28","117.65","32.63","31.83","30.6","12.40","0","0.00","DUALSPOT-UV-BLUE-GREEN-RED-IR","685351","670805","909774","11.560556","3.406034","0.014819","787300","864240","836894","8.498595","2.432483","0.015002","785097","850888","834606","7.334976","2.066177","0.012272","812621","857888","888628","5.892071","1.617903","0.007953","727278","857086","961221","3.677086","0.961274","-0.002655","5019","5751","6057","4827","5330","5532","4724","5059","5191","4663","4829","4892","4194","4164","4154","DualSpot on"
"MA200-0420","53327","84","1","1.10","1.6","2023-08-25T15:10:00","120","2023/08/25","15:10:00","-15.787212669849396","35.03529682382941","0.1","12","300","64","40","-458","23466","-716","3","150","149.93","117.83","32.10","31.86","30.9","12.57","0","0.00","DUALSPOT-UV-BLUE-GREEN-RED-IR","674926","664554","903928","12.450542","3.698707","0.018265","783532","864046","838420","9.168496","2.639306","0.017173","776738","845289","830565","7.922457","2.244234","0.017104","810447","858477","890463","6.368810","1.757412","0.014555","725963","857489","962434","3.984148","1.043232","-0.007139","4436","5354","5742","4214","4775","5002","4139","4604","4788","4059","4359","4474","3640","3566","3539","DualSpot on"
"MA200-0420","53328","84","1","1.10","1.6","2023-08-25T15:15:00","120","2023/08/25","15:15:00","-15.787184417247772","35.035314824432135","0.1","13","300","64","40","-408","23536","-800","3","150","149.82","118.13","31.69","31.81","30.6","12.38","89128","31.13","DUALSPOT-UV-BLUE-GREEN-RED-IR","669429","662847","904119","13.288822","3.976795","0.018984","778658","862408","838547","9.807147","2.841610","0.020674","772991","844458","831195","8.478646","2.415347","0.020071","807376","857954","891128","6.823728","1.892152","0.018421","724507","857523","963274","4.271181","1.123224","0.011676","4168","5153","5574","4007","4731","5027","3909","4482","4710","3863","4265","4419","3394","3525","3572","DualSpot on"
"MA200-0420","53329","84","1","1.10","1.6","2023-08-25T15:20:00","120","2023/08/25","15:20:00","-15.787138164043427","35.035293493419886","0.1","13","300","64","40","-416","23591","-975","3","150","149.44","117.97","31.47","31.75","30.4","12.23","0","0.00","DUALSPOT-UV-BLUE-GREEN-RED-IR","666142","663309","907348","14.136559","4.262769","0.019437","770549","857174","835181","10.451362","3.048515","0.021397","770204","844715","832918","9.042610","2.592796","0.022240","799581","852432","886610","7.286765","2.031374","0.020571","724140","858977","965682","4.571224","1.206065","0.009940","4220","5337","5819","4048","4874","5214","3969","4681","4968","3937","4438","4632","3553","3677","3722","DualSpot on"
"MA200-0420","53330","84","1","1.10","1.6","2023-08-25T15:25:00","120","2023/08/25","15:25:00","-15.787111937999725","35.03528165817261","0.0","14","300","64","39","-324","23556","-848","3","150","149.69","117.69","32.00","31.65","30.2","12.03","0","0.00","DUALSPOT-UV-BLUE-GREEN-RED-IR","663178","663745","910426","14.923923","4.533703","0.018506","768273","858112","837779","11.054500","3.247786","0.021128","768288","845612","835229","9.572536","2.764875","0.022422","798740","854107","889569","7.721777","2.168880","0.023886","724252","860776","968515","4.846588","1.289191","0.026963","3929","4973","5428","3799","4616","4956","3738","4464","4759","3708","4311","4546","3268","3629","3759","DualSpot on"
"MA200-0420","53331","84","1","1.10","1.6","2023-08-25T15:30:00","120","2023/08/25","15:30:00","-15.787109613418579","35.035315323621035","0.0","14","300","64","38","-458","23537","-779","3","150","149.35","117.31","32.04","31.54","30.2","11.93","89124","30.75","DUALSPOT-UV-BLUE-GREEN-RED-IR","644423","655509","906864","17.356506","5.378303","0.016262","754881","851228","834698","12.427488","3.677511","0.013827","757923","840935","833466","10.705976","3.105026","0.011423","789216","849428","886983","8.619766","2.421218","0.004494","718790","858003","966835","5.424127","1.436506","-0.018176","12179","15484","16968","8676","9943","10476","8021","8814","9139","7679","7902","7989","6877","6423","6260","DualSpot on"
"MA200-0420","53332","84","1","1.10","1.6","2023-08-25T15:35:00","120","2023/08/25","15:35:00","-15.787158846855164","35.03530249372125","0.1","15","300","64","37","-391","23595","-808","3","150","149.76","117.69","32.06","31.46","30.1","11.83","89128","30.56","DUALSPOT-UV-BLUE-GREEN-RED-IR","610255","643241","907351","22.814186","7.301834","0.013222","733678","844792","836129","15.419149","4.602116","0.010430","738856","834230","832887","13.159070","3.823900","0.007325","773550","844485","886524","10.550653","2.947018","-0.000059","705586","850231","960917","6.650552","1.729605","-0.029911","27237","35236","39002","18844","21377","22455","17304","18614","19150","16459","16452","16449","14557","12769","12141","DualSpot on"
"MA200-0420","53333","84","1","1.10","1.6","2023-08-25T15:40:00","120","2023/08/25","15:40:00","-15.787136018276215","35.035316325724125","0.0","15","300","64","37","-400","23545","-783","3","150","149.87","117.12","32.76","31.36","30.3","11.87","0","0.00","DUALSPOT-UV-BLUE-GREEN-RED-IR","596778","638771","909043","25.303886","8.210582","0.012291","723717","842189","837855","17.029456","5.128688","0.011439","730766","832748","834881","14.522781","4.249628","0.009707","767974","844844","889723","11.655810","3.272268","0.005801","702449","850926","963509","7.378153","1.918893","-0.014144","12486","16293","18122","10193","11916","12659","9667","10789","11253","9467","9961","10154","8678","8072","7858","DualSpot on"
"MA200-0420","53334","84","1","1.10","1.6","2023-08-25T15:45:00","120","2023/08/25","15:45:00","-15.787148296833038","35.03527882322669","0.1","15","300","64","36","-370","23583","-887","3","150","150.28","117.85","32.43","31.35","30.7","12.02","0","0.00","DUALSPOT-UV-BLUE-GREEN-RED-IR","588572","635904","910100","26.825120","8.788826","0.013495","716861","840118","838884","18.114126","5.498630","0.014130","719961","825577","830204","15.470300","4.557480","0.013189","762858","843756","890694","12.441998","3.511691","0.010411","699322","850468","964344","7.918438","2.063096","-0.005336","7581","10474","11883","6823","8457","9170","6675","7882","8386","6692","7407","7688","6404","6212","6144","DualSpot on"
"MA200-0420","53335","84","1","1.10","1.6","2023-08-25T15:50:00","120","2023/08/25","15:50:00","-15.787109613418579","35.03533449396491","0.1","14","300","64","36","-364","23508","-828","3","150","149.52","117.50","32.02","31.34","30.5","11.93","89140","30.63","DUALSPOT-UV-BLUE-GREEN-RED-IR","582381","632259","907847","27.623196","9.105019","0.014613","709675","835235","835985","18.774788","5.735809","0.016704","719358","828124","834481","16.060127","4.760475","0.016936","757177","840311","888480","12.940655","3.672988","0.015993","696161","848711","963307","8.263397","2.162011","0.007987","3989","5799","6689","4168","5490","6072","4167","5263","5724","4257","5053","5368","4101","4315","4390","DualSpot on"
"MA200-0420","53336","84","1","1.10","1.6","2023-08-25T15:55:00","120","2023/08/25","15:55:00","-15.787113785743713","35.035354156047106","0.0","15","300","64","36","-391","23566","-716","3","150","149.55","117.98","31.57","31.29","30.6","11.96","89144","30.56","DUALSPOT-UV-BLUE-GREEN-RED-IR","576237","629147","906694","28.565842","9.479038","0.014683","704323","832730","835605","19.486826","5.989139","0.016544","714068","825428","833527","16.686663","4.974115","0.016837","752359","837904","887446","13.462534","3.840844","0.016365","697440","852413","968556","8.622711","2.265399","0.010742","4692","6958","8083","4474","5948","6602","4409","5618","6131","4437","5334","5692","4254","4574","4688","DualSpot on"
"MA200-0420","53337","84","1","1.10","1.6","2023-08-25T16:00:00","120","2023/08/25","16:00:00","-15.787116706371307","35.03530432283878","0.0","15","300","64","35","-450","23583","-837","3","150","150.15","118.25","31.90","31.23","30.5","11.85","89144","30.44","DUALSPOT-UV-BLUE-GREEN-RED-IR","571540","627749","908318","29.560772","9.879444","0.014371","699710","831329","836501","20.249046","6.264748","0.016301","709908","824243","834282","17.359960","5.207564","0.016674","749355","837770","888909","14.026693","4.025411","0.016377","691011","846906","963376","9.014606","2.379981","0.011332","4942","7372","8592","4778","6404","7133","4727","6075","6653","4786","5804","6214","4629","5017","5156","DualSpot on"
"MA200-0420","53338","84","1","1.10","1.6","2023-08-25T16:05:00","120","2023/08/25","16:05:00","-15.787130653858185","35.035311326384544","0.0","14","300","64","35","-350","23479","-825","3","150","149.56","117.69","31.87","31.12","30.4","11.70","89136","30.31","DUALSPOT-UV-BLUE-GREEN-RED-IR","562254","622196","904978","30.826282","10.398884","0.014200","695951","831762","839770","21.174756","6.602370","0.015829","703097","820698","833081","18.177756","5.494204","0.016326","742942","834420","887398","14.715387","4.251738","0.015702","687128","845054","962635","9.497375","2.523183","0.012116","6315","9573","11232","5830","7853","8770","5768","7467","8203","5870","7125","7635","5730","6277","6475","DualSpot on"
"MA200-0420","53339","84","1","1.10","1.6","2023-08-25T16:10:00","120","2023/08/25","16:10:00","-15.787107706069946","35.03531898930669","0.1","14","300","72","35","-412","23568","-916","3","150","149.35","117.35","32.00","30.86","30.0","11.30","89136","29.94","DUALSPOT-UV-BLUE-GREEN-RED-IR","558281","620611","905520","31.604198","10.717232","0.013640","692406","830695","840657","21.799520","6.840341","0.016809","652667","764521","777627","18.732496","5.697875","0.017744","739252","832838","887105","15.182165","4.410310","0.016950","685828","845208","963747","9.806236","2.619328","0.016511","3893","5843","6843","3946","5513","6229","3924","5284","5878","3990","4971","5373","3676","4197","4387","DualSpot on"
"MA200-0420","53340","84","1","1.10","1.6","2023-08-25T16:15:00","120","2023/08/25","16:15:00","-15.787105143070221","35.03529566153884","0.0","14","300","64","34","-395","23579","-862","3","150","149.50","117.30","32.20","30.53","30.3","11.15","0","0.00","DUALSPOT-UV-BLUE-GREEN-RED-IR","556873","621504","909353","32.276058","10.993118","0.013298","686804","826913","838639","22.368334","7.054542","0.015733","694165","815735","831273","19.243188","5.883327","0.016494","740170","836201","891993","15.608088","4.556189","0.016602","683532","843945","963129","10.078720","2.707991","0.020059","3364","5032","5894","3594","4931","5547","3614","4781","5295","3643","4545","4917","3245","3846","4067","DualSpot on"
"MA200-0420","53341","84","1","1.10","1.6","2023-08-25T16:20:00","120","2023/08/25","16:20:00","-15.787131011486053","35.035281989723444","0.1","14","300","64","34","-404","23545","-916","3","150","149.89","117.46","32.43","30.31","30.7","11.13","0","0.00","DUALSPOT-UV-BLUE-GREEN-RED-IR","548498","615370","903769","33.178192","11.370461","0.013240","683942","826982","840868","23.045094","7.309094","0.015042","691098","815273","832603","19.842094","6.101926","0.015994","732129","829881","886748","16.111738","4.728070","0.015541","683064","845330","965759","10.415623","2.814682","0.016092","4511","6834","8045","4271","5818","6537","4233","5596","6201","4302","5317","5739","4006","4595","4813","DualSpot on"
"MA200-0420","53342","84","1","1.10","1.6","2023-08-25T16:25:00","120","2023/08/25","16:25:00","-15.787165462970734","35.035271659493446","0.0","14","300","64","33","-380","23592","-928","3","150","150.21","117.46","32.74","30.18","30.8","11.07","89136","29.31","DUALSPOT-UV-BLUE-GREEN-RED-IR","546233","615149","905910","33.826228","11.640347","0.012700","675902","819968","835460","23.588942","7.519893","0.015445","689232","815524","834369","20.329622","6.284104","0.016239","731134","830946","889180","16.520292","4.872130","0.016531","679319","842238","963061","10.688187","2.902673","0.016684","3240","4841","5680","3432","4772","5399","3445","4619","5143","3489","4413","4800","3241","3753","3944","DualSpot on"
"MA200-0420","53343","84","1","1.10","1.6","2023-08-25T16:30:00","120","2023/08/25","16:30:00","-15.787139296531677","35.03530599176884","0.0","14","300","64","33","-375","23620","-966","3","150","149.32","116.94","32.37","30.06","30.9","11.01","89140","29.19","DUALSPOT-UV-BLUE-GREEN-RED-IR","544145","616080","910602","34.730068","12.012421","0.012289","674380","821959","839895","24.339526","7.803012","0.014295","683128","811813","832622","21.011134","6.530866","0.014698","724846","826979","886703","17.106476","5.072734","0.014694","679293","844619","967077","11.106823","3.034668","0.014449","4539","6750","7919","4758","6483","7297","4838","6328","7000","5029","6216","6717","5000","5695","5956","DualSpot on"
"MA200-0420","53344","84","1","1.10","1.6","2023-08-25T16:35:00","120","2023/08/25","16:35:00","-15.787141561508179","35.03531099110842","0.3","14","300","64","33","-344","23592","-896","3","150","149.59","117.46","32.12","29.91","30.8","10.86","89140","29.00","DUALSPOT-UV-BLUE-GREEN-RED-IR","536382","610266","905192","35.561344","12.358437","0.012500","666733","815966","835847","24.993874","8.048050","0.014111","680228","811453","834008","21.596564","6.741722","0.014611","722332","826864","888080","17.605254","5.240974","0.014172","674271","840400","963246","11.452385","3.139600","0.011530","4156","6327","7483","4129","5655","6379","4137","5449","6045","4260","5254","5676","4109","4563","4734","DualSpot on"
"MA200-0420","53345","84","1","1.10","1.6","2023-08-25T16:40:00","120","2023/08/25","16:40:00","-15.787213206291199","35.03526582196355","0.0","14","300","64","33","-416","23641","-891","3","150","149.35","117.39","31.96","29.73","30.6","10.62","89128","28.81","DUALSPOT-UV-BLUE-GREEN-RED-IR","531244","607529","904670","36.475460","12.754215","0.013043","662075","813615","835557","25.668448","8.307742","0.014791","672333","804998","829232","22.196014","6.963596","0.015485","720157","827067","889879","18.113110","5.416229","0.015247","672961","840809","964802","11.807606","3.252074","0.015547","4573","7273","8724","4260","6023","6867","4239","5763","6459","4340","5501","5996","4227","4915","5177","DualSpot on"
"MA200-0420","53346","84","1","1.10","1.6","2023-08-25T16:45:00","120","2023/08/25","16:45:00","-15.78711885213852","35.03528616204858","0.0","14","300","64","32","-329","23608","-962","3","150","150.21","117.06","33.15","29.53","30.4","10.34","89120","28.56","DUALSPOT-UV-BLUE-GREEN-RED-IR","525837","604803","904557","37.479700","13.185303","0.011823","657092","811404","835828","26.451584","8.610832","0.013313","671860","808079","834588","22.903036","7.224982","0.013472","715624","825167","889669","18.722162","5.628752","0.013312","670806","840607","965946","12.244904","3.391763","0.012282","5038","7637","9048","4959","6777","7655","5014","6546","7251","5219","6431","6952","5218","5886","6142","DualSpot on"
"MA200-0420","53347","84","1","1.10","1.6","2023-08-25T16:50:00","120","2023/08/25","16:50:00","-15.787107706069946","35.035284496843815","0.2","14","300","64","32","-440","23576","-896","3","150","149.91","117.41","32.50","29.31","30.4","10.14","0","0.00","DUALSPOT-UV-BLUE-GREEN-RED-IR","523473","605420","909188","38.440540","13.597870","0.011977","656092","813871","840696","27.185062","8.889464","0.013107","666224","804643","833021","23.562216","7.466774","0.013691","710032","821790","887793","19.289270","5.820719","0.012551","667349","838609","964828","12.645355","3.516561","0.011751","4806","7457","8907","4631","6356","7194","4661","6177","6880","4845","5926","6393","4764","5364","5596","DualSpot on"
"MA200-0420","53348","84","1","1.10","1.6","2023-08-25T16:55:00","120","2023/08/25","16:55:00","-15.787139654159546","35.035300992429256","0.0","14","300","64","32","-416","23666","-1087","3","150","149.60","117.36","32.24","29.08","30.5","10.00","0","0.00","DUALSPOT-UV-BLUE-GREEN-RED-IR","519026","603436","909861","39.363048","13.994713","0.011880","652012","812346","841445","27.899658","9.167268","0.013698","662063","802855","833159","24.203582","7.705985","0.014223","706131","820220","887781","19.839324","6.013600","0.014322","665844","838944","966426","13.036850","3.642504","0.014724","4616","7230","8672","4513","6388","7305","4537","6160","6918","4702","6002","6568","4659","5457","5766","DualSpot on"
"MA200-0420","53349","84","1","1.10","1.6","2023-08-25T17:00:00","120","2023/08/25","17:00:00","-15.7871333360672","35.035309325903654","0.0","14","300","64","31","-396","23556","-884","3","150","150.15","117.14","33.01","28.89","30.5","9.82","0","0.00","DUALSPOT-UV-BLUE-GREEN-RED-IR","514266","601164","910157","40.314472","14.403648","0.011157","642223","803699","834869","28.628766","9.451863","0.012755","658180","801396","833710","24.852184","7.948957","0.013131","702925","819404","888588","20.387338","6.205146","0.012599","664287","839112","967820","13.411781","3.761619","0.011223","4770","7277","8670","4614","6391","7268","4596","6111","6823","4693","5822","6315","4471","5041","5263","DualSpot on"
"MA200-0420","53350","84","1","1.10","1.6","2023-08-25T17:05:00","120","2023/08/25","17:05:00","-15.787132620811462","35.035296496003866","0.1","14","300","64","31","-344","23608","-1068","3","150","149.95","117.57","32.38","28.71","30.5","9.65","0","0.00","DUALSPOT-UV-BLUE-GREEN-RED-IR","506520","595671","905922","41.376496","14.859509","0.011257","639143","803881","837691","29.445840","9.767850","0.012802","651563","796966","831365","25.588224","8.222422","0.013277","696196","814877","885648","21.017668","6.423214","0.012827","660273","836609","966250","13.860558","3.902599","0.011821","5305","8269","9930","5151","7235","8269","5197","7012","7871","5378","6757","7364","5332","6082","6376","DualSpot on"
"MA200-0420","53351","84","1","1.10","1.6","2023-08-25T17:10:00","120","2023/08/25","17:10:00","-15.787120819091797","35.035311825573444","0.0","14","300","64","31","-348","23540","-951","3","150","149.69","116.88","32.82","28.41","30.5","9.40","0","0.00","DUALSPOT-UV-BLUE-GREEN-RED-IR","501472","592699","905002","42.279772","15.258793","0.011194","634494","801470","837570","30.165796","10.054549","0.012778","646955","794550","830904","26.241060","8.471790","0.013235","697559","819493","892397","21.583584","6.625061","0.012997","658056","836054","966888","14.262016","4.033098","0.012634","4539","7146","8618","4566","6476","7430","4637","6308","7105","4857","6170","6751","4798","5554","5853","DualSpot on"
"MA200-0420","53352","84","1","1.10","1.6","2023-08-25T17:15:00","120","2023/08/25","17:15:00","-15.787095129489899","35.035286493599415","0.0","14","300","64","30","-364","23582","-908","3","150","149.52","117.20","32.32","28.14","30.7","9.25","0","0.00","DUALSPOT-UV-BLUE-GREEN-RED-IR","500133","593662","909630","43.050036","15.604542","0.011522","628403","796920","835136","30.835806","10.329793","0.013749","645824","796075","834533","26.851518","8.713396","0.014588","692276","815981","890364","22.112262","6.821918","0.015200","655368","834674","966503","14.629112","4.157828","0.016729","3860","6282","7659","4238","6312","7357","4324","6205","7109","4525","6110","6816","4375","5390","5793","DualSpot on"
"MA200-0420","53353","84","1","1.10","1.6","2023-08-25T17:20:00","120","2023/08/25","17:20:00","-15.787096619606018","35.03529382497072","0.1","14","300","64","30","-431","23568","-996","3","150","150.28","117.14","33.14","27.86","30.9","9.13","89136","26.69","DUALSPOT-UV-BLUE-GREEN-RED-IR","493668","589287","906731","44.035148","16.026978","0.010170","626186","798313","839486","31.704374","10.672759","0.011787","639989","792820","833636","27.647978","9.016070","0.012209","686634","812934","889227","22.804502","7.068701","0.012008","652493","833720","966949","15.117546","4.318585","0.012318","4939","7487","8945","5496","7672","8776","5644","7583","8521","5928","7471","8164","5824","6776","7157","DualSpot on"
"MA200-0420","53354","84","1","1.10","1.6","2023-08-25T17:25:00","120","2023/08/25","17:25:00","-15.787151515483856","35.035287491977215","0.1","14","300","64","30","-383","23608","-1016","3","150","149.63","117.10","32.53","27.55","31.3","9.03","89128","26.31","DUALSPOT-UV-BLUE-GREEN-RED-IR","490268","587844","907743","44.840604","16.387360","0.010939","617930","790890","833990","32.382072","10.952942","0.013114","636657","791573","834354","28.258760","9.260742","0.014041","683540","811859","889781","23.321360","7.262320","0.014414","647671","829416","963127","15.469254","4.440921","0.016897","4040","6507","7929","4290","6386","7457","4330","6245","7178","4428","5972","6670","4195","5254","5680","DualSpot on"
"MA200-0420","53355","84","1","1.10","1.6","2023-08-25T17:30:00","120","2023/08/25","17:30:00","-15.78716492652893","35.03526982292533","0.2","14","300","64","30","-388","23572","-1000","3","150","150.33","116.94","33.40","27.25","31.8","9.00","89136","26.00","DUALSPOT-UV-BLUE-GREEN-RED-IR","486577","585667","907338","45.550444","16.712143","0.010700","619356","795462","840928","32.978390","11.205515","0.012811","632786","789242","833716","28.797152","9.480740","0.013578","680202","810216","889528","23.779868","7.438202","0.014003","646034","828991","963702","15.781235","4.552576","0.016625","3565","5711","6955","3780","5606","6546","3822","5468","6276","3933","5283","5897","3727","4670","5052","DualSpot on"
"MA200-0420","53356","84","1","1.10","1.6","2023-08-25T17:35:00","120","2023/08/25","17:35:00","-15.787080109119415","35.03528232127428","0.2","15","300","64","29","-450","23662","-975","3","150","149.69","117.22","32.47","26.95","32.2","8.94","0","0.00","DUALSPOT-UV-BLUE-GREEN-RED-IR","483543","584472","908723","46.327412","17.063172","0.010786","611007","787691","834925","33.620100","11.471199","0.012754","626719","784387","830532","29.376736","9.714057","0.013743","673154","804238","884600","24.271054","7.622506","0.014038","642146","825797","961127","16.114044","4.668926","0.016723","3893","6349","7781","4058","6065","7104","4105","5965","6884","4204","5694","6376","3966","5005","5429","DualSpot on"
"MA200-0420","53357","84","1","1.10","1.6","2023-08-25T17:40:00","120","2023/08/25","17:40:00","-15.787131309509277","35.035254158079624","0.0","15","300","64","29","-440","23656","-916","3","150","150.09","117.15","32.94","26.66","32.6","8.86","0","0.00","DUALSPOT-UV-BLUE-GREEN-RED-IR","477948","580115","905133","47.095980","17.420204","0.010798","609962","789224","838853","34.254656","11.745028","0.013096","625589","785598","833797","29.947728","9.950094","0.013796","673654","807237","889570","24.756592","7.811394","0.014505","639399","823973","960102","16.442028","4.787953","0.017685","3853","6366","7841","4015","6162","7282","4046","5949","6895","4158","5753","6488","3911","5047","5514","DualSpot on"
"MA200-0420","53358","84","1","1.10","1.6","2023-08-25T17:45:00","120","2023/08/25","17:45:00","-15.787210702896118","35.03527199104428","0.1","14","300","64","29","-380","23668","-1096","3","150","150.28","117.06","33.22","26.37","32.9","8.78","89148","25.06","DUALSPOT-UV-BLUE-GREEN-RED-IR","474583","578629","906224","47.919800","17.796132","0.010262","606403","787790","839789","34.952104","12.039620","0.012218","618722","779921","829926","30.581408","10.210092","0.013113","670507","806183","890274","25.300858","8.019267","0.013290","638421","824733","962295","16.820786","4.923436","0.016008","4133","6647","8132","4416","6574","7708","4494","6498","7503","4664","6278","7027","4519","5697","6185","DualSpot on"
"MA200-0420","53359","84","1","1.10","1.6","2023-08-25T17:50:00","120","2023/08/25","17:50:00","-15.787203192710876","35.035214491188526","0.0","14","300","64","28","-400","23560","-988","3","150","149.87","117.45","32.43","26.11","33.5","8.80","89140","24.81","DUALSPOT-UV-BLUE-GREEN-RED-IR","470386","576090","905775","48.764160","18.187358","0.010655","601862","785133","839543","35.677148","12.347154","0.012629","618217","782324","834736","31.243062","10.480637","0.013438","666830","804610","890495","25.875478","8.241594","0.014323","636433","824338","963203","17.225902","5.065397","0.016024","4222","7086","8789","4576","7030","8329","4677","6926","8062","4908","6878","7799","4818","6115","6655","DualSpot on"
"MA200-0420","53360","84","1","1.10","1.6","2023-08-25T17:55:00","120","2023/08/25","17:55:00","-15.787149131298065","35.03525532409549","0.0","14","300","64","28","-396","23664","-1016","3","150","150.02","117.12","32.90","25.95","34.0","8.86","0","0.00","DUALSPOT-UV-BLUE-GREEN-RED-IR","465491","572964","904846","49.700936","18.630130","0.010503","596658","781750","838751","36.445288","12.683474","0.012663","614206","780401","835118","31.938302","10.773202","0.013437","663212","803125","890997","26.472116","8.479570","0.014429","634874","824536","964946","17.646996","5.218468","0.016696","4697","7905","9828","4861","7578","9028","4928","7383","8633","5110","7257","8269","5022","6499","7120","DualSpot on"
"MA200-0420","53361","84","1","1.10","1.6","2023-08-25T18:00:00","120","2023/08/25","18:00:00","-15.787105739116669","35.0352528244257","0.1","14","300","64","28","-412","23580","-940","3","150","149.74","117.03","32.70","25.67","34.3","8.77","0","0.00","DUALSPOT-UV-BLUE-GREEN-RED-IR","460825","570210","904824","50.707552","19.108304","0.010432","591920","779174","838965","37.268248","13.038629","0.012228","606007","773295","830106","32.683734","11.084041","0.013060","659217","801439","891304","27.113008","8.727964","0.013400","632928","824417","966347","18.101716","5.380201","0.015446","5051","8587","10725","5212","8050","9577","5288","7890","9226","5494","7619","8629","5427","6908","7534","DualSpot on"
"MA200-0420","53362","84","1","1.10","1.6","2023-08-25T18:05:00","120","2023/08/25","18:05:00","-15.78710263967514","35.035256158560514","0.0","12","300","68","28","-380","23596","-1196","4","150","150.01","116.54","33.47","25.51","34.8","8.84","89156","24.31","DUALSPOT-UV-BLUE-GREEN-RED-IR","759928","686557","904600","0.000000","0.000000","0.000000","849391","876637","835277","0.000000","0.000000","0.000000","838026","860815","834058","0.000000","0.000000","0.000000","855040","864347","887760","0.000000","0.000000","0.000000","755169","863109","965207","0.000000","0.000000","0.000000","","","","","","","","","","","","","","","","Tape advance-DualSpot on"
"MA200-0420","53363","84","1","1.10","1.6","2023-08-25T18:10:00","120","2023/08/25","18:10:00","-15.787154853343964","35.03529532626271","0.0","14","300","68","27","-425","23608","-1237","4","150","149.95","116.31","33.64","25.34","35.2","8.87","89152","24.13","DUALSPOT-UV-BLUE-GREEN-RED-IR","749913","685023","906998","0.000000","0.000000","0.000000","844067","877577","838790","0.000000","0.000000","0.000000","832581","860490","835887","0.000000","0.000000","0.000000","851837","865235","890460","0.000000","0.000000","0.000000","755085","865402","968959","0.000000","0.000000","0.000000","","","","","","","","","","","","","","","","Tape advance-DualSpot on"
"MA200-0420","53364","84","1","1.10","1.6","2023-08-25T18:15:00","120","2023/08/25","18:15:00","-15.7871333360672","35.03526199236512","0.0","14","300","64","27","-444","23560","-967","4","150","150.02","116.90","33.11","25.21","35.6","8.90","0","0.00","DUALSPOT-UV-BLUE-GREEN-RED-IR","741754","684334","910298","1.454668","0.460830","0.000000","838850","878087","841773","0.976132","0.298821","0.000000","833515","866396","843725","0.819640","0.248122","0.000000","843379","860506","887278","0.638408","0.190079","0.000000","749972","861820","966005","0.374950","0.111359","0.000000","7308","8174","7308","6190","6689","6190","5820","6220","5820","5478","5759","5478","4480","4697","4480","DualSpot on"
"MA200-0420","53365","84","1","1.10","1.6","2023-08-25T18:20:00","120","2023/08/25","18:20:00","-15.7871955037117","35.03526299446821","0.2","13","300","64","27","-354","23645","-1291","4","150","149.47","116.12","33.35","25.09","35.9","8.92","0","0.00","DUALSPOT-UV-BLUE-GREEN-RED-IR","728245","678416","906612","2.895053","0.931600","0.000000","827214","871875","838466","1.980666","0.613838","0.000000","813623","850702","830676","1.674221","0.514656","0.000000","841282","862421","891021","1.314443","0.393833","0.000000","744997","858562","963521","0.783218","0.234896","0.000000","7285","8292","7285","6412","7003","6412","6109","6635","6109","5840","6130","5840","4911","5175","4911","DualSpot on"
"MA200-0420","53366","84","1","1.10","1.6","2023-08-25T18:25:00","120","2023/08/25","18:25:00","-15.787128329277039","35.03525833040476","0.1","13","300","64","26","-400","23603","-1184","4","150","149.38","116.03","33.34","25.01","36.2","8.96","0","0.00","DUALSPOT-UV-BLUE-GREEN-RED-IR","716056","673177","903714","4.265249","1.387468","0.044446","816631","866332","835666","2.936514","0.919616","0.000000","810553","852230","834292","2.489033","0.772321","0.000000","833527","858307","888540","1.959382","0.593079","0.000000","745491","861501","967974","1.179582","0.354835","0.000000","6935","8030","8558","6106","6798","6106","5830","6415","5830","5576","5995","5576","4771","5025","4771","DualSpot on"
"MA200-0420","53367","84","1","1.10","1.6","2023-08-25T18:30:00","120","2023/08/25","18:30:00","-15.787152469158173","35.03526199236512","0.1","13","300","64","26","-435","23624","-948","4","150","150.00","116.35","33.65","24.92","36.4","8.97","0","0.00","DUALSPOT-UV-BLUE-GREEN-RED-IR","710151","673302","907843","5.548023","1.819995","0.035661","813287","868018","839673","3.828386","1.206070","0.036263","802389","848015","832190","3.248573","1.013153","0.037766","832728","861055","893050","2.561749","0.779308","0.000000","741035","858561","965748","1.546625","0.465398","0.000000","6475","7548","8072","5682","6310","6598","5419","5941","6177","5194","5551","5194","4406","4589","4406","DualSpot on"
"MA200-0420","53368","84","1","1.10","1.6","2023-08-25T18:35:00","120","2023/08/25","18:35:00","-15.787146508693695","35.03528416156769","0.1","13","300","64","26","-420","23662","-929","4","150","150.21","116.31","33.90","24.87","36.7","9.04","89160","23.69","DUALSPOT-UV-BLUE-GREEN-RED-IR","701448","670528","907977","6.795042","2.251274","0.032101","806095","865624","839853","4.735896","1.502049","0.031325","796117","845901","832186","4.032513","1.263940","0.030850","827509","859360","893062","3.191779","0.975014","0.027084","738276","857705","965980","1.944757","0.586379","0.000000","6297","7472","8054","5784","6472","6791","5595","6141","6390","5434","5791","5948","4781","4985","4781","DualSpot on"
"MA200-0420","53369","84","1","1.10","1.6","2023-08-25T18:40:00","120","2023/08/25","18:40:00","-15.787113964557648","35.03529832884669","0.1","13","300","64","25","-395","23591","-970","4","150","149.47","116.29","33.18","24.83","36.8","9.07","89156","23.69","DUALSPOT-UV-BLUE-GREEN-RED-IR","691314","666346","906463","8.080456","2.705204","0.032572","797234","861453","838443","5.672963","1.816338","0.036160","788550","842427","831002","4.841174","1.529747","0.037551","820376","855774","891172","3.844888","1.183652","0.038312","734117","855311","964531","2.359958","0.718638","0.000000","6492","8035","8811","5973","7021","7515","5773","6650","7056","5634","6308","6608","4987","5568","4987","DualSpot on"
"MA200-0420","53370","84","1","1.10","1.6","2023-08-25T18:45:00","120","2023/08/25","18:45:00","-15.787145793437958","35.03527765721083","0.0","12","300","64","25","-412","23695","-1066","4","150","149.32","115.92","33.40","24.76","36.9","9.04","89156","23.63","DUALSPOT-UV-BLUE-GREEN-RED-IR","686094","666691","911078","9.351700","3.161985","0.029061","788361","856855","836454","6.552910","2.115267","0.031899","780980","838500","829173","5.593381","1.780921","0.033791","813281","851806","888767","4.445417","1.379182","0.035668","730140","852886","962926","2.736814","0.835807","0.000000","6441","8032","8845","5627","6634","7114","5387","6243","6643","5197","5873","6177","4541","4900","4541","DualSpot on"
"MA200-0420","53371","84","1","1.10","1.6","2023-08-25T18:50:00","120","2023/08/25","18:50:00","-15.787121534347534","35.03532949462533","0.1","12","300","64","24","-412","23640","-888","4","150","149.74","116.37","33.37","24.72","37.0","9.04","89164","23.56","DUALSPOT-UV-BLUE-GREEN-RED-IR","676216","662137","908880","10.559719","3.608427","0.028885","785152","858067","840111","7.399849","2.409207","0.032137","779250","840695","833427","6.319212","2.026295","0.033005","807523","849086","887645","5.029458","1.569835","0.033322","727012","851401","962349","3.104091","0.949529","0.033253","6097","7858","8773","5395","6530","7078","5178","6105","6542","5035","5732","6049","4408","4761","4916","DualSpot on"
"MA200-0420","53372","84","1","1.10","1.6","2023-08-25T18:55:00","120","2023/08/25","18:55:00","-15.787218511104584","35.03532115742564","0.4","12","300","64","24","-468","23584","-904","4","150","150.02","116.07","33.96","24.65","37.1","9.05","89168","23.50","DUALSPOT-UV-BLUE-GREEN-RED-IR","666989","658176","907680","11.802780","4.074047","0.025401","777867","854985","839666","8.277808","2.713519","0.026049","772640","837794","832657","7.078091","2.280640","0.024988","801326","846076","886250","5.643717","1.767458","0.022465","723500","849577","961456","3.494939","1.068886","0.017001","6290","8054","8983","5607","6643","7149","5428","6218","6594","5309","5839","6080","4704","4910","5001","DualSpot on"
"MA200-0420","53373","84","1","1.10","1.6","2023-08-25T19:00:00","120","2023/08/25","19:00:00","-15.787144362926483","35.035269156098366","0.2","12","300","64","24","-462","23645","-912","4","150","149.59","115.88","33.71","24.62","37.4","9.12","89164","23.44","DUALSPOT-UV-BLUE-GREEN-RED-IR","657603","653945","906147","13.046474","4.551826","0.025290","769666","850997","838429","9.187366","3.034055","0.026119","765351","834194","831304","7.870086","2.552783","0.026875","800528","848946","891167","6.291237","1.981286","0.026200","724023","852625","966206","3.915281","1.203784","0.033131","6304","8325","9408","5818","7049","7656","5674","6702","7196","5606","6364","6712","5067","5590","5822","DualSpot on"
"MA200-0420","53374","84","1","1.10","1.6","2023-08-25T19:05:00","120","2023/08/25","19:05:00","-15.787149429321289","35.03527599200606","0.0","12","300","64","24","-368","23624","-924","4","150","150.08","115.73","34.36","24.58","37.7","9.18","89168","23.44","DUALSPOT-UV-BLUE-GREEN-RED-IR","647135","648861","903771","14.385693","5.068027","0.021920","758983","844444","834873","10.158578","3.379673","0.022581","758200","830995","830577","8.718951","2.846115","0.022450","794387","846373","890514","6.990999","2.211501","0.019534","720272","850918","965632","4.375602","1.347157","0.015138","6797","8824","9927","6221","7457","8073","6089","7088","7571","6066","6722","7025","5556","5829","5950","DualSpot on"
"MA200-0420","53375","84","1","1.10","1.6","2023-08-25T19:10:00","120","2023/08/25","19:10:00","-15.787157952785492","35.035273157060146","0.0","12","300","64","23","-404","23592","-1004","4","150","150.02","115.88","34.14","24.53","37.9","9.24","0","0.00","DUALSPOT-UV-BLUE-GREEN-RED-IR","642039","649309","909533","15.806522","5.630279","0.021995","755549","846592","840385","11.262113","3.781932","0.023367","754299","832029","834501","9.695553","3.192448","0.024022","785810","841810","888191","7.806165","2.490113","0.024379","714909","847741","963772","4.925520","1.525217","0.025461","7201","9673","11040","7059","8734","9581","6997","8422","9121","7057","8187","8716","6629","7285","7580","DualSpot on"
"MA200-0420","53376","84","1","1.10","1.6","2023-08-25T19:15:00","120","2023/08/25","19:15:00","-15.787164628505707","35.03527232259512","0.0","12","300","64","23","-420","23564","-967","4","150","149.77","115.99","33.78","24.48","38.2","9.29","0","0.00","DUALSPOT-UV-BLUE-GREEN-RED-IR","630740","643881","907633","17.381840","6.263015","0.021408","744589","840696","838331","12.486394","4.238218","0.023821","744730","827141","832834","10.781734","3.586759","0.025015","777000","837271","886208","8.717484","2.807764","0.025808","709636","844966","962536","5.544576","1.728565","0.028255","7977","11001","12704","7824","10013","11137","7774","9690","10645","7882","9433","10170","7455","8408","8840","DualSpot on"
"MA200-0420","53377","84","1","1.10","1.6","2023-08-25T19:20:00","120","2023/08/25","19:20:00","-15.787149846553802","35.03526682406664","0.1","13","300","64","23","-429","23645","-891","4","150","149.52","115.76","33.76","24.42","38.3","9.30","89188","23.25","DUALSPOT-UV-BLUE-GREEN-RED-IR","622237","639952","906700","18.635636","6.774055","0.020634","737718","837795","838349","13.419724","4.587752","0.022473","738270","824209","832395","11.599045","3.883635","0.023245","777483","841492","892718","9.390320","3.039334","0.022402","706059","843210","961933","5.987306","1.872339","0.023685","6361","8891","10335","5976","7675","8557","5861","7300","8025","5831","6881","7384","5342","5949","6225","DualSpot on"
"MA200-0420","53378","84","1","1.10","1.6","2023-08-25T19:25:00","120","2023/08/25","19:25:00","-15.787150204181671","35.035267159342766","0.0","14","300","64","22","-408","23670","-1016","4","150","149.92","115.87","34.05","24.38","38.4","9.30","89192","23.19","DUALSPOT-UV-BLUE-GREEN-RED-IR","616737","638925","910073","19.896126","7.305114","0.020437","728355","831942","835526","14.361123","4.951721","0.022639","733837","823486","834235","12.426156","4.191430","0.023070","767982","834847","887872","10.075676","3.284713","0.024284","704682","844110","964420","6.441637","2.025689","0.027651","6389","9160","10768","6023","7924","8924","5926","7504","8308","5934","7229","7856","5477","6291","6664","DualSpot on"
"MA200-0420","53379","84","1","1.10","1.6","2023-08-25T19:30:00","120","2023/08/25","19:30:00","-15.787128508090973","35.03527832776308","0.1","14","300","64","22","-435","23568","-896","4","150","150.02","115.52","34.50","24.31","38.5","9.28","89196","23.13","DUALSPOT-UV-BLUE-GREEN-RED-IR","608842","634979","908899","21.056088","7.795921","0.018919","726864","834687","841102","15.229673","5.287358","0.020393","728730","821725","834832","13.190619","4.478714","0.021324","763652","833546","888488","10.710555","3.510340","0.020584","702362","843715","965328","6.864143","2.165579","0.019978","5897","8356","9802","5573","7212","8084","5494","6914","7644","5513","6562","7073","5109","5665","5921","DualSpot on"
"MA200-0420","53380","84","1","1.10","1.6","2023-08-25T19:35:00","120","2023/08/25","19:35:00","-15.787159144878387","35.03530032560229","0.1","14","300","64","22","-412","23604","-1004","4","150","150.46","116.14","34.32","24.25","38.5","9.21","89200","23.06","DUALSPOT-UV-BLUE-GREEN-RED-IR","600361","630507","907208","22.273732","8.320553","0.018967","718403","829545","838942","16.140581","5.646859","0.021098","721398","817511","833082","13.994832","4.784085","0.021600","756736","829587","886413","11.382362","3.752473","0.021697","698165","841206","963947","7.318481","2.317400","0.021974","6157","8979","10662","5814","7766","8816","5748","7388","8239","5803","7079","7706","5464","6180","6511","DualSpot on"
"MA200-0420","53381","84","1","1.10","1.6","2023-08-25T19:40:00","120","2023/08/25","19:40:00","-15.787181854248047","35.0352336615324","0.1","14","300","64","22","-424","23640","-1012","4","150","149.94","116.16","33.78","24.17","38.5","9.16","89204","23.00","DUALSPOT-UV-BLUE-GREEN-RED-IR","592362","626126","905484","23.425320","8.823151","0.019020","710616","824868","837112","17.018390","5.993817","0.020963","714647","813787","831748","14.773643","5.081801","0.021941","756284","832557","891679","12.034201","3.987980","0.022117","694132","838815","962592","7.758785","2.465073","0.023660","5822","8739","10501","5601","7614","8708","5566","7317","8235","5629","6994","7671","5294","6107","6485","DualSpot on"
"MA200-0420","53382","84","1","1.10","1.6","2023-08-25T19:45:00","120","2023/08/25","19:45:00","-15.787148296833038","35.03525149449706","0.1","14","300","64","21","-437","23612","-875","4","150","149.62","116.10","33.52","24.13","38.6","9.16","89208","22.94","DUALSPOT-UV-BLUE-GREEN-RED-IR","589170","626548","910426","24.506790","9.300941","0.018801","703486","820659","835608","17.845246","6.325681","0.021108","708052","809873","830147","15.506411","5.365243","0.022047","750085","828931","889771","12.646313","4.212423","0.022786","694561","841618","967164","8.172741","2.604539","0.024075","5471","8372","10146","5279","7339","8470","5240","7020","7962","5289","6717","7430","4980","5812","6201","DualSpot on"
"MA200-0420","53383","84","1","1.10","1.6","2023-08-25T19:50:00","120","2023/08/25","19:50:00","-15.787134170532227","35.03528366237879","0.1","14","300","64","21","-345","23566","-1095","4","150","149.84","115.50","34.34","24.05","38.7","9.11","89212","22.88","DUALSPOT-UV-BLUE-GREEN-RED-IR","582099","622647","909126","25.572090","9.782139","0.017867","701857","822745","840529","18.663688","6.660684","0.019798","706747","811963","834642","16.233507","5.652026","0.020571","744602","826029","888669","13.254972","4.438475","0.020570","691068","839653","966267","8.583424","2.745586","0.021659","5417","8231","9975","5253","7233","8331","5226","6934","7846","5287","6605","7268","4967","5738","6101","DualSpot on"
"MA200-0420","53384","84","1","1.10","1.6","2023-08-25T19:55:00","120","2023/08/25","19:55:00","-15.787177205085754","35.035272657871246","0.0","13","300","64","21","-483","23620","-758","4","150","149.77","115.73","34.05","24.02","38.8","9.14","89212","22.88","DUALSPOT-UV-BLUE-GREEN-RED-IR","574847","618429","907324","26.631832","10.266102","0.017773","695241","818887","839433","19.476956","6.998291","0.020066","700914","808774","833758","16.955058","5.939623","0.020833","738718","822616","887024","13.862083","4.667238","0.021456","687807","837943","965653","8.993320","2.886888","0.022449","5378","8349","10212","5209","7351","8552","5176","7013","8003","5263","6741","7491","4947","5797","6199","DualSpot on"
"MA200-0420","53385","84","1","1.10","1.6","2023-08-25T20:00:00","120","2023/08/25","20:00:00","-15.787172198295593","35.035251326859","0.1","13","300","64","20","-400","23576","-1052","4","150","150.08","115.65","34.43","23.98","39.0","9.15","0","0.00","DUALSPOT-UV-BLUE-GREEN-RED-IR","568058","614473","905757","27.647622","10.734348","0.017095","688946","815234","838390","20.265004","7.324783","0.018756","694818","805109","832310","17.659760","6.220247","0.019397","739019","825970","892643","14.454239","4.890920","0.019983","683984","835518","964204","9.401321","3.027259","0.019849","5158","7987","9782","5051","7029","8148","5058","6766","7694","5136","6517","7223","4928","5694","6058","DualSpot on"
"MA200-0420","53386","84","1","1.10","1.6","2023-08-25T20:05:00","120","2023/08/25","20:05:00","-15.78718113899231","35.035254657268524","0.1","13","300","64","20","-392","23596","-988","4","150","149.94","115.38","34.56","23.92","39.0","9.11","0","0.00","DUALSPOT-UV-BLUE-GREEN-RED-IR","561592","610608","904145","28.616508","11.190804","0.016935","682457","811020","836758","21.018650","7.645764","0.018964","689171","801721","831107","18.329090","6.494580","0.019811","733524","822668","890995","15.017530","5.107784","0.020091","680512","833354","963015","9.787666","3.164069","0.021658","4932","7756","9570","4842","6884","8051","4816","6589","7562","4898","6294","7014","4677","5529","5936","DualSpot on"
"MA200-0420","53387","84","1","1.10","1.6","2023-08-25T20:10:00","120","2023/08/25","20:10:00","-15.787202835083008","35.0352439917624","0.2","13","300","64","20","-387","23625","-1100","4","150","149.82","115.72","34.10","23.90","39.1","9.14","89220","22.75","DUALSPOT-UV-BLUE-GREEN-RED-IR","556154","607850","904270","29.601044","11.655323","0.016817","677322","808492","836892","21.790960","7.974725","0.018933","684638","799707","831326","19.016768","6.774873","0.019617","728787","820264","890342","15.595226","5.328728","0.019970","677596","831887","962672","10.180622","3.301716","0.021434","4997","8000","9950","4947","7150","8422","4933","6823","7869","5008","6499","7274","4743","5638","6067","DualSpot on"
"MA200-0420","53388","84","1","1.10","1.6","2023-08-25T20:15:00","120","2023/08/25","20:15:00","-15.78721934556961","35.035250160843134","0.1","13","300","64","19","-375","23595","-1033","4","150","149.60","115.42","34.18","23.88","39.0","9.07","89220","22.75","DUALSPOT-UV-BLUE-GREEN-RED-IR","555187","609612","910919","30.507652","12.094849","0.016831","671722","804967","835806","22.491936","8.282490","0.019253","679883","796987","830706","19.640266","7.038085","0.020300","725341","818932","890813","16.119419","5.538661","0.021667","675363","831079","962992","10.539562","3.430584","0.022713","4613","7552","9483","4502","6674","7941","4484","6393","7458","4556","6161","7002","4344","5266","5711","DualSpot on"
"MA200-0420","53389","84","1","1.10","1.6","2023-08-25T20:20:00","120","2023/08/25","20:20:00","-15.787144660949707","35.03526082262397","0.1","14","300","64","19","-408","23620","-928","4","150","149.95","115.60","34.35","23.84","39.0","9.03","89216","22.69","DUALSPOT-UV-BLUE-GREEN-RED-IR","549589","606294","909979","31.416782","12.536350","0.016344","666624","802071","835425","23.204834","8.594831","0.018518","674909","794115","829917","20.277232","7.305382","0.019324","720589","816265","889780","16.658159","5.751816","0.020176","672381","829359","962276","10.910564","3.564822","0.022388","4619","7548","9494","4571","6740","8016","4574","6460","7522","4675","6225","7042","4483","5458","5932","DualSpot on"
"MA200-0420","53390","84","1","1.10","1.6","2023-08-25T20:25:00","120","2023/08/25","20:25:00","-15.78717052936554","35.03526549041271","0.0","14","300","64","19","-332","23580","-892","4","150","150.21","115.76","34.45","23.82","39.1","9.06","89220","22.69","DUALSPOT-UV-BLUE-GREEN-RED-IR","544819","603488","909408","32.227844","12.939190","0.016374","667236","805670","841569","23.845068","8.881688","0.018707","675203","797063","835037","20.848704","7.550563","0.019618","715987","813381","888369","17.142260","5.948018","0.020793","673821","832905","967559","11.246243","3.688229","0.023049","4115","6867","8713","4100","6172","7401","4098","5908","6935","4195","5713","6519","4050","5003","5468","DualSpot on"
"MA200-0420","53391","84","1","1.10","1.6","2023-08-25T20:30:00","120","2023/08/25","20:30:00","-15.787275195121765","35.035267658531666","0.1","14","300","64","18","-408","23616","-1028","4","150","149.44","115.92","33.52","23.79","39.2","9.07","0","0.00","DUALSPOT-UV-BLUE-GREEN-RED-IR","538029","598421","905520","33.053608","13.354713","0.016758","659360","798991","837042","24.497552","9.174578","0.019140","668955","792299","832137","21.433162","7.802593","0.020331","710008","808971","885311","17.638860","6.148885","0.021524","669812","829721","965100","11.589561","3.814743","0.025038","4184","7280","9379","4172","6477","7856","4186","6242","7418","4298","6011","6928","4137","5272","5828","DualSpot on"
"MA200-0420","53392","84","1","1.10","1.6","2023-08-25T20:35:00","120","2023/08/25","20:35:00","-15.787203013896942","35.03526532277465","0.0","14","300","64","18","-424","23560","-976","4","150","150.02","115.48","34.54","23.76","39.4","9.11","0","0.00","DUALSPOT-UV-BLUE-GREEN-RED-IR","534635","596964","906845","33.834964","13.748085","0.015816","657104","798992","839458","25.129198","9.462942","0.018221","665970","791311","833204","22.001548","8.051168","0.019167","707461","808373","886451","18.124936","6.347684","0.019935","668529","829976","966589","11.932560","3.939515","0.020462","3974","6690","8549","4054","6189","7479","4086","5975","7066","4222","5775","6611","4149","5047","5489","DualSpot on"
"MA200-0420","53393","84","1","1.10","1.6","2023-08-25T20:40:00","120","2023/08/25","20:40:00","-15.787172853946686","35.03527432307601","0.1","14","300","64","17","-456","23612","-912","4","150","149.55","115.77","33.78","23.74","39.4","9.11","89224","22.56","DUALSPOT-UV-BLUE-GREEN-RED-IR","530248","594269","906298","34.600720","14.139679","0.016185","652377","795921","838597","25.748612","9.746663","0.018577","661999","789049","832810","22.558486","8.295621","0.019670","709129","812561","892790","18.601152","6.544052","0.020930","665977","828515","966098","12.265759","4.063497","0.023775","3885","6809","8829","3966","6226","7603","3993","6008","7179","4126","5832","6758","4020","5127","5675","DualSpot on"
"MA200-0420","53394","84","1","1.10","1.6","2023-08-25T20:45:00","120","2023/08/25","20:45:00","-15.787175059318542","35.03531216084957","0.1","14","300","64","17","-408","23583","-937","4","150","149.82","115.88","33.95","23.70","39.6","9.15","89224","22.56","DUALSPOT-UV-BLUE-GREEN-RED-IR","525348","591164","905407","35.423436","14.560402","0.015772","647566","792893","837973","26.409316","10.051550","0.018233","657209","785926","831695","23.147018","8.556516","0.019389","704919","810086","891900","19.099912","6.751987","0.020712","662973","826545","965044","12.612164","4.194508","0.024076","4170","7279","9450","4226","6658","8152","4216","6380","7650","4318","6145","7144","4176","5391","5997","DualSpot on"
"MA200-0420","53395","84","1","1.10","1.6","2023-08-25T20:50:00","120","2023/08/25","20:50:00","-15.787189364433289","35.035246662795544","0.0","14","300","64","17","-442","23576","-934","4","150","150.28","115.42","34.86","23.70","39.8","9.22","89228","22.56","DUALSPOT-UV-BLUE-GREEN-RED-IR","520951","588657","905605","36.291980","15.014244","0.015280","643029","790284","837990","27.115242","10.380609","0.017264","653692","784464","832481","23.781636","8.838745","0.018044","695388","801670","884656","19.641428","6.978137","0.018960","660914","826012","965764","12.991924","4.334972","0.019397","4419","7645","9922","4534","6996","8524","4564","6720","7996","4707","6507","7500","4596","5628","6144","DualSpot on"
"MA200-0420","53396","84","1","1.10","1.6","2023-08-25T20:55:00","120","2023/08/25","20:55:00","-15.78719848394394","35.03527599200606","0.1","14","300","64","16","-368","23628","-1048","4","150","149.35","115.31","34.04","23.69","39.9","9.24","0","0.00","DUALSPOT-UV-BLUE-GREEN-RED-IR","515936","585305","904552","37.146280","15.468967","0.015592","637900","786861","837076","27.808650","10.709385","0.017852","649015","781526","831746","24.407900","9.121433","0.018762","697255","806287","891758","20.175860","7.205407","0.020156","657762","823983","964770","13.366856","4.476489","0.022088","4351","7846","10340","4457","7160","8852","4509","6894","8318","4649","6698","7836","4542","5807","6445","DualSpot on"
"MA200-0420","53397","84","1","1.10","1.6","2023-08-25T21:00:00","120","2023/08/25","21:00:00","-15.787255823612213","35.03527482226491","0.2","14","300","64","16","-441","23600","-938","4","150","149.76","115.36","34.39","23.69","40.0","9.29","0","0.00","DUALSPOT-UV-BLUE-GREEN-RED-IR","511793","582780","904661","37.959116","15.910553","0.015438","633719","784331","837106","28.469194","11.030772","0.017837","645180","779392","831741","25.002500","9.397481","0.018865","693945","804788","892068","20.686668","7.426204","0.019935","655466","822899","964864","13.725647","4.615644","0.022727","4138","7541","9996","4244","6927","8624","4279","6663","8099","4442","6440","7559","4344","5652","6314","DualSpot on"
"MA200-0420","53398","84","1","1.10","1.6","2023-08-25T21:05:00","120","2023/08/25","21:05:00","-15.787191033363342","35.03527782484889","0.2","14","300","64","15","-325","23550","-1187","4","150","149.44","115.77","33.67","23.71","40.0","9.32","89232","22.63","DUALSPOT-UV-BLUE-GREEN-RED-IR","508269","580852","905495","38.741656","16.334587","0.015457","630119","782462","837684","29.110238","11.339195","0.017774","642124","778118","832607","25.583056","9.664495","0.018884","685775","797577","885960","21.186506","7.640354","0.020077","653811","822611","965808","14.079311","4.750030","0.022471","3970","7397","9896","4104","6791","8505","4163","6584","8054","4331","6381","7538","4267","5576","6242","DualSpot on"
"MA200-0420","53399","84","1","1.10","1.6","2023-08-25T21:10:00","120","2023/08/25","21:10:00","-15.787177205085754","35.0353061594069","0.1","14","300","64","15","-333","23654","-1166","4","150","149.37","114.96","34.41","23.73","40.1","9.35","0","0.00","DUALSPOT-UV-BLUE-GREEN-RED-IR","505078","579219","906845","39.519556","16.762104","0.014984","627319","781557","839323","29.748580","11.651953","0.017193","639144","776878","833520","26.160550","9.933658","0.018087","682922","796469","886656","21.683074","7.856794","0.019233","651902","822018","966441","14.434536","4.886553","0.020808","3974","7297","9744","4116","6737","8425","4170","6494","7916","4333","6310","7433","4316","5542","6169","DualSpot on"
"MA200-0420","53400","84","1","1.10","1.6","2023-08-25T21:15:00","120","2023/08/25","21:15:00","-15.787178874015808","35.03530182316899","0.0","13","300","64","14","-376","23580","-928","4","150","149.44","115.28","34.15","23.76","40.0","9.36","0","0.00","DUALSPOT-UV-BLUE-GREEN-RED-IR","501580","577157","907389","40.279024","17.184628","0.015018","623480","779226","839400","30.373682","11.961017","0.017271","635575","774878","833621","26.724990","10.200494","0.018361","679998","795260","887213","22.170020","8.071694","0.019623","645639","815820","960475","14.784138","5.022648","0.021801","3869","7266","9794","4019","6708","8455","4064","6486","7981","4237","6312","7500","4236","5566","6251","DualSpot on"
"MA200-0420","53401","84","1","1.10","1.6","2023-08-25T21:20:00","120","2023/08/25","21:20:00","-15.787194907665253","35.035287491977215","0.1","13","300","64","14","-448","23564","-1000","4","150","149.96","115.42","34.54","23.79","40.0","9.35","89224","22.63","DUALSPOT-UV-BLUE-GREEN-RED-IR","498371","575258","908238","41.012592","17.600124","0.014874","620695","778101","840719","30.976946","12.266055","0.017213","632642","773522","834319","27.272722","10.463903","0.018198","677308","794180","887896","22.641576","8.283272","0.019462","648081","820568","967361","15.120857","5.158649","0.022941","3732","7066","9572","3874","6547","8300","3939","6332","7821","4098","6146","7327","4075","5501","6239","DualSpot on"
"MA200-0420","53402","84","1","1.10","1.6","2023-08-25T21:25:00","120","2023/08/25","21:25:00","-15.787234365940094","35.03525532409549","0.0","14","300","64","13","-448","23624","-1020","4","150","149.59","115.35","34.24","23.79","39.9","9.34","0","0.00","DUALSPOT-UV-BLUE-GREEN-RED-IR","494620","572717","907894","41.729152","18.004506","0.014695","616748","775402","840331","31.570702","12.563783","0.016909","629060","771283","834049","27.811236","10.722466","0.018025","673888","792182","887521","23.105846","8.491227","0.019300","645757","819275","967110","15.452503","5.289627","0.021647","3648","6937","9433","3815","6446","8185","3875","6270","7772","4038","6093","7288","4016","5344","6035","DualSpot on"
"MA200-0420","53403","84","1","1.10","1.6","2023-08-25T21:30:00","120","2023/08/25","21:30:00","-15.787211060523987","35.03529282659292","0.0","13","300","64","13","-412","23544","-967","4","150","149.94","115.58","34.36","23.81","40.0","9.39","0","0.00","DUALSPOT-UV-BLUE-GREEN-RED-IR","492059","571450","909530","42.428620","18.403012","0.014569","614340","774592","841927","32.148452","12.857113","0.016836","626527","770275","835057","28.335988","10.973609","0.017607","672032","791982","889099","23.560890","8.695613","0.018994","644412","819172","968218","15.778294","5.418888","0.021403","3554","6812","9308","3705","6329","8077","3769","6068","7522","3949","5968","7149","3937","5255","5945","DualSpot on"
