"Serial number","Datum ID","Session ID","Data format version","Firmware version","App version","Date / time local","Timezone offset (mins)","Date local (yyyy/MM/dd)","Time local (hh:mm:ss)","GPS lat (ddmm.mmmmm)","GPS long (dddmm.mmmmm)","GPS speed (km/h)","GPS sat count","Timebase (s)","Status","Battery remaining (%)","Accel X","Accel Y","Accel Z","Tape position","Flow setpoint (mL/min)","Flow total (mL/min)","Flow1 (mL/min)","Flow2 (mL/min)","Sample temp (C)","Sample RH (%)","Sample dewpoint (C)","Internal pressure (Pa)","Internal temp (C)","Optical config","UV Sen1","UV Sen2","UV Ref","UV ATN1","UV ATN2","UV K","Blue Sen1","Blue Sen2","Blue Ref","Blue ATN1","Blue ATN2","Blue K","Green Sen1","Green Sen2","Green Ref","Green ATN1","Green ATN2","Green K","Red Sen1","Red Sen2","Red Ref","Red ATN1","Red ATN2","Red K","IR Sen1","IR Sen2","IR Ref","IR ATN1","IR ATN2","IR K","UV BC1","UV BC2","UV BCc","Blue BC1","Blue BC2","Blue BCc","Green BC1","Green BC2","Green BCc","Red BC1","Red BC2","Red BCc","IR BC1","IR BC2","IR BCc","Readable status"
"MA200-0416","31698","93","1","1.10","1.4","2023-05-30T08:46:59","120","2023/05/30","08:46:59","0","0","0.0","5","30","66","84","-24938","-3315","-5076","9","150","149.46","113.88","35.59","23.03","48.5","11.59","90768","22.06","DUALSPOT-UV-BLUE-GREEN-RED-IR","834056","723940","904348","0.000000","0.000000","0.000000","794513","907282","763905","0.000000","0.000000","0.000000","884548","905794","811507","0.000000","0.000000","0.000000","871039","925590","861543","0.000000","0.000000","0.000000","739089","850747","949978","0.000000","0.000000","0.000000","","","","","","","","","","","","","","","","Start up"
"MA200-0416","31699","93","1","1.10","1.4","2023-05-30T08:47:29","120","2023/05/30","08:47:29","0","0","0.0","8","30","66","84","-24912","-3571","-2500","9","150","149.62","114.29","35.32","23.17","48.8","11.79","90768","22.44","DUALSPOT-UV-BLUE-GREEN-RED-IR","829017","720172","899961","0.000000","0.000000","0.000000","795058","908337","764966","0.000000","0.000000","0.000000","887387","909048","814525","0.000000","0.000000","0.000000","870512","925348","861389","0.000000","0.000000","0.000000","742342","854701","954483","0.000000","0.000000","0.000000","","","","","","","","","","","","","","","","Start up"
"MA200-0416","31700","93","1","1.10","1.4","2023-05-30T08:47:59","120","2023/05/30","08:47:59","0","0","0.0","8","30","66","84","-23916","3616","-648","9","150","149.40","114.13","35.27","23.30","48.9","11.96","90760","22.63","DUALSPOT-UV-BLUE-GREEN-RED-IR","835144","726805","908936","0.000000","0.000000","0.000000","794786","908871","765651","0.000000","0.000000","0.000000","886442","908753","814450","0.000000","0.000000","0.000000","870941","926279","862460","0.000000","0.000000","0.000000","742130","854861","954783","0.000000","0.000000","0.000000","","","","","","","","","","","","","","","","Start up"
"MA200-0416","31701","93","1","1.10","1.4","2023-05-30T08:48:29","120","2023/05/30","08:48:29","-15.817246854305267","34.99698269367218","0.1","11","30","66","84","-25273","-150","-2946","9","150","149.66","114.13","35.53","23.43","48.9","12.08","90756","22.88","DUALSPOT-UV-BLUE-GREEN-RED-IR","834469","727797","911010","0.000000","0.000000","0.000000","785434","898953","757591","0.000000","0.000000","0.000000","885996","908813","814682","0.000000","0.000000","0.000000","871071","926829","863061","0.000000","0.000000","0.000000","742028","855074","955093","0.000000","0.000000","0.000000","","","","","","","","","","","","","","","","Start up"
"MA200-0416","31702","93","1","1.10","1.4","2023-05-30T08:48:59","120","2023/05/30","08:48:59","-15.817258417606354","34.99700325727463","0.0","8","30","66","84","-24500","3450","1930","9","150","150.23","114.08","36.14","23.54","48.9","12.16","90760","23.06","DUALSPOT-UV-BLUE-GREEN-RED-IR","831938","726297","909523","0.000000","0.000000","0.000000","793691","908922","766091","0.000000","0.000000","0.000000","888894","912212","817795","0.000000","0.000000","0.000000","870562","926670","862954","0.000000","0.000000","0.000000","741266","854335","954415","0.000000","0.000000","0.000000","","","","","","","","","","","","","","","","Start up"
"MA200-0416","31703","93","1","1.10","1.4","2023-05-30T08:49:29","120","2023/05/30","08:49:29","-15.817313373088837","34.99703770875931","0.0","11","30","64","84","-24824","-1504","2696","9","150","149.92","114.31","35.62","23.65","48.7","12.21","90772","23.31","DUALSPOT-UV-BLUE-GREEN-RED-IR","806898","720027","910684","0.000000","0.000000","0.000000","783014","901557","761642","0.000000","0.000000","0.000000","884152","910004","816817","0.000000","0.000000","0.000000","869264","927217","864128","0.000000","0.000000","0.000000","736209","849770","949842","0.000000","0.000000","0.000000","","","","","","","","","","","","","","","",""
"MA200-0416","31704","93","1","1.10","1.4","2023-05-30T08:49:59","120","2023/05/30","08:49:59","-15.817321717739105","34.997036159038544","0.0","11","30","64","84","-24836","-1588","2120","9","150","149.72","114.64","35.07","23.75","48.6","12.29","90768","23.50","DUALSPOT-UV-BLUE-GREEN-RED-IR","763417","702697","902684","5.326027","1.758649","0.019893","773805","897766","761115","1.253807","0.395280","0.000000","877487","906581","815219","0.636374","0.203090","0.000000","864366","924245","862428","0.421321","0.135630","0.000000","736491","851608","952776","0.306865","0.097824","0.000000","272870","294529","305207","81075","83553","81075","46085","48076","46085","36870","38799","36870","37392","38964","37392",""
"MA200-0416","31705","93","1","1.10","1.4","2023-05-30T08:50:29","120","2023/05/30","08:50:29","-15.817336082458496","34.99701368808746","0.0","11","30","64","84","-24815","-1546","2457","9","150","149.76","114.00","35.76","23.85","48.5","12.32","90768","23.69","DUALSPOT-UV-BLUE-GREEN-RED-IR","755713","701452","905118","6.770015","2.254263","0.018270","772723","898635","762694","1.633083","0.512308","0.000000","876642","906810","815819","0.828951","0.261652","0.000000","865638","926344","864682","0.547581","0.172310","0.000000","733380","848522","949524","0.400093","0.125873","0.000000","74396","81401","84897","24663","24259","24663","14024","13595","14024","11111","10290","11111","11423","10956","11423",""
"MA200-0416","31706","93","1","1.10","1.4","2023-05-30T08:50:59","120","2023/05/30","08:50:59","-15.817336082458496","34.99699854850769","0.0","11","30","64","84","-24848","-1648","2712","9","150","149.33","114.08","35.24","23.97","48.2","12.35","90772","23.88","DUALSPOT-UV-BLUE-GREEN-RED-IR","751091","699767","904743","7.552362","2.529132","0.022649","770849","897648","762290","1.867377","0.585031","0.000000","873888","904680","814181","0.958138","0.298679","0.000000","864334","925457","863989","0.632357","0.195175","0.000000","735571","851415","952899","0.466581","0.144042","0.000000","40279","45808","48591","15224","15296","15224","9401","8722","9401","7455","6508","7455","8141","7201","8141",""
"MA200-0416","31707","93","1","1.10","1.4","2023-05-30T08:51:29","120","2023/05/30","08:51:29","-15.81734573841095","34.9969847202301","0.0","12","30","64","84","-24900","-1724","3164","9","150","149.98","114.47","35.51","24.08","48.0","12.39","90776","24.06","DUALSPOT-UV-BLUE-GREEN-RED-IR","753533","703356","910364","7.669842","2.568859","0.015535","773300","901430","765841","1.962459","0.608749","0.000000","876182","907657","817049","1.024895","0.312680","0.000000","863523","925035","863758","0.681579","0.203502","0.000000","734657","850663","952158","0.501924","0.151767","0.000000","6028","6570","6843","6157","4951","6157","4841","3273","4841","4314","2352","4314","4313","3039","4313",""
"MA200-0416","31708","93","1","1.10","1.4","2023-05-30T08:51:59","120","2023/05/30","08:51:59","-15.81734824180603","34.99698454141617","0.0","13","30","64","84","-24857","-1723","2623","9","150","149.73","114.50","35.23","24.18","47.9","12.45","90784","24.25","DUALSPOT-UV-BLUE-GREEN-RED-IR","740943","698638","909464","9.274576","3.155244","0.023883","770013","900194","765753","2.390343","0.745761","0.000000","872397","905080","815304","1.244842","0.381809","0.000000","860812","923067","862272","0.827998","0.248294","0.000000","736416","853348","955524","0.614276","0.188946","0.000000","82317","97771","105739","27702","28833","27702","15947","16292","15947","12829","12757","12829","13707","14743","13707",""
"MA200-0416","31709","93","1","1.10","1.4","2023-05-30T08:52:29","120","2023/05/30","08:52:29","-15.817351698875427","34.99698269367218","0.0","15","30","64","83","-24860","-1743","3056","9","150","149.42","114.49","34.92","24.29","47.9","12.55","90784","24.38","DUALSPOT-UV-BLUE-GREEN-RED-IR","726502","693928","910244","11.141420","3.839687","0.021151","766074","898737","765878","2.877301","0.902158","0.000000","869293","903463","814538","1.490169","0.460743","0.000000","859494","922758","862477","0.990368","0.300329","0.000000","735067","852515","955023","0.738281","0.230975","0.000000","95769","115119","125295","31529","33200","31529","17789","18766","17789","14227","14949","14227","15129","16812","15129",""
"MA200-0416","31710","93","1","1.10","1.4","2023-05-30T08:52:59","120","2023/05/30","08:52:59","-15.817339062690735","34.99698120355606","0.0","15","30","64","83","-24892","-2024","2892","9","150","150.09","114.44","35.65","24.41","47.8","12.61","90776","24.56","DUALSPOT-UV-BLUE-GREEN-RED-IR","718688","691124","910400","12.590240","4.396669","0.021000","758790","892367","761291","3.311708","1.044673","0.021693","871687","907160","818348","1.716965","0.532317","0.000000","858526","922524","862551","1.138199","0.344455","0.000000","734020","851816","954487","0.841751","0.263924","0.000000","74360","91754","101088","28140","29631","30318","16453","16666","16453","12960","12416","12960","12630","12909","12630",""
"MA200-0416","31711","93","1","1.10","1.4","2023-05-30T08:53:29","120","2023/05/30","08:53:29","-15.817336618900299","34.99699491262436","0.0","15","30","64","83","-24744","-1876","2684","9","150","150.03","114.32","35.71","24.53","47.4","12.59","90780","24.69","DUALSPOT-UV-BLUE-GREEN-RED-IR","717194","689753","908609","12.576059","4.388612","0.044298","761393","895898","764487","3.381272","1.063871","-0.060522","869095","904861","816375","1.771312","0.544386","0.000000","862540","927145","866929","1.174972","0.350213","0.000000","732121","849824","952321","0.868808","0.267944","0.000000","-728","-1325","-1645","4510","3985","3744","3946","2806","3946","3227","1617","3227","3306","1572","3306",""
"MA200-0416","31712","93","1","1.10","1.4","2023-05-30T08:53:59","120","2023/05/30","08:53:59","-15.817344069480896","34.99699503183365","0.0","15","30","64","83","-24856","-1808","2568","9","150","149.45","113.88","35.56","24.62","47.1","12.60","90780","24.75","DUALSPOT-UV-BLUE-GREEN-RED-IR","692961","679290","905519","15.057512","5.341079","0.017404","752266","890711","762428","4.147909","1.315713","0.017050","862103","900491","813689","2.171177","0.673163","0.000000","857018","923088","864011","1.430711","0.433051","0.000000","732310","851133","954369","1.030912","0.322713","0.000000","127982","157310","173432","49904","52498","53702","29150","30063","29150","22529","23369","22529","19884","21514","19884",""
"MA200-0416","31713","93","1","1.10","1.4","2023-05-30T08:54:29","120","2023/05/30","08:54:29","-15.817344069480896","34.996985733509064","0.0","15","30","64","83","-24776","-1757","2730","9","150","149.80","113.88","35.92","24.73","46.9","12.63","90776","24.81","DUALSPOT-UV-BLUE-GREEN-RED-IR","677130","674105","907846","17.889428","6.455639","0.015613","748131","890428","764194","4.991624","1.598812","0.017171","860034","900702","814984","2.598905","0.816345","0.000000","857393","924993","866508","1.697304","0.522649","0.000000","727536","846442","949642","1.201173","0.380778","0.000000","146065","182245","202672","54925","58424","60074","31183","33092","31183","23487","25024","23487","20886","22580","20886",""
"MA200-0416","31714","93","1","1.10","1.4","2023-05-30T08:54:59","120","2023/05/30","08:54:59","-15.817345261573792","34.99698221683502","0.0","15","30","64","83","-24780","-1700","2672","9","150","149.40","113.75","35.65","24.82","46.8","12.66","90776","24.94","DUALSPOT-UV-BLUE-GREEN-RED-IR","653458","661902","902422","20.577836","7.566417","0.016276","742056","888623","765092","5.843475","1.891017","0.020996","856094","899395","815119","3.031230","0.962245","0.033403","849903","918634","861394","1.958935","0.611156","0.000000","726518","846212","950046","1.368618","0.441016","0.000000","138816","183019","208725","55515","60766","63279","31553","33979","35108","23075","24909","23075","20563","23605","20563",""
"MA200-0416","31715","93","1","1.10","1.4","2023-05-30T08:55:29","120","2023/05/30","08:55:29","-15.817357838153839","34.996971905231476","0.0","15","30","64","83","-24816","-1700","2976","9","150","149.49","113.96","35.52","24.91","46.7","12.71","90780","25.13","DUALSPOT-UV-BLUE-GREEN-RED-IR","639514","658637","909039","23.779582","8.917358","0.015196","734339","885037","764629","6.885308","2.250684","0.020007","851461","897456","814691","3.548407","1.136410","0.029802","847914","918239","861846","2.259516","0.713026","0.000000","728975","849995","954840","1.545791","0.504546","0.000000","165014","223372","258387","67770","75058","78597","37676","40705","42131","26461","28771","26461","21717","24983","21717",""
"MA200-0416","31716","93","1","1.10","1.4","2023-05-30T08:55:59","120","2023/05/30","08:55:59","-15.817361414432526","34.996970534324646","0.0","15","30","64","83","-24904","-1719","2480","9","150","149.83","114.32","35.51","25.02","46.5","12.77","90784","25.25","DUALSPOT-UV-BLUE-GREEN-RED-IR","622907","650894","907740","26.323144","9.985878","0.013759","726106","880427","763005","7.845320","2.579832","0.017074","849133","898205","816804","4.096198","1.316785","0.019858","849124","921726","866060","2.610785","0.825965","0.000000","724973","846554","951611","1.760801","0.573342","0.000000","130684","176742","204894","62253","68715","71882","39782","42172","43304","30827","31909","30827","26273","27064","26273",""
"MA200-0416","31717","93","1","1.10","1.4","2023-05-30T08:56:29","120","2023/05/30","08:56:29","-15.81736022233963","34.996972024440765","0.0","15","30","64","83","-24848","-1868","2484","9","150","150.09","114.20","35.89","25.13","46.4","12.81","90784","25.31","DUALSPOT-UV-BLUE-GREEN-RED-IR","606198","641988","904285","28.670422","10.982166","0.012636","717239","875395","761255","8.830925","2.917743","0.013531","841546","893826","814443","4.698539","1.512539","0.010177","842035","916572","862377","3.014640","0.954800","0.007144","724741","847735","953744","2.010631","0.654226","0.000000","120730","163046","189319","63982","69796","72665","43791","45282","45990","35480","36014","36261","30561","31482","30561",""
"MA200-0416","31718","93","1","1.10","1.4","2023-05-30T08:56:59","120","2023/05/30","08:56:59","-15.817354083061218","34.99697172641754","0.0","14","30","64","83","-24820","-1835","2636","9","150","150.03","114.44","35.59","25.21","46.1","12.80","90784","25.38","DUALSPOT-UV-BLUE-GREEN-RED-IR","602195","641616","907673","29.943642","11.518776","0.012224","716105","876592","763446","9.367624","3.102445","0.014681","840889","894785","815974","5.016321","1.614368","0.008552","843791","919559","865565","3.215568","1.015710","-0.011893","725037","848664","955084","2.130598","0.691511","0.000000","65347","88562","103076","34766","38474","40310","23054","23755","24087","17615","17171","16966","14644","14635","14644",""
"MA200-0416","31719","93","1","1.10","1.4","2023-05-30T08:57:29","120","2023/05/30","08:57:29","-15.817348539829254","34.99698555469513","0.0","15","30","64","83","-24760","-1864","2592","9","150","150.29","114.04","36.25","25.29","45.8","12.78","90784","25.44","DUALSPOT-UV-BLUE-GREEN-RED-IR","593666","638703","910137","31.570076","12.213043","0.011361","713222","876571","765025","9.962726","3.306579","0.010629","838481","894277","816431","5.347591","1.724153","0.011056","837653","914202","861172","3.425366","1.084590","0.013387","724864","849286","956186","2.269147","0.738314","0.000000","83767","112489","130611","38684","41745","43266","24116","25143","25632","18456","19062","19343","16971","18036","16971",""
"MA200-0416","31720","93","1","1.10","1.4","2023-05-30T08:57:59","120","2023/05/30","08:57:59","-15.817339360713959","34.996993362903595","0.0","15","30","64","83","-24716","-1660","2860","9","150","149.39","114.04","35.34","25.38","45.8","12.85","90784","25.63","DUALSPOT-UV-BLUE-GREEN-RED-IR","579834","630626","905874","33.346604","12.972496","0.011487","705131","871033","762204","10.658034","3.545255","0.013027","832721","890924","814600","5.751717","1.854848","0.010491","838904","917497","865129","3.687386","1.166999","0.005759","721004","845858","952985","2.435796","0.793719","0.000000","91497","126209","148310","45198","50061","52485","29420","30700","31309","23051","23392","23551","20413","21898","20413",""
"MA200-0416","31721","93","1","1.10","1.4","2023-05-30T08:58:29","120","2023/05/30","08:58:29","-15.817330241203308","34.99699532985687","0.0","15","30","64","82","-24668","-1772","2712","9","150","150.09","114.16","35.93","25.49","45.9","13.00","90780","25.88","DUALSPOT-UV-BLUE-GREEN-RED-IR","572631","627001","905219","34.365676","13.403698","0.010499","701008","869269","762193","11.209897","3.732151","0.009119","831485","892024","816632","6.143575","1.977735","-0.000888","834578","914646","863148","3.975498","1.252215","-0.024282","717207","842531","949789","2.627908","0.850391","0.000000","52431","70483","82027","35836","38558","39916","28497","28392","28343","25319","23792","23090","23508","22032","23508",""
"MA200-0416","31722","93","1","1.10","1.4","2023-05-30T08:58:59","120","2023/05/30","08:58:59","-15.81732189655304","34.996995747089386","0.0","16","30","64","82","-24932","-1764","3200","9","150","149.76","114.44","35.32","25.61","46.0","13.13","90784","26.13","DUALSPOT-UV-BLUE-GREEN-RED-IR","573627","629525","910500","35.158612","13.748932","0.011453","701245","871147","764524","11.620803","3.872329","0.011728","831486","893278","818260","6.423157","2.063613","-0.001125","832639","913441","862346","4.170749","1.307493","-0.032891","717815","843849","951498","2.759452","0.887738","0.000000","40697","57404","68133","26618","29418","30818","20282","20184","20137","17117","15699","15052","16057","14769","16057",""
"MA200-0416","31723","93","1","1.10","1.4","2023-05-30T08:59:29","120","2023/05/30","08:59:29","-15.817317068576813","34.99699866771698","0.0","16","30","64","82","-24740","-1835","2668","9","150","149.57","114.32","35.25","25.75","46.0","13.24","90784","26.31","DUALSPOT-UV-BLUE-GREEN-RED-IR","562232","621784","904799","36.369228","14.286476","0.011557","694067","865505","761174","12.154058","4.060936","0.014897","827669","891323","817459","6.747717","2.170724","0.013942","830886","913031","862610","4.387673","1.375526","0.005594","715645","842212","950120","2.898645","0.932683","0.000000","62199","89581","107296","34579","39670","42225","23570","25230","26018","19037","19366","19516","17008","17814","17008",""
"MA200-0416","31724","93","1","1.10","1.4","2023-05-30T08:59:59","120","2023/05/30","08:59:59","-15.817315518856049","34.99699866771698","0.0","16","30","64","82","-24584","-1727","2060","9","150","149.68","113.90","35.78","25.91","45.9","13.35","90772","26.50","DUALSPOT-UV-BLUE-GREEN-RED-IR","553935","617521","904550","37.706772","14.887409","0.011022","694330","868989","765801","12.679218","4.247314","0.012886","824771","890070","817162","7.052421","2.270394","0.008157","829105","912348","862525","4.585467","1.436620","-0.005412","718111","845830","954674","3.033182","0.977365","0.025725","68971","98653","118018","34179","38618","40854","22209","23128","23565","17421","17132","16999","16499","17446","17896",""
"MA200-0416","31725","93","1","1.10","1.4","2023-05-30T09:00:29","120","2023/05/30","09:00:29","-15.817321181297302","34.99699604511261","0.0","16","30","64","82","-24761","-1773","2415","9","150","149.54","114.15","35.39","26.05","45.9","13.48","90780","26.75","DUALSPOT-UV-BLUE-GREEN-RED-IR","541105","611208","905895","39.871624","15.900665","0.011508","684454","861410","761558","13.465658","4.533237","0.015342","820774","888448","817018","7.476764","2.417564","0.019960","828030","912839","863816","4.845429","1.524567","0.024247","716347","844792","954136","3.204013","1.038152","0.055987","111388","168167","205830","51072","59893","64370","30861","34525","36275","22847","24932","25889","20905","23994","25475",""
"MA200-0416","31726","93","1","1.10","1.4","2023-05-30T09:00:59","120","2023/05/30","09:00:59","-15.817328572273254","34.99699115753174","0.0","16","30","64","82","-24824","-1740","2736","9","150","150.16","113.64","36.52","26.21","45.8","13.60","90772","26.94","DUALSPOT-UV-BLUE-GREEN-RED-IR","530695","604861","903911","42.057216","16.950066","0.010770","679409","858354","760545","14.222290","4.815037","0.013632","815198","884275","814072","7.871187","2.557391","0.016859","824162","909742","861455","5.083877","1.608645","0.024524","712397","840830","950097","3.362581","1.098855","0.065830","112960","168794","206489","49356","57209","61228","28814","31790","33223","21050","23100","24049","19491","23222","25032",""
"MA200-0416","31727","93","1","1.10","1.4","2023-05-30T09:01:29","120","2023/05/30","09:01:29","-15.817335784435272","34.99698281288147","0.0","16","30","64","82","-24708","-1824","2452","9","150","149.45","113.33","36.12","26.36","45.6","13.68","90776","27.13","DUALSPOT-UV-BLUE-GREEN-RED-IR","527796","604265","906791","42.892428","17.348064","0.010584","678498","859043","762169","14.557817","4.938467","0.012997","814369","884456","814784","8.056396","2.619660","0.009333","825384","911829","863757","5.200054","1.644861","-0.006374","712152","840968","950571","3.445827","1.128183","0.039310","43288","64720","79276","21948","25333","27070","13568","14312","14671","10285","10059","9955","10261","11342","11869",""
"MA200-0416","31728","93","1","1.10","1.4","2023-05-30T09:01:59","120","2023/05/30","09:01:59","-15.817337214946747","34.99697858095169","0.0","16","30","64","82","-24724","-1956","2648","9","150","149.76","113.44","36.32","26.52","45.4","13.76","90776","27.31","DUALSPOT-UV-BLUE-GREEN-RED-IR","525877","603431","907468","43.510988","17.647792","0.010650","677535","858999","762671","14.818408","5.032062","0.010500","812855","883557","814202","8.198828","2.664709","-0.002255","825108","912030","864114","5.288123","1.668417","-0.059918","714905","844540","954767","3.510395","1.149070","0.004286","32027","48466","59683","17029","19101","20167","10424","10296","10234","7788","6506","5914","7951","8032","8072",""
"MA200-0416","31729","93","1","1.10","1.4","2023-05-30T09:02:29","120","2023/05/30","09:02:29","-15.817340552806854","34.996971905231476","0.0","16","30","64","82","-24740","-1896","2628","9","150","150.03","113.64","36.38","26.68","45.0","13.77","90780","27.44","DUALSPOT-UV-BLUE-GREEN-RED-IR","524063","602317","907082","43.718328","17.745304","0.010090","676186","858204","762391","14.957936","5.080354","0.007310","814795","886287","817014","8.287518","2.691107","-0.014021","824525","911828","864030","5.338969","1.679909","-0.140757","712675","842209","952250","3.551683","1.160013","-0.096740","10716","15741","19175","9101","9839","10219","6479","6023","5804","4488","3168","2562","5075","4201","3777",""
"MA200-0416","31730","93","1","1.10","1.4","2023-05-30T09:02:59","120","2023/05/30","09:02:59","-15.817336618900299","34.99697285890579","0.0","16","30","64","82","-24708","-1700","2680","9","150","150.36","113.64","36.71","26.83","44.7","13.80","90788","27.56","DUALSPOT-UV-BLUE-GREEN-RED-IR","521325","599925","904415","43.879632","17.817592","0.008993","677691","860951","765199","15.079966","5.120123","0.000866","812178","884010","815097","8.367078","2.710521","-0.067792","823236","910808","863162","5.389616","1.686936","-0.908872","714836","845034","955542","3.591171","1.170218","-0.117491","8336","11564","13771","7960","8029","8065","5812","4390","3708","4471","1920","758","4853","3882","3413",""
"MA200-0416","31731","93","1","1.10","1.4","2023-05-30T09:03:29","120","2023/05/30","09:03:29","-15.81733638048172","34.99697953462601","0.0","16","30","64","82","-24772","-1803","2740","9","150","150.03","113.49","36.54","26.97","44.5","13.84","90788","27.69","DUALSPOT-UV-BLUE-GREEN-RED-IR","523204","602488","908804","44.086676","17.913994","0.009730","675357","858607","763405","15.213001","5.165739","0.005875","812728","885117","816313","8.455295","2.737773","-0.007568","825134","913231","865541","5.445289","1.700246","-0.109944","711153","840904","951002","3.633743","1.182674","-0.043120","10716","15494","18765","8690","9253","9543","6453","6191","6065","4921","3654","3078","5240","4761","4530",""
"MA200-0416","31732","93","1","1.10","1.4","2023-05-30T09:03:59","120","2023/05/30","09:03:59","-15.817338049411774","34.99698340892792","0.0","16","30","64","82","-24720","-1868","2568","9","150","150.03","113.41","36.62","27.12","44.2","13.89","90780","27.88","DUALSPOT-UV-BLUE-GREEN-RED-IR","518133","598480","905195","44.731580","18.216240","0.009663","675672","860308","765568","15.469516","5.258829","0.010208","809238","882124","813917","8.601113","2.785629","0.002733","822590","910987","863638","5.537655","1.728135","-0.018849","712653","843031","953612","3.702619","1.206336","0.023348","33401","48474","58830","16768","18843","19912","10675","10848","10932","8171","7640","7399","8484","9025","9287",""
"MA200-0416","31733","93","1","1.10","1.4","2023-05-30T09:04:29","120","2023/05/30","09:04:29","-15.817336738109589","34.99698507785797","0.0","16","30","64","82","-24756","-1872","2748","9","150","149.83","113.49","36.34","27.26","44.0","13.96","90772","28.00","DUALSPOT-UV-BLUE-GREEN-RED-IR","518914","600319","909196","45.029764","18.354480","0.009558","672380","856996","763038","15.629146","5.314100","0.007005","810010","883586","815480","8.701764","2.814936","-0.017816","818432","906829","859836","5.601263","1.742595","-0.129925","713234","844012","954833","3.751888","1.220495","-0.047824","15432","22340","27093","10427","11273","11709","7363","6694","6375","5623","3991","3254","6064","5442","5142",""
"MA200-0416","31734","93","1","1.10","1.4","2023-05-30T09:04:59","120","2023/05/30","09:04:59","-15.817338705062866","34.99698805809021","0.0","16","30","64","82","-24748","-1896","2536","9","150","149.83","113.17","36.66","27.40","43.8","14.00","90776","28.19","DUALSPOT-UV-BLUE-GREEN-RED-IR","518674","600409","909782","45.141848","18.403950","0.008407","671827","856839","763140","15.727611","5.346859","0.002492","808715","882620","814724","8.770810","2.833688","-0.035780","824086","913410","866120","5.642620","1.749175","-0.497889","711841","842575","953307","3.786605","1.229261","-0.128115","5817","7925","9375","6450","6623","6713","5065","4246","3855","3666","1800","962","4285","3340","2885",""
"MA200-0416","31735","93","1","1.10","1.4","2023-05-30T09:05:29","120","2023/05/30","09:05:29","-15.817338585853577","34.99699407815933","0.0","16","30","64","82","-24624","-1927","2472","9","150","150.28","113.17","37.11","27.54","43.5","14.01","90784","28.38","DUALSPOT-UV-BLUE-GREEN-RED-IR","517819","599575","908603","45.178188","18.415158","-0.002475","670917","856145","762696","15.805712","5.370636","-0.007714","810880","885374","817391","8.830832","2.846551","-0.118543","821615","910978","863859","5.683382","1.754408","-1.293292","709147","839602","949995","3.820217","1.237706","-0.138483","1886","1773","1696","5116","4749","4560","4403","2877","2151","3613","1414","432","4148","3178","2713",""
"MA200-0416","31736","93","1","1.10","1.4","2023-05-30T09:05:59","120","2023/05/30","09:05:59","-15.81733524799347","34.99700140953064","0.0","16","30","64","82","-24708","-1956","2720","9","150","149.87","113.21","36.66","27.67","43.2","14.02","90784","28.44","DUALSPOT-UV-BLUE-GREEN-RED-IR","515264","597486","906616","45.346248","18.491620","0.008958","672899","859580","766161","15.927383","5.411333","0.002991","807775","882590","815065","8.912929","2.869976","-0.023837","820191","909843","862917","5.736410","1.764243","-0.280807","710829","841879","952749","3.862285","1.248982","-0.088374","8719","12251","14683","7967","8230","8365","6020","5305","4965","4699","2691","1799","5191","4297","3870",""
"MA200-0416","31737","93","1","1.10","1.4","2023-05-30T09:06:29","120","2023/05/30","09:06:29","-15.817337393760681","34.99700582027435","0.0","16","30","64","82","-24780","-1872","2724","9","150","149.37","113.32","36.06","27.82","43.0","14.08","90784","28.63","DUALSPOT-UV-BLUE-GREEN-RED-IR","516179","599312","910377","45.698740","18.657234","0.009763","669745","856334","763640","16.105862","5.474258","0.008734","808917","884451","817023","9.024944","2.903802","-0.008996","822401","912769","865767","5.808288","1.781397","-0.097051","712176","843796","955027","3.916921","1.265156","-0.029249","18270","26979","32988","11676","12937","13587","8206","7788","7590","6363","4773","4069","6735","6266","6043",""
"MA200-0416","31738","93","1","1.10","1.4","2023-05-30T09:06:59","120","2023/05/30","09:06:59","-15.817340552806854","34.99699503183365","0.0","16","30","64","82","-24720","-1811","2524","9","150","149.57","113.21","36.36","27.95","42.8","14.13","90788","28.75","DUALSPOT-UV-BLUE-GREEN-RED-IR","514408","597883","908900","45.877992","18.732640","0.007490","667808","854584","762392","16.232393","5.514307","-0.001384","806680","882600","815499","9.114780","2.927864","-0.035525","821139","911789","864977","5.870661","1.794087","-0.190416","709887","841368","952415","3.965911","1.279326","-0.043378","9300","12181","14169","8285","8165","8103","6588","5494","4976","5527","3501","2610","6045","5444","5157",""
"MA200-0416","31739","93","1","1.10","1.4","2023-05-30T09:07:29","120","2023/05/30","09:07:29","-15.817340731620789","34.99698966741562","0.0","16","30","64","81","-24284","-1880","1940","9","150","149.34","113.84","35.50","28.08","42.7","14.21","90788","28.94","DUALSPOT-UV-BLUE-GREEN-RED-IR","511636","594781","904201","45.889392","18.730026","0.033075","665806","852493","760733","16.309141","5.535431","-0.013260","803529","879608","812851","9.182822","2.941316","-0.127076","817241","907859","861291","5.917621","1.798427","15.598669","710927","842850","954170","4.005113","1.285991","-0.506764","588","-432","-1136","4998","4410","4109","4962","3146","2290","4138","1226","-45","4810","2622","1587",""
"MA200-0416","31740","93","1","1.10","1.4","2023-05-30T09:07:59","120","2023/05/30","09:07:59","-15.817341029644012","34.996987879276276","0.0","16","30","64","82","-24752","-1903","3000","9","150","149.76","113.68","36.08","28.24","42.6","14.31","90784","29.13","DUALSPOT-UV-BLUE-GREEN-RED-IR","511763","595511","905952","46.059228","18.801098","0.007598","665923","853337","761768","16.430748","5.575735","0.003827","807711","884787","817847","9.271074","2.965974","-0.023020","819341","910644","864011","5.978227","1.811456","-0.144127","710526","842692","954152","4.055559","1.301472","-0.012607","8774","11570","13498","7929","8281","8462","6445","5674","5311","5348","3623","2873","6198","5994","5897",""
"MA200-0416","31741","93","1","1.10","1.4","2023-05-30T09:08:29","120","2023/05/30","09:08:29","-15.817343056201935","34.99698704481125","0.0","16","30","64","82","-24712","-2011","2408","9","150","149.60","113.52","36.09","28.38","42.4","14.37","0","0.00","DUALSPOT-UV-BLUE-GREEN-RED-IR","512543","596939","908648","46.202572","18.860538","0.007352","667251","855760","764204","16.548380","5.613262","0.000323","803559","880773","814274","9.355491","2.988893","-0.029188","815933","907285","860937","6.037449","1.821816","-0.299759","710995","843528","955185","4.101659","1.312634","-0.131598","7417","9674","11232","7682","7709","7723","6173","5272","4849","5234","2880","1862","5673","4320","3684",""
"MA200-0416","31742","93","1","1.10","1.4","2023-05-30T09:08:59","120","2023/05/30","09:08:59","-15.817348837852478","34.99698120355606","0.0","16","30","64","82","-24704","-1856","2684","9","150","149.32","114.36","34.96","28.53","42.2","14.43","0","0.00","DUALSPOT-UV-BLUE-GREEN-RED-IR","510667","595853","908617","46.570860","19.037422","0.010552","666562","855960","764921","16.738499","5.681354","0.012327","802105","879896","813771","9.472949","3.022927","-0.008737","815754","907617","861421","6.114642","1.840954","-0.060555","709698","842352","954024","4.161316","1.330412","-0.009178","18914","29721","37192","12324","14440","15527","8527","8083","7875","6771","5492","4942","7287","7104","7019",""
"MA200-0416","31743","93","1","1.10","1.4","2023-05-30T09:09:29","120","2023/05/30","09:09:29","-15.817346036434174","34.996982991695404","0.0","16","30","64","82","-24372","-1624","859","9","150","150.16","114.48","35.68","28.69","42.0","14.50","90784","29.56","DUALSPOT-UV-BLUE-GREEN-RED-IR","509659","594721","906843","46.559596","19.026176","0.016934","666033","855581","764687","16.796396","5.696888","-0.015899","804765","883166","816876","9.523642","3.033823","-0.087839","820164","912804","866354","6.147323","1.842904","1.213273","707648","840101","951557","4.191434","1.336516","-0.251918","-577","-1851","-2731","3749","3227","2959","3676","2535","2001","2864","548","-443","3675","2389","1787",""
"MA200-0416","31744","93","1","1.10","1.4","2023-05-30T09:09:59","120","2023/05/30","09:09:59","-15.817342758178711","34.99698168039322","0.0","16","30","64","82","-24708","-1968","1752","9","150","149.59","114.25","35.34","28.83","41.8","14.55","90784","29.75","DUALSPOT-UV-BLUE-GREEN-RED-IR","507266","592496","904150","46.640404","19.058430","0.007062","664286","853998","763537","16.878296","5.721885","-0.001201","802241","880885","814908","9.584335","3.048212","-0.054337","818815","911664","865313","6.186465","1.847994","-0.769571","709339","842390","954214","4.225837","1.344739","-0.118322","4154","5360","6194","5314","5244","5208","4410","3380","2900","3437","1445","596","4206","3250","2804",""
"MA200-0416","31745","93","1","1.10","1.4","2023-05-30T09:10:29","120","2023/05/30","09:10:29","-15.817339539527893","34.99697560071945","0.0","16","30","64","81","-24708","-1856","2740","9","150","149.45","113.88","35.56","28.98","41.5","14.59","90788","29.88","DUALSPOT-UV-BLUE-GREEN-RED-IR","507773","593502","906236","46.833600","19.149730","0.009925","660715","849915","760146","16.991132","5.759586","0.005629","802806","881902","815996","9.654612","3.066308","-0.035836","814022","906620","860612","6.229628","1.854598","-0.425834","705319","837811","949112","4.262142","1.353841","-0.095277","9964","15079","18617","7345","7858","8122","5123","4224","3806","3802","1863","1041","4453","3575","3167",""
"MA200-0416","31746","93","1","1.10","1.4","2023-05-30T09:10:59","120","2023/05/30","09:10:59","-15.81734174489975","34.996969521045685","0.0","16","30","64","82","-24644","-1800","2068","9","150","149.90","113.84","36.05","29.11","41.1","14.54","90784","29.81","DUALSPOT-UV-BLUE-GREEN-RED-IR","507347","594385","909582","47.277872","19.364334","0.009958","660718","851074","761739","17.190204","5.831886","0.010576","798974","878449","813154","9.774691","3.105831","0.005577","816390","909757","863755","6.303173","1.874500","-0.041440","706433","839540","951230","4.322586","1.370911","-0.043584","22921","34962","43315","12963","14866","15843","8757","9101","9261","6481","5538","5139","7416","6614","6241",""
"MA200-0416","31747","93","1","1.10","1.4","2023-05-30T09:11:29","120","2023/05/30","09:11:29","-15.817337393760681","34.99697357416153","0.0","16","30","64","81","-24760","-1619","2228","9","150","150.20","114.47","35.73","29.20","40.7","14.47","90788","29.75","DUALSPOT-UV-BLUE-GREEN-RED-IR","501844","589715","904942","47.776356","19.603298","0.009964","660911","852592","763757","17.411456","5.911220","0.010556","799301","879581","814513","9.903790","3.145980","-0.000550","811943","905365","859772","6.384307","1.897162","-0.027570","707485","841143","953250","4.387670","1.390632","-0.010210","25577","39281","48816","14328","16459","17555","9363","9328","9312","7111","6363","6046","7942","7710","7602",""
"MA200-0416","31748","93","1","1.10","1.4","2023-05-30T09:11:59","120","2023/05/30","09:11:59","-15.817251563072205","34.996972024440765","0.6","16","30","64","81","-24532","-1020","616","9","150","150.06","114.31","35.75","29.30","40.3","14.43","90776","29.69","DUALSPOT-UV-BLUE-GREEN-RED-IR","501250","589344","904798","48.014584","19.717006","0.009823","659794","851627","763157","17.534724","5.955042","0.009776","799576","880299","815333","9.981232","3.170192","-0.000057","818023","912419","866532","6.430674","1.907235","-0.119314","707424","841278","953454","4.425304","1.400807","-0.055917","12240","18680","23167","7994","9086","9648","5624","5622","5621","4069","2826","2302","4599","3975","3686",""
"MA200-0416","31749","93","1","1.10","1.4","2023-05-30T09:12:29","120","2023/05/30","09:12:29","-15.817232191562653","34.99697136878967","0.0","16","30","64","81","-24776","1316","1440","9","150","149.57","114.16","35.40","29.37","40.0","14.36","90776","29.63","DUALSPOT-UV-BLUE-GREEN-RED-IR","503499","591883","908431","47.975216","19.693440","0.012759","660873","853338","764779","17.589198","5.971964","0.000146","800405","881477","816546","10.028364","3.181875","-0.041537","813008","907024","861446","6.460124","1.911061","-0.730272","708829","843091","955576","4.450163","1.406076","-0.193534","-2025","-3909","-5221","3537","3543","3546","3427","2739","2419","2588","1084","452","3041","2079","1634",""
"MA200-0416","31750","93","1","1.10","1.4","2023-05-30T09:12:59","120","2023/05/30","09:12:59","-15.817224085330963","34.99696707725525","0.0","16","30","64","82","-24952","-84","1360","9","150","149.63","113.80","35.83","29.44","39.6","14.28","90776","29.50","DUALSPOT-UV-BLUE-GREEN-RED-IR","504007","592362","908934","47.922040","19.661728","0.012574","660570","853230","764746","17.631500","5.983885","-0.010707","800722","882146","817231","10.071664","3.193664","-0.024490","813199","907444","861889","6.487600","1.915150","-0.457919","709237","843763","956347","4.474016","1.409966","-0.531063","-2744","-5198","-6906","2755","2466","2318","3158","2731","2533","2422","1144","610","2928","1516","867",""
"MA200-0416","31751","93","1","1.10","1.4","2023-05-30T09:13:29","120","2023/05/30","09:13:29","-15.817223250865936","34.996960043907166","0.0","16","30","64","81","-24920","-96","1528","9","150","149.63","113.64","35.99","29.47","39.4","14.21","90780","29.31","DUALSPOT-UV-BLUE-GREEN-RED-IR","505042","593451","910331","47.874752","19.633358","0.012587","660425","853293","764929","17.674494","5.996526","-0.006862","800230","881855","817060","10.112498","3.203606","-0.050564","810930","905125","859750","6.515071","1.920074","-0.245600","708864","843478","956109","4.496294","1.413720","-0.478104","-2443","-4630","-6150","2804","2604","2501","2983","2293","1973","2425","1372","932","2738","1457","869",""
"MA200-0416","31752","93","1","1.10","1.4","2023-05-30T09:13:59","120","2023/05/30","09:13:59","-15.817220866680145","34.99696522951126","0.0","16","30","64","82","-24884","-119","1411","9","150","150.03","114.36","35.67","29.50","39.1","14.14","90780","29.13","DUALSPOT-UV-BLUE-GREEN-RED-IR","500850","588439","902374","47.831128","19.606808","0.012903","659696","852612","764425","17.719662","6.009800","-0.005403","796649","878184","813753","10.154896","3.215074","-0.023743","811132","905600","860220","6.545923","1.925420","-0.259597","705270","839369","951486","4.520439","1.419667","-0.097798","-2240","-4372","-5852","2927","2758","2672","3077","2669","2480","2706","1503","1002","2949","2329","2045",""
"MA200-0416","31753","93","1","1.10","1.4","2023-05-30T09:14:29","120","2023/05/30","09:14:29","-15.817211925983429","34.996954917907715","0.0","16","30","64","81","-24844","-59","1584","9","150","149.99","114.31","35.68","29.52","39.1","14.13","90784","29.06","DUALSPOT-UV-BLUE-GREEN-RED-IR","502263","590821","906747","47.900640","19.627442","-0.001890","654659","848186","761384","17.912122","6.072599","0.003587","795698","879310","815681","10.339729","3.269899","-0.007583","809970","906247","861573","6.696331","1.967310","-0.026877","705170","840623","953483","4.636764","1.451089","-0.052533","3571","3396","3275","12481","13048","13338","13424","12757","12448","13201","11779","11187","14216","12303","11431",""
"MA200-0416","31754","93","1","1.10","1.4","2023-05-30T09:14:59","120","2023/05/30","09:14:59","-15.817218601703644","34.996957182884216","0.0","16","30","64","81","-24816","-192","1288","9","150","150.28","113.84","36.45","29.57","39.0","14.16","90788","29.00","DUALSPOT-UV-BLUE-GREEN-RED-IR","499946","588223","902759","48.046628","19.681194","0.004216","655578","850168","763584","18.225170","6.180263","0.005535","792622","876865","813843","10.662187","3.371405","-0.002366","811637","909027","864614","6.981715","2.053004","-0.013832","702318","837865","950668","4.850239","1.509691","-0.053847","7532","8662","9446","20386","21898","22673","23517","23121","22938","25152","23588","22936","26196","22460","20771",""
"MA200-0416","31755","93","1","1.10","1.4","2023-05-30T09:15:29","120","2023/05/30","09:15:29","-15.817219913005829","34.99695909023285","0.0","16","30","64","81","-24856","-56","1420","9","150","150.49","113.64","36.85","29.61","39.1","14.22","90788","28.94","DUALSPOT-UV-BLUE-GREEN-RED-IR","504108","593098","910159","48.041100","19.672210","0.018145","653928","848450","762242","18.313190","6.208862","0.000173","795072","880066","817000","10.750126","3.398537","-0.007087","809438","906964","862794","7.053146","2.070623","-0.072603","705396","841824","955284","4.903820","1.524355","-0.059607","-285","-1432","-2226","5741","5753","5760","6424","6113","5969","6306","4797","4170","6586","5559","5096",""
"MA200-0416","31756","93","1","1.10","1.4","2023-05-30T09:15:59","120","2023/05/30","09:15:59","-15.817164063453674","34.99691033363342","0.2","16","30","64","81","-24840","-1284","-3876","9","150","149.73","113.96","35.77","29.63","39.2","14.26","90776","28.94","DUALSPOT-UV-BLUE-GREEN-RED-IR","503011","591786","907942","48.006548","19.649788","0.013411","656602","852240","765728","18.357594","6.222057","-0.004761","793711","878829","815958","10.794632","3.411173","-0.015021","807881","905456","861399","7.086924","2.079957","-0.028754","704393","840768","954146","4.927912","1.530592","-0.069194","-1780","-3682","-4999","2888","2734","2656","3242","2933","2790","2973","2618","2470","2953","2435","2202",""
"MA200-0416","31757","93","1","1.10","1.4","2023-05-30T09:16:29","120","2023/05/30","09:16:29","-15.817118048667908","34.9968336224556","1.1","16","30","64","81","-24136","1192","4120","9","150","150.09","113.88","36.21","29.64","39.2","14.30","90784","29.00","DUALSPOT-UV-BLUE-GREEN-RED-IR","503371","592349","908886","48.035472","19.655148","-0.050033","652638","847666","761873","18.457852","6.254942","0.002467","793632","879269","816593","10.875734","3.434641","-0.013931","808613","906567","862575","7.130035","2.089631","-0.100015","704139","840672","954112","4.957365","1.538614","-0.052958","1491","869","438","6526","6732","6837","5912","5380","5134","3797","2680","2216","3612","3094","2861",""
"MA200-0416","31758","93","1","1.10","1.4","2023-05-30T09:16:59","120","2023/05/30","09:16:59","-15.816919684410095","34.99685502052307","1.0","16","30","64","81","-24476","1692","4928","9","150","149.83","113.56","36.27","29.65","39.2","14.31","90772","29.25","DUALSPOT-UV-BLUE-GREEN-RED-IR","501906","590686","906304","48.039356","19.651210","0.024249","651632","846799","761297","18.536458","6.282694","0.007430","791203","877044","814675","10.949329","3.456909","-0.007585","807360","905551","861735","7.183237","2.103263","-0.054003","702484","838948","952240","4.997312","1.550277","-0.028388","200","-637","-1218","5131","5673","5950","5380","5097","4967","4700","3771","3386","4913","4492","4303",""
"MA200-0416","31759","93","1","1.10","1.4","2023-05-30T09:17:29","120","2023/05/30","09:17:29","-15.816929996013641","34.996875405311584","0.1","16","30","64","81","-4588","-26088","-1868","9","150","149.59","113.21","36.38","29.67","39.3","14.37","90780","29.44","DUALSPOT-UV-BLUE-GREEN-RED-IR","500944","589751","904978","48.081112","19.661068","-0.016946","654388","851215","765572","18.662782","6.322916","-0.000756","790193","876748","814710","11.070827","3.493637","-0.008565","805602","904273","860792","7.279986","2.131706","-0.018799","701611","838329","951740","5.064197","1.568543","-0.054903","2166","1591","1193","8272","8196","8157","8909","8381","8138","8573","7844","7541","8253","7013","6457",""
"MA200-0416","31760","93","1","1.10","1.4","2023-05-30T09:17:59","120","2023/05/30","09:17:59","-15.816925585269928","34.99687772989273","0.3","16","30","64","81","-4472","-26016","-2204","9","150","150.03","113.76","36.26","29.71","39.4","14.41","90776","29.50","DUALSPOT-UV-BLUE-GREEN-RED-IR","501552","590695","906653","48.147536","19.689160","0.007393","650646","847017","762174","18.798470","6.370533","0.007044","790259","877493","815733","11.196199","3.533834","0.000751","807151","906600","863228","7.378627","2.158933","-0.031700","702190","839439","953179","5.131553","1.586398","-0.062831","3429","4549","5324","8841","9734","10191","9149","9202","9227","8699","7532","7050","8270","6877","6254",""
"MA200-0416","31761","93","1","1.10","1.4","2023-05-30T09:18:29","120","2023/05/30","09:18:29","-15.816925048828125","34.996881544589996","0.2","16","30","64","81","-4440","-26116","-2216","9","150","149.58","113.67","35.91","29.74","39.4","14.45","90780","29.50","DUALSPOT-UV-BLUE-GREEN-RED-IR","500279","589408","904849","48.198368","19.706504","0.002480","648742","845179","760875","18.919800","6.413849","0.008695","787972","875673","814381","11.310310","3.571207","0.004511","804046","903708","860735","7.469938","2.187114","-0.004494","699990","837169","950797","5.193310","1.604468","-0.022985","2626","2837","2983","7912","8942","9470","8334","8640","8782","8058","7873","7797","7589","7030","6779",""
"MA200-0416","31762","93","1","1.10","1.4","2023-05-30T09:18:59","120","2023/05/30","09:18:59","-15.816924035549164","34.99687188863754","0.0","16","30","64","81","-4532","-26096","-2628","9","150","150.56","113.64","36.91","29.75","39.3","14.45","90780","29.44","DUALSPOT-UV-BLUE-GREEN-RED-IR","500247","589516","905197","48.249080","19.725872","0.004750","652366","850596","766085","19.041838","6.457020","0.006238","787747","876064","814994","11.421679","3.607535","0.000544","804652","904906","862111","7.558166","2.214521","-0.008710","700512","838156","952071","5.254253","1.621758","-0.042645","2621","3081","3400","7960","8670","9033","8136","8170","8186","7788","7448","7307","7491","6543","6120",""
"MA200-0416","31763","93","1","1.10","1.4","2023-05-30T09:19:29","120","2023/05/30","09:19:29","-15.816912233829498","34.996878027915955","0.1","17","30","64","80","-4492","-26034","-2596","9","150","149.83","113.56","36.27","29.76","39.3","14.44","90780","29.44","DUALSPOT-UV-BLUE-GREEN-RED-IR","499091","588402","903678","48.306408","19.746738","0.003960","650403","848778","764806","19.170988","6.503357","0.008216","786318","875244","814572","11.545962","3.647822","0.001871","803263","903991","861504","7.657657","2.244442","-0.011720","699091","836901","950822","5.324686","1.639686","-0.077899","2964","3379","3666","8430","9472","10006","9085","9223","9286","8789","8277","8065","8663","6905","6123",""
"MA200-0416","31764","93","1","1.10","1.4","2023-05-30T09:19:59","120","2023/05/30","09:19:59","-15.81692236661911","34.99685221910477","0.1","17","30","64","80","-4454","-26000","-2733","9","150","149.91","113.42","36.49","29.77","39.3","14.45","90780","29.38","DUALSPOT-UV-BLUE-GREEN-RED-IR","501632","591619","908869","48.371884","19.771678","0.004906","647319","845506","762217","19.308362","6.551302","0.005892","786913","876628","816232","11.676667","3.690011","0.000404","805369","907064","864663","7.763106","2.275889","-0.014849","700701","839292","953712","5.397173","1.659190","-0.057349","3390","4014","4445","8978","9740","10131","9567","9598","9612","9327","8646","8363","8928","7466","6817",""
"MA200-0416","31765","93","1","1.10","1.4","2023-05-30T09:20:29","120","2023/05/30","09:20:29","-15.81693297624588","34.99687021970749","0.4","17","30","64","81","-3492","-26212","-2304","9","150","149.96","113.52","36.44","29.77","39.3","14.44","0","0.00","DUALSPOT-UV-BLUE-GREEN-RED-IR","501242","591410","908705","48.433416","19.794300","0.004075","646779","845514","762566","19.439180","6.596918","0.005949","785794","876140","816095","11.799819","3.729832","0.000913","804384","906578","864463","7.863647","2.306121","-0.012482","700261","839198","953767","5.465641","1.677138","-0.065765","3183","3646","3966","8542","9280","9659","9006","9073","9104","8885","8324","8091","8425","6881","6197",""
"MA200-0416","31766","93","1","1.10","1.4","2023-05-30T09:20:59","120","2023/05/30","09:20:59","-15.816713392734528","34.99685925245285","1.7","17","30","64","80","-6104","-26032","-3716","9","150","149.72","113.77","35.95","29.77","39.2","14.43","0","0.00","DUALSPOT-UV-BLUE-GREEN-RED-IR","499281","589263","905577","48.481080","19.811776","0.004400","648132","847902","764997","19.555904","6.636543","0.005178","783574","874299","814622","11.906581","3.763754","0.000682","800455","902666","860971","7.949146","2.331668","-0.010477","698209","837063","951502","5.524345","1.693007","-0.047616","2460","2855","3128","7605","8171","8462","7790","7834","7854","7539","7130","6960","7208","6167","5707",""
"MA200-0416","31767","93","1","1.10","1.4","2023-05-30T09:21:29","120","2023/05/30","09:21:29","-15.81457406282425","34.99779051542282","13.4","17","30","64","81","-4023","-25980","-4144","9","150","149.96","113.92","36.04","29.76","39.1","14.35","90728","29.25","DUALSPOT-UV-BLUE-GREEN-RED-IR","499844","590126","907158","48.535104","19.835816","0.008396","644346","843508","761411","19.668750","6.681913","0.014792","783619","874906","815509","12.010479","3.802115","0.016360","800563","903248","861775","8.028907","2.359938","0.018146","698504","837776","952466","5.581491","1.708929","-0.037201","2785","3917","4700","7343","9332","10356","7571","8837","9423","7024","7870","8222","7007","6171","5802",""
"MA200-0416","31768","93","1","1.10","1.4","2023-05-30T09:21:59","120","2023/05/30","09:21:59","-15.810983419418335","34.99997317790985","20.7","17","30","64","81","-9515","-25592","-5411","9","150","150.40","113.35","37.05","29.75","38.8","14.25","90608","29.19","DUALSPOT-UV-BLUE-GREEN-RED-IR","498470","588668","905047","48.579880","19.853286","0.005076","646574","847050","764895","19.774926","6.720937","0.008012","781673","873306","814302","12.108787","3.835654","0.004954","804539","908205","866687","8.103775","2.384287","-0.000914","697064","836338","950966","5.631902","1.723010","-0.047126","2320","2769","3079","6944","7807","8251","7200","7514","7660","6626","6592","6578","6213","5308","4909",""
"MA200-0416","31769","93","1","1.10","1.4","2023-05-30T09:22:29","120","2023/05/30","09:22:29","-15.80787467956543","35.00112733314745","11.5","17","30","64","80","-2396","-26008","-4408","9","150","149.50","113.29","36.21","29.74","38.6","14.16","90636","29.13","DUALSPOT-UV-BLUE-GREEN-RED-IR","500883","591814","910191","48.657448","19.883674","0.005679","643508","843781","762302","19.910366","6.768615","0.006693","782536","875063","816274","12.234810","3.875989","0.000175","800096","903874","862807","8.201534","2.413141","-0.014809","698863","838903","954048","5.697946","1.741242","-0.042818","4021","4929","5557","8862","9762","10225","9235","9248","9255","8657","7995","7719","8143","7034","6546",""
"MA200-0416","31770","93","1","1.10","1.4","2023-05-30T09:22:59","120","2023/05/30","09:22:59","-15.805334508419037","35.001889333245344","8.2","17","30","64","80","-3258","-25795","-4487","9","150","150.36","113.05","37.31","29.73","38.4","14.07","90516","29.13","DUALSPOT-UV-BLUE-GREEN-RED-IR","495286","585791","901478","48.802512","19.938274","0.003931","641885","843021","762301","20.136266","6.847770","0.004243","782179","876057","817815","12.445067","3.943103","-0.004060","799468","904371","863845","8.376533","2.467542","-0.010720","698915","839831","955527","5.821281","1.777499","-0.032080","7537","8595","9326","14813","15727","16197","15441","14934","14698","15530","14628","14251","15240","13574","12842",""
"MA200-0416","31771","93","1","1.10","1.4","2023-05-30T09:23:29","120","2023/05/30","09:23:29","-15.802946150302887","35.00235449941829","10.6","17","30","64","80","-4003","-25753","-4200","9","150","149.46","113.19","36.27","29.71","38.3","13.98","90460","29.06","DUALSPOT-UV-BLUE-GREEN-RED-IR","497848","589917","908988","49.087704","20.052196","0.005993","638325","840704","761326","20.531458","6.985361","0.005642","777796","873525","816597","12.822091","4.067886","0.003573","796458","903142","863607","8.695854","2.566283","-0.006022","696417","838315","954468","6.047359","1.841367","-0.033940","14799","18447","20966","25882","28120","29273","27654","28560","28981","28303","27310","26895","27901","24597","23150",""
"MA200-0416","31772","93","1","1.10","1.4","2023-05-30T09:23:59","120","2023/05/30","09:23:59","-15.79974776506424","35.002735832938924","12.7","17","30","64","80","-2903","-25992","-5230","9","150","150.70","113.94","36.76","29.70","38.2","13.95","90520","29.06","DUALSPOT-UV-BLUE-GREEN-RED-IR","496221","589165","909025","49.403960","20.180908","0.006205","639017","844133","765707","20.973410","7.142431","0.006366","774976","872951","817259","13.246177","4.210037","0.004080","792159","900575","862193","9.060186","2.683633","-0.000256","694321","837384","954161","6.308517","1.917717","-0.024699","16303","20566","23510","28754","31676","33185","30901","32105","32666","32080","32028","32006","32019","29014","27702",""
"MA200-0416","31773","93","1","1.10","1.4","2023-05-30T09:24:29","120","2023/05/30","09:24:29","-15.796743392944336","35.00334583315998","10.1","17","30","64","80","568","-26391","-5372","9","150","149.63","113.37","36.27","29.66","38.2","13.89","90636","29.00","DUALSPOT-UV-BLUE-GREEN-RED-IR","493599","587594","908372","49.883504","20.382744","0.006977","635011","842160","765628","21.620402","7.375950","0.007537","769312","870037","816154","13.875288","4.418451","0.003576","786533","897382","860555","9.606175","2.856284","-0.001734","690813","835388","952968","6.701504","2.035390","-0.015097","24845","32689","38108","42308","47735","50544","46072","47712","48478","48319","47763","47527","48425","45327","43976",""
"MA200-0416","31774","93","1","1.10","1.4","2023-05-30T09:24:59","120","2023/05/30","09:24:59","-15.7962366938591","35.003421999746934","1.0","17","30","64","80","-3948","-26013","-5202","9","150","149.94","113.42","36.52","29.64","38.1","13.85","90724","29.00","DUALSPOT-UV-BLUE-GREEN-RED-IR","489839","585020","906496","50.358936","20.580024","0.006515","629327","838555","764319","22.254274","7.599468","0.005675","762462","866369","814620","14.484529","4.619473","0.002424","786787","901490","866122","10.134168","3.021532","-0.004094","687041","833447","951957","7.083790","2.146525","-0.022851","24621","31730","36644","41431","45374","47419","44596","45702","46219","46704","45399","44844","47085","42513","40525",""
"MA200-0416","31775","93","1","1.10","1.4","2023-05-30T09:25:29","120","2023/05/30","09:25:29","-15.796170890331268","35.003167166840285","1.3","17","30","68","80","-4288","-25668","-5288","10","150","149.57","114.32","35.25","29.66","38.0","13.84","90696","29.19","DUALSPOT-UV-BLUE-GREEN-RED-IR","841631","726041","907343","0.000000","0.000000","0.000000","797095","908060","763592","0.000000","0.000000","0.000000","895533","915737","818034","0.000000","0.000000","0.000000","879065","933249","864670","0.000000","0.000000","0.000000","745718","857613","955431","0.000000","0.000000","0.000000","0","0","0","0","0","0","0","0","0","0","0","0","0","0","0","Tape advance"
"MA200-0416","31776","93","1","1.10","1.4","2023-05-30T09:25:59","120","2023/05/30","09:25:59","-15.796117186546326","35.00287366635166","0.4","17","30","68","80","-4476","-25803","-5784","10","150","149.57","114.56","35.01","29.64","38.0","13.83","90684","29.13","DUALSPOT-UV-BLUE-GREEN-RED-IR","833947","722528","904515","0.000000","0.000000","0.000000","791342","904410","761631","0.000000","0.000000","0.000000","890328","912898","816493","0.000000","0.000000","0.000000","874296","930280","862778","0.000000","0.000000","0.000000","742871","855795","954051","0.000000","0.000000","0.000000","","","","","","","","","","","","","","","","Tape advance"
"MA200-0416","31777","93","1","1.10","1.4","2023-05-30T09:26:29","120","2023/05/30","09:26:29","-15.796075999736786","35.00290499976836","0.3","17","30","64","80","-4512","-25576","-5836","10","150","150.04","114.81","35.23","29.62","38.0","13.81","90688","29.06","DUALSPOT-UV-BLUE-GREEN-RED-IR","830193","722173","905650","0.606367","0.177886","0.000000","788482","903879","762160","0.465339","0.141208","0.000000","887807","912669","817190","0.393641","0.118429","0.000000","872587","930362","863657","0.319492","0.097632","0.000000","742048","856150","955034","0.228868","0.064907","0.000000","31021","29654","31021","30047","29710","30047","28465","27906","28465","27919","27800","27919","27847","25734","27847",""
"MA200-0416","31778","93","1","1.10","1.4","2023-05-30T09:26:59","120","2023/05/30","09:26:59","-15.796068847179413","35.00288399984129","0.3","17","30","64","79","-4748","-25647","-5212","10","150","149.09","114.88","34.21","29.61","38.0","13.79","90688","29.00","DUALSPOT-UV-BLUE-GREEN-RED-IR","828904","723188","908060","1.061065","0.313938","0.000000","787951","905294","764142","0.813299","0.248580","0.000000","883523","909957","815468","0.688183","0.210303","0.000000","866812","925628","859865","0.557476","0.171720","0.000000","738790","853355","952326","0.398580","0.113384","0.000000","23248","23359","23248","22454","23267","22454","21286","22296","21286","20784","21728","20784","20637","19795","20637",""
"MA200-0416","31779","93","1","1.10","1.4","2023-05-30T09:27:29","120","2023/05/30","09:27:29","-15.795920014381409","35.00287766638212","0.8","17","30","64","80","636","-25991","-7292","10","150","149.91","114.59","35.32","29.59","38.0","13.76","90692","29.00","DUALSPOT-UV-BLUE-GREEN-RED-IR","821840","718790","903450","1.386591","0.410842","0.000000","787686","906657","765898","1.062250","0.323469","0.000000","882149","909959","816018","0.898909","0.274610","0.000000","866971","926982","861576","0.727659","0.223332","0.000000","738454","853753","953126","0.519092","0.146727","0.000000","16686","16113","16686","16106","15716","16106","15268","15114","15268","14900","14658","14900","14692","13186","14692",""
"MA200-0416","31780","93","1","1.10","1.4","2023-05-30T09:27:59","120","2023/05/30","09:27:59","-15.795923292636871","35.00286849960685","0.0","17","30","64","80","-3352","-26084","-5416","10","150","149.92","114.92","35.01","29.58","38.0","13.76","90688","28.94","DUALSPOT-UV-BLUE-GREEN-RED-IR","824064","722802","909605","1.773834","0.525358","0.000000","779739","899492","760583","1.361054","0.415742","0.000000","879152","908577","815457","1.151943","0.352222","0.000000","863547","924743","860055","0.932216","0.285971","0.000000","736827","852811","952493","0.663389","0.188187","0.000000","19792","19213","19792","19276","19540","19276","18280","18406","18280","17859","17951","17859","17541","16544","17541",""
"MA200-0416","31781","93","1","1.10","1.4","2023-05-30T09:28:29","120","2023/05/30","09:28:29","-15.795861899852753","35.00285849976353","1.0","17","30","64","80","-3932","-25972","-5060","10","150","150.01","114.75","35.25","29.57","38.0","13.77","90692","28.94","DUALSPOT-UV-BLUE-GREEN-RED-IR","819784","721380","909052","2.285415","0.676078","0.000000","781429","903664","764946","1.757502","0.536161","0.000000","876378","907611","815334","1.489132","0.453145","0.000000","867228","930264","865850","1.207530","0.368780","0.000000","735747","852644","952771","0.859712","0.243478","0.000000","26185","25111","26185","25611","25321","25611","24395","23767","24395","24070","23566","24070","23899","21909","23899",""
"MA200-0416","31782","93","1","1.10","1.4","2023-05-30T09:28:59","120","2023/05/30","09:28:59","-15.79568636417389","35.002896833233535","0.1","17","30","64","80","-3132","-26119","-5236","10","150","149.80","114.80","34.99","29.54","38.0","13.75","90688","28.94","DUALSPOT-UV-BLUE-GREEN-RED-IR","816026","719553","907578","2.587203","0.769426","0.000000","778800","902018","764112","1.988935","0.609838","0.000000","874789","907155","815401","1.684856","0.515640","0.000000","865869","929770","865834","1.366633","0.419843","0.000000","734725","852112","952499","0.973609","0.276878","0.000000","15440","15667","15440","14944","15607","14944","14154","14826","14154","13904","14639","13904","13859","13332","13859",""
"MA200-0416","31783","93","1","1.10","1.4","2023-05-30T09:29:29","120","2023/05/30","09:29:29","-15.795699000358582","35.002899332903326","0.0","17","30","64","80","-3084","-26119","-4924","10","150","149.51","114.88","34.63","29.53","38.1","13.75","90684","28.88","DUALSPOT-UV-BLUE-GREEN-RED-IR","814575","719717","908599","2.847544","0.851366","0.000000","777300","901664","764328","2.185338","0.672452","0.000000","872360","905805","814693","1.851916","0.568563","0.000000","864055","928793","865318","1.499576","0.461656","0.000000","733574","851429","952001","1.067863","0.304626","0.000000","13311","13898","13311","12674","13404","12674","12073","12688","12073","11610","12114","11610","11461","11193","11461",""
"MA200-0416","31784","93","1","1.10","1.4","2023-05-30T09:29:59","120","2023/05/30","09:29:59","-15.795709192752838","35.00291366642341","0.0","17","30","64","80","-3060","-25991","-5156","10","150","149.93","115.02","34.90","29.52","38.2","13.78","90688","28.88","DUALSPOT-UV-BLUE-GREEN-RED-IR","807656","715466","904254","3.246218","0.972305","-0.000123","772213","897526","761519","2.492976","0.766819","0.000000","868371","903169","812921","2.110756","0.648445","0.000000","860463","926186","863416","1.711082","0.526958","0.000000","731201","849501","950270","1.217449","0.347419","0.000000","20358","20352","20349","19827","20043","19827","18682","19001","18682","18448","18771","18448","18167","17127","18167",""
"MA200-0416","31785","93","1","1.10","1.4","2023-05-30T09:30:29","120","2023/05/30","09:30:29","-15.79570984840393","35.0029161660932","0.1","17","30","64","80","-3064","-26140","-4452","10","150","150.14","114.79","35.35","29.51","38.3","13.81","90688","28.88","DUALSPOT-UV-BLUE-GREEN-RED-IR","807346","716668","906606","3.531577","1.058754","-0.006728","772123","898876","763185","2.710688","0.834215","0.000000","867522","903511","813708","2.294982","0.704240","0.000000","859868","926569","864200","1.860913","0.571686","0.000000","730746","849693","950750","1.323799","0.376384","0.000000","14600","14363","14261","14059","14133","14059","13323","13103","13323","13095","12693","13095","12941","11446","12941",""
"MA200-0416","31786","93","1","1.10","1.4","2023-05-30T09:30:59","120","2023/05/30","09:30:59","-15.795722663402557","35.00289766630158","0.2","17","30","64","79","-3080","-25956","-5496","10","150","150.43","114.80","35.63","29.50","38.4","13.85","90692","28.88","DUALSPOT-UV-BLUE-GREEN-RED-IR","811215","721683","913813","3.852120","1.156774","-0.005562","770461","898410","763371","2.956456","0.910265","0.000000","865979","903142","813889","2.504247","0.768631","0.000000","857849","925445","863561","2.029769","0.623655","0.000000","729938","849452","950806","1.442293","0.410110","0.000000","16400","16159","16056","15870","15824","15870","15134","15005","15134","14757","14634","14757","14419","13223","14419",""
"MA200-0416","31787","93","1","1.10","1.4","2023-05-30T09:31:29","120","2023/05/30","09:31:29","-15.795722424983978","35.00288383313455","0.2","17","30","64","79","-3060","-25975","-5492","10","150","150.30","114.80","35.50","29.49","38.5","13.88","90692","28.88","DUALSPOT-UV-BLUE-GREEN-RED-IR","801806","714555","905496","4.112781","1.238323","0.004005","768403","897163","762753","3.152156","0.972579","0.013069","868530","906798","817607","2.667379","0.820535","0.000000","855990","924258","862798","2.160868","0.664764","0.000000","733285","853890","956055","1.535425","0.437504","0.000000","13336","13492","13559","12637","13012","13180","11797","12138","11797","11457","11617","11457","11332","10779","11332",""
"MA200-0416","31788","93","1","1.10","1.4","2023-05-30T09:31:59","120","2023/05/30","09:31:59","-15.795713484287262","35.002858832944185","0.0","17","30","64","79","-3084","-26047","-5624","10","150","150.01","114.64","35.36","29.48","38.5","13.89","90688","28.81","DUALSPOT-UV-BLUE-GREEN-RED-IR","800806","714698","906284","4.330834","1.304777","-0.004026","767301","896822","762843","3.311681","1.022815","0.008870","863533","902387","813953","2.802211","0.862068","0.000000","855861","924772","863607","2.270273","0.698656","0.000000","728690","848976","950713","1.612527","0.459862","0.000000","11171","11037","10980","10315","10531","10627","9764","9750","9764","9574","9615","9574","9395","8832","9395",""
"MA200-0416","31789","93","1","1.10","1.4","2023-05-30T09:32:29","120","2023/05/30","09:32:29","-15.795699119567871","35.00287149939686","0.2","17","30","64","79","-3038","-26065","-5134","10","150","149.94","114.71","35.23","29.47","38.6","13.89","90692","28.81","DUALSPOT-UV-BLUE-GREEN-RED-IR","803199","717676","910596","4.514729","1.364572","0.017226","764603","894438","761128","3.446143","1.066684","0.024054","865361","904975","816544","2.915746","0.897944","0.000000","852204","921363","860633","2.361704","0.727874","0.000000","731285","852316","954646","1.676000","0.478246","0.000000","9416","9970","10210","8689","9232","9475","8217","8455","8217","7996","8321","7996","7729","7290","7729",""
"MA200-0416","31790","93","1","1.10","1.4","2023-05-30T09:32:59","120","2023/05/30","09:32:59","-15.79573404788971","35.0028869996313","0.2","17","30","64","79","-3124","-25968","-5284","10","150","150.23","114.44","35.79","29.47","38.6","13.90","90688","28.81","DUALSPOT-UV-BLUE-GREEN-RED-IR","797140","713152","905348","4.687134","1.418006","-0.002755","764914","895590","762430","3.572553","1.106554","0.003437","865374","905700","817483","3.021568","0.931251","0.003078","853838","923681","863050","2.446026","0.754326","0.000000","727347","848137","950143","1.734478","0.495269","0.000000","8848","8770","8735","8188","8258","8290","7677","7726","7749","7392","7415","7392","7138","6645","7138",""
"MA200-0416","31791","93","1","1.10","1.4","2023-05-30T09:33:29","120","2023/05/30","09:33:29","-15.795749306678772","35.002899166196585","0.3","17","30","64","79","-3068","-25984","-5284","10","150","149.51","114.24","35.26","29.47","38.6","13.92","90692","28.81","DUALSPOT-UV-BLUE-GREEN-RED-IR","795812","712713","905203","4.842102","1.468484","0.015166","763788","894953","762162","3.686529","1.142847","0.011862","864544","905399","817473","3.115982","0.961852","0.021632","852881","923141","862730","2.521942","0.778335","0.000000","731412","853207","955949","1.788522","0.511844","0.000000","7967","8407","8599","7396","7629","7734","6861","7204","7357","6667","6830","6667","6608","6565","6608",""
"MA200-0416","31792","93","1","1.10","1.4","2023-05-30T09:33:59","120","2023/05/30","09:33:59","-15.795691847801208","35.00290766637772","0.3","17","30","64","79","-3124","-26100","-5464","10","150","149.61","114.42","35.19","29.46","38.7","13.93","90688","28.81","DUALSPOT-UV-BLUE-GREEN-RED-IR","792549","710508","902870","4.993688","1.514898","-0.001243","760857","892168","760055","3.795576","1.176864","0.005410","858330","899404","812265","3.208053","0.990469","0.004775","850416","920908","860844","2.595395","0.801676","0.000000","725836","846960","949085","1.837764","0.524518","0.000000","7781","7747","7733","7065","7167","7213","6680","6752","6784","6440","6655","6440","6011","5032","6011",""
"MA200-0416","31793","93","1","1.10","1.4","2023-05-30T09:34:29","120","2023/05/30","09:34:29","-15.795670211315155","35.002921166364104","0.0","17","30","64","79","-3170","-26058","-5454","10","150","149.70","114.28","35.42","29.46","38.7","13.93","90692","28.81","DUALSPOT-UV-BLUE-GREEN-RED-IR","793288","711788","904873","5.129287","1.559362","0.015015","761903","893981","761803","3.890055","1.207113","0.011761","863605","905414","817919","3.287476","1.016110","0.017324","852686","923756","863651","2.658941","0.822013","0.000000","726966","848561","950984","1.881559","0.538212","0.000000","6969","7373","7550","6128","6331","6422","5769","6010","6118","5578","5760","5578","5353","5401","5353",""
"MA200-0416","31794","93","1","1.10","1.4","2023-05-30T09:34:59","120","2023/05/30","09:34:59","-15.795679688453674","35.00290833320469","0.4","17","30","64","79","-3200","-26068","-5284","10","150","150.56","114.60","35.96","29.44","38.8","13.94","90688","28.81","DUALSPOT-UV-BLUE-GREEN-RED-IR","792000","711331","904654","5.270021","1.604057","0.003251","761313","893884","761990","3.991696","1.239734","0.008036","862303","904598","817395","3.372019","1.041770","-0.014743","851546","922954","863085","2.726912","0.841760","0.000000","730340","852784","955828","1.927358","0.552095","0.000000","7213","7300","7338","6575","6725","6792","6124","5924","5834","5950","5509","5950","5582","5393","5582",""
"MA200-0416","31795","93","1","1.10","1.4","2023-05-30T09:35:29","120","2023/05/30","09:35:29","-15.795713007450104","35.00289499992505","0.2","17","30","64","79","-3056","-25975","-5352","10","150","149.51","114.12","35.38","29.44","38.8","13.95","90688","28.81","DUALSPOT-UV-BLUE-GREEN-RED-IR","789071","709288","902406","5.391690","1.642345","0.003904","759004","891749","760345","4.078069","1.266462","-0.000713","860000","902647","815796","3.445619","1.064366","-0.004175","848310","919791","860306","2.784775","0.860750","0.000000","724254","845928","948264","1.968540","0.562690","0.000000","6262","6355","6396","5610","5599","5594","5354","5301","5278","5086","5384","5086","5041","4183","5041",""
"MA200-0416","31796","93","1","1.10","1.4","2023-05-30T09:35:59","120","2023/05/30","09:35:59","-15.795718491077423","35.002894499571994","0.3","17","30","64","79","-3004","-25947","-5088","10","150","150.35","114.59","35.77","29.44","38.9","13.98","90684","28.81","DUALSPOT-UV-BLUE-GREEN-RED-IR","789653","710405","904214","5.517335","1.681755","0.001258","759514","892873","761503","4.168233","1.295358","0.008957","860994","904143","817351","3.520393","1.087672","-0.000604","851165","923301","863714","2.843422","0.878345","0.000000","725674","847795","950480","2.007175","0.574758","0.000000","6440","6471","6485","5833","5989","6059","5417","5409","5406","5134","4935","5134","4710","4713","4710",""
"MA200-0416","31797","93","1","1.10","1.4","2023-05-30T09:36:29","120","2023/05/30","09:36:29","-15.795710682868958","35.00289649958722","0.2","17","30","64","79","-3036","-25944","-4860","10","150","149.63","114.56","35.07","29.43","39.0","14.01","90688","28.81","DUALSPOT-UV-BLUE-GREEN-RED-IR","789136","710550","904751","5.643488","1.723335","0.017598","759462","893364","762136","4.258657","1.323139","0.001196","860456","904028","817423","3.595096","1.111650","0.018226","850388","922823","863448","2.903470","0.897467","0.000000","725570","847985","950799","2.050169","0.586759","0.000000","6468","6963","7181","5851","5872","5881","5413","5676","5793","5258","5469","5258","5242","4780","5242",""
"MA200-0416","31798","93","1","1.10","1.4","2023-05-30T09:36:59","120","2023/05/30","09:36:59","-15.795722305774689","35.002867666305974","0.2","17","30","64","78","-3096","-26003","-5344","10","150","150.32","114.67","35.65","29.44","39.1","14.06","90688","28.81","DUALSPOT-UV-BLUE-GREEN-RED-IR","786265","708535","902531","5.763468","1.761074","0.002896","757134","891127","760456","4.344399","1.350486","0.008350","858638","902574","816308","3.665775","1.133865","0.004287","847980","920546","861488","2.960515","0.915199","0.000000","724080","846453","949180","2.089523","0.597292","0.000000","6145","6217","6249","5543","5686","5751","5117","5173","5198","4990","4990","4990","4794","4127","4794",""
"MA200-0416","31799","93","1","1.10","1.4","2023-05-30T09:37:29","120","2023/05/30","09:37:29","-15.795717656612396","35.00292266625911","0.1","17","30","64","79","-3096","-25991","-5380","10","150","149.96","114.52","35.44","29.44","39.2","14.11","90688","28.81","DUALSPOT-UV-BLUE-GREEN-RED-IR","781349","704662","897909","5.878621","1.797203","0.003302","758032","892672","761953","4.424714","1.375335","-0.000096","859719","904130","817872","3.734309","1.154417","-0.012610","850154","923290","864165","3.014296","0.931602","-0.007125","725181","847960","950975","2.126325","0.608120","0.000000","5906","5987","6023","5199","5197","5196","4968","4814","4745","4711","4643","4612","4489","4267","4489",""
"MA200-0416","31800","93","1","1.10","1.4","2023-05-30T09:37:59","120","2023/05/30","09:37:59","-15.79573529958725","35.00285766622983","0.2","17","30","64","78","-3056","-26044","-5156","10","150","150.09","114.56","35.54","29.43","39.3","14.13","90684","28.81","DUALSPOT-UV-BLUE-GREEN-RED-IR","787161","710438","905626","5.993793","1.834438","0.009576","757751","892829","762296","4.507145","1.401948","0.012411","858973","903756","817710","3.801310","1.175314","0.002081","848747","922070","863202","3.069453","0.948762","0.001391","724631","847533","950622","2.161859","0.617692","0.000000","5905","6154","6264","5334","5551","5650","4855","4882","4894","4830","4844","4851","4333","3762","4333",""
"MA200-0416","31801","93","1","1.10","1.4","2023-05-30T09:38:29","120","2023/05/30","09:38:29","-15.795710682868958","35.002881499705836","0.1","17","30","64","78","-3108","-26112","-5100","10","150","150.33","114.00","36.33","29.44","39.4","14.18","90684","28.81","DUALSPOT-UV-BLUE-GREEN-RED-IR","784041","708170","903057","6.106713","1.870166","-0.001683","755103","890188","760254","4.587628","1.427311","-0.003562","857084","902156","816443","3.868097","1.195830","-0.014221","847237","920789","862126","3.123063","0.965380","-0.013140","727833","851498","955140","2.199791","0.629205","0.000000","5817","5776","5758","5233","5175","5149","4863","4688","4610","4717","4589","4531","4648","4427","4648",""
"MA200-0416","31802","93","1","1.10","1.4","2023-05-30T09:38:59","120","2023/05/30","09:38:59","-15.795700013637543","35.00288949953392","0.1","17","30","64","78","-3136","-25975","-5464","10","150","149.39","114.32","35.07","29.44","39.3","14.16","90688","28.88","DUALSPOT-UV-BLUE-GREEN-RED-IR","785595","710026","905699","6.202486","1.902380","0.019712","757220","893053","762855","4.649656","1.447904","0.022971","857608","903011","817356","3.919608","1.212985","0.028184","848764","922690","864006","3.163523","0.977802","0.000417","724210","847423","950666","2.227356","0.637978","0.000000","4920","5395","5606","4022","4353","4503","3740","4061","4205","3550","3554","3555","3368","3494","3368",""
"MA200-0416","31803","93","1","1.10","1.4","2023-05-30T09:39:29","120","2023/05/30","09:39:29","-15.795697450637817","35.00289766630158","0.2","17","30","64","79","-3144","-25991","-5340","10","150","150.11","114.50","35.61","29.44","39.4","14.18","90684","28.81","DUALSPOT-UV-BLUE-GREEN-RED-IR","785139","710063","906035","6.296740","1.933149","0.010585","756789","892993","762933","4.716313","1.467914","-0.011325","857319","903076","817563","3.973120","1.229476","-0.003411","848345","922562","863995","3.204813","0.989842","-0.031047","724062","847419","950707","2.255310","0.645534","0.000000","4835","5074","5180","4315","4165","4097","3880","3844","3828","3618","3391","3290","3410","2963","3410",""
"MA200-0416","31804","93","1","1.10","1.4","2023-05-30T09:39:59","120","2023/05/30","09:39:59","-15.79571545124054","35.002910499693826","0.0","17","30","64","78","-3124","-26044","-5232","10","150","149.76","114.36","35.40","29.44","39.5","14.23","90684","28.88","DUALSPOT-UV-BLUE-GREEN-RED-IR","784339","709855","906069","6.400925","1.966934","0.010020","756250","892773","762933","4.788197","1.491249","0.013757","856858","902958","817576","4.034144","1.248252","-0.002217","848266","922742","864284","3.252629","1.004827","0.005363","724008","847562","950962","2.288620","0.655204","0.000000","5351","5605","5717","4659","4886","4988","4430","4403","4390","4194","4246","4269","4068","3815","4068",""
"MA200-0416","31805","93","1","1.10","1.4","2023-05-30T09:40:29","120","2023/05/30","09:40:29","-15.795722663402557","35.00289849960245","0.1","17","30","64","78","-3076","-26068","-5136","10","150","150.16","114.20","35.96","29.44","39.6","14.27","90684","28.81","DUALSPOT-UV-BLUE-GREEN-RED-IR","782436","708596","904802","6.501735","2.001905","0.019706","754656","891312","761847","4.858220","1.514692","0.017326","851313","897440","812746","4.091895","1.268113","0.028791","846098","920678","862483","3.298487","1.019019","-0.007715","723029","846573","949992","2.320032","0.665143","0.000000","5184","5712","5946","4545","4832","4963","4198","4585","4759","4028","3959","3928","3842","3860","3842",""
"MA200-0416","31806","93","1","1.10","1.4","2023-05-30T09:40:59","120","2023/05/30","09:40:59","-15.795712351799011","35.00288883293979","0.1","17","30","64","78","-3012","-25863","-5124","10","150","150.29","114.56","35.73","29.45","39.7","14.32","90684","28.88","DUALSPOT-UV-BLUE-GREEN-RED-IR","783591","710090","906969","6.598205","2.032959","0.006695","755676","892936","763373","4.923680","1.536476","0.018003","852680","899246","814506","4.145986","1.283616","-0.032136","847785","922774","864576","3.341207","1.031631","-0.025109","724325","848266","951947","2.348478","0.673397","0.000000","4946","5104","5174","4236","4519","4648","3920","3601","3459","3741","3541","3451","3468","3226","3468",""
"MA200-0416","31807","93","1","1.10","1.4","2023-05-30T09:41:29","120","2023/05/30","09:41:29","-15.795734465122223","35.00288533302955","0.0","17","30","64","78","-3096","-25991","-5280","10","150","149.51","114.32","35.19","29.45","39.8","14.35","90680","28.88","DUALSPOT-UV-BLUE-GREEN-RED-IR","783504","710463","907699","6.691176","2.062654","0.007741","755525","893133","763714","4.987965","1.555490","-0.012038","851914","898751","814200","4.199451","1.300877","0.015781","847866","923088","864991","3.382727","1.045507","0.032664","723977","848042","951790","2.378637","0.681276","0.000000","4776","4957","5037","4168","4006","3932","3882","4073","4158","3643","3956","4096","3685","3128","3685",""
"MA200-0416","31808","93","1","1.10","1.4","2023-05-30T09:41:59","120","2023/05/30","09:41:59","-15.795720160007477","35.00287783285603","0.1","17","30","64","78","-3044","-25984","-5316","10","150","149.73","114.25","35.48","29.45","39.8","14.37","90680","28.88","DUALSPOT-UV-BLUE-GREEN-RED-IR","780943","708545","905552","6.782023","2.093893","0.019826","753227","890747","761859","5.049327","1.577497","0.036424","850944","897995","813674","4.248727","1.316363","0.004056","846663","922050","864118","3.422891","1.057493","-0.017425","723354","847471","951207","2.405340","0.688568","0.000000","4670","5171","5395","3981","4598","4878","3580","3623","3643","3526","3389","3328","3264","2871","3264",""
"MA200-0416","31809","93","1","1.10","1.4","2023-05-30T09:42:29","120","2023/05/30","09:42:29","-15.795711636543274","35.00287616625428","0.1","17","30","64","78","-3156","-26040","-4996","10","150","149.90","114.48","35.42","29.46","39.9","14.42","90680","28.88","DUALSPOT-UV-BLUE-GREEN-RED-IR","782220","710159","907861","6.872482","2.123012","0.008060","754409","892550","763536","5.110014","1.595890","-0.005954","851336","898801","814479","4.298884","1.331008","-0.020629","848343","924178","866193","3.462608","1.069087","-0.025697","724189","848629","952558","2.432687","0.696087","0.000000","4641","4829","4913","3929","3850","3813","3637","3432","3341","3480","3284","3196","3337","2966","3337",""
"MA200-0416","31810","93","1","1.10","1.4","2023-05-30T09:42:59","120","2023/05/30","09:42:59","-15.795704960823059","35.00286416639574","0.0","17","30","64","78","-3012","-26047","-5176","10","150","149.47","114.21","35.27","29.47","40.0","14.46","90676","28.88","DUALSPOT-UV-BLUE-GREEN-RED-IR","780542","709040","906765","6.963631","2.156057","0.028916","753978","892413","763574","5.172041","1.618290","0.038261","851301","899032","814885","4.350627","1.349854","0.047482","847389","923340","865551","3.502500","1.084291","0.072356","723837","848393","952394","2.459501","0.705520","0.000000","4687","5503","5869","4026","4708","5019","3761","4436","4740","3504","4325","4693","3279","3736","3279",""
"MA200-0416","31811","93","1","1.10","1.4","2023-05-30T09:43:29","120","2023/05/30","09:43:29","-15.795686841011047","35.00286033307202","0.1","16","30","64","78","-3116","-25980","-4984","10","150","149.63","114.20","35.43","29.47","40.0","14.47","90676","28.88","DUALSPOT-UV-BLUE-GREEN-RED-IR","781417","710295","908612","7.055614","2.187324","0.017257","754491","893357","764541","5.232658","1.637512","0.005963","850864","898862","814821","4.400653","1.366383","0.019572","846793","922917","865260","3.540921","1.095426","-0.029805","723670","848325","952378","2.485464","0.712548","0.000000","4730","5183","5386","3934","4021","4061","3636","3873","3979","3375","3152","3053","3175","2770","3175",""
"MA200-0416","31812","93","1","1.10","1.4","2023-05-30T09:43:59","120","2023/05/30","09:43:59","-15.795692682266235","35.00286366650835","0.1","16","30","64","77","-3156","-26028","-5252","10","150","149.51","113.96","35.54","29.48","40.0","14.45","90680","28.94","DUALSPOT-UV-BLUE-GREEN-RED-IR","779653","709156","907457","7.153088","2.218656","0.005945","752361","891197","762851","5.292984","1.658332","0.025377","849969","898185","814351","4.448646","1.381874","0.010825","845561","921841","864304","3.578151","1.107269","0.007869","723035","847761","951808","2.512796","0.720054","0.000000","5023","5177","5246","3924","4342","4533","3496","3618","3673","3277","3343","3372","3350","2950","3350",""
"MA200-0416","31813","93","1","1.10","1.4","2023-05-30T09:44:29","120","2023/05/30","09:44:29","-15.795700013637543","35.00285633280873","0.0","16","30","64","78","-3160","-26040","-4780","10","150","150.31","114.11","36.20","29.49","40.0","14.47","90672","28.94","DUALSPOT-UV-BLUE-GREEN-RED-IR","780567","710391","909317","7.245912","2.248815","0.004687","753871","893359","764828","5.353832","1.676488","-0.017666","850977","899568","815718","4.497003","1.395261","-0.050302","841886","918072","860917","3.616235","1.119047","-0.010424","724293","849371","953700","2.535726","0.725957","0.000000","4777","4893","4945","3952","3718","3611","3518","3070","2869","3348","3264","3226","2807","2278","2807",""
"MA200-0416","31814","93","1","1.10","1.4","2023-05-30T09:44:59","120","2023/05/30","09:44:59","-15.795700192451477","35.00287099950947","0.0","16","30","64","78","-3204","-26137","-5295","10","150","150.23","114.08","36.14","29.50","39.9","14.45","90680","29.00","DUALSPOT-UV-BLUE-GREEN-RED-IR","780065","710337","909522","7.333486","2.277837","0.008527","753747","893571","765136","5.411703","1.695175","0.005008","850470","899364","815634","4.542763","1.409053","-0.016716","842383","918839","861723","3.651603","1.128918","-0.057078","724299","849556","953929","2.560619","0.732571","0.000000","4508","4716","4809","3760","3832","3865","3330","3167","3095","3110","2739","2573","3048","2556","3048",""
"MA200-0416","31815","93","1","1.10","1.4","2023-05-30T09:45:29","120","2023/05/30","09:45:29","-15.795711636543274","35.002852166304365","0.2","16","30","64","78","-3088","-26036","-4884","10","150","149.40","114.47","34.93","29.51","39.9","14.46","90676","29.00","DUALSPOT-UV-BLUE-GREEN-RED-IR","779813","710522","909998","7.416225","2.303955","0.006407","753448","893526","765267","5.464849","1.711565","0.002787","849998","899135","815531","4.587591","1.422953","0.004959","841602","918235","861180","3.685654","1.138204","-0.049319","723858","849179","953575","2.583770","0.738232","0.000000","4245","4391","4457","3442","3478","3495","3251","3303","3327","2984","2667","2525","2825","2263","2825",""
"MA200-0416","31816","93","1","1.10","1.4","2023-05-30T09:45:59","120","2023/05/30","09:45:59","-15.795708239078522","35.00286966608837","0.1","16","30","64","78","-3028","-25940","-5264","10","150","149.66","113.88","35.78","29.52","40.0","14.50","90676","29.00","DUALSPOT-UV-BLUE-GREEN-RED-IR","775144","706695","905312","7.500479","2.331686","0.008590","745413","884311","757499","5.520907","1.726711","-0.046415","850969","900423","816826","4.632581","1.435661","-0.037046","842227","919123","862142","3.719753","1.147127","-0.085752","724428","850000","954573","2.607307","0.744298","0.000000","4345","4551","4644","3649","3137","2904","3279","2948","2799","3004","2501","2277","2887","2367","2887",""
"MA200-0416","31817","93","1","1.10","1.4","2023-05-30T09:46:29","120","2023/05/30","09:46:29","-15.79570883512497","35.00287649943493","0.1","16","30","64","78","-3012","-26003","-4932","10","150","150.36","114.92","35.44","29.53","40.0","14.50","90676","29.00","DUALSPOT-UV-BLUE-GREEN-RED-IR","774836","706735","905592","7.573812","2.356626","0.017137","749482","889448","761991","5.568440","1.743591","0.032442","851179","900918","817336","4.671318","1.447099","-0.014076","842283","919397","862472","3.750836","1.156252","-0.019908","724787","850505","955199","2.627538","0.750281","0.000000","3748","4133","4307","3066","3530","3742","2798","2679","2625","2713","2583","2525","2459","2358","2459",""
"MA200-0416","31818","93","1","1.10","1.4","2023-05-30T09:46:59","120","2023/05/30","09:46:59","-15.795715749263763","35.002897166414186","0.0","16","30","64","77","-2888","-25936","-6068","10","150","149.67","114.19","35.48","29.54","39.8","14.45","90676","29.06","DUALSPOT-UV-BLUE-GREEN-RED-IR","774455","706645","905701","7.633483","2.378362","0.026250","749469","889638","762292","5.610660","1.760059","0.048362","850921","900789","817342","4.704565","1.461005","0.071062","842837","920114","863219","3.776142","1.166469","0.080062","724996","850883","955684","2.646709","0.757404","0.000000","3069","3598","3838","2740","3441","3761","2417","3254","3631","2223","2889","3186","2345","2804","2345",""
"MA200-0416","31819","93","1","1.10","1.4","2023-05-30T09:47:29","120","2023/05/30","09:47:29","-15.795709669589996","35.00289649958722","0.1","16","30","64","77","-3088","-26012","-5268","10","150","150.21","114.00","36.21","29.56","39.8","14.46","90676","29.06","DUALSPOT-UV-BLUE-GREEN-RED-IR","774270","706787","906016","7.692967","2.397480","0.002187","749323","889743","762463","5.650618","1.772176","-0.012503","851015","901122","817716","4.736740","1.469797","-0.053639","843027","920516","863672","3.803457","1.174623","-0.025095","725184","851197","956066","2.664793","0.762331","0.000000","3064","3100","3117","2598","2480","2426","2343","2015","1868","2403","2259","2194","2215","1900","2215",""
"MA200-0416","31820","93","1","1.10","1.4","2023-05-30T09:47:59","120","2023/05/30","09:47:59","-15.79573780298233","35.00279566645622","0.3","16","30","64","77","-3180","-26147","-5208","10","150","149.83","114.36","35.47","29.58","39.8","14.47","90672","29.06","DUALSPOT-UV-BLUE-GREEN-RED-IR","772764","705717","904874","7.761834","2.421178","0.017690","748485","889012","761930","5.695774","1.786649","0.008128","849252","899485","816359","4.775459","1.481485","-0.008438","841206","918713","862042","3.830780","1.181066","-0.138443","723660","849514","954253","2.684740","0.766856","0.000000","3537","3924","4099","2927","3024","3069","2810","2735","2702","2397","1822","1566","2436","1781","2436",""
"MA200-0416","31821","93","1","1.10","1.4","2023-05-30T09:48:29","120","2023/05/30","09:48:29","-15.795727670192719","35.00279299961403","0.2","16","30","64","77","-3176","-26152","-5088","10","150","149.76","114.44","35.32","29.59","39.8","14.49","90676","29.06","DUALSPOT-UV-BLUE-GREEN-RED-IR","775085","708196","908237","7.833796","2.442888","-0.004345","750112","891255","763967","5.744251","1.800012","-0.032103","846453","896766","813982","4.816264","1.493138","-0.025255","844025","922036","865238","3.864097","1.191508","0.005644","725490","851822","956883","2.706762","0.772507","0.000000","3693","3609","3571","3140","2804","2651","2960","2738","2639","2920","2965","2986","2688","2234","2688",""
"MA200-0416","31822","93","1","1.10","1.4","2023-05-30T09:48:59","120","2023/05/30","09:48:59","-15.795723974704742","35.00283083296381","0.2","16","30","64","77","-3080","-25960","-4592","10","150","150.08","114.13","35.95","29.60","40.0","14.58","90680","29.13","DUALSPOT-UV-BLUE-GREEN-RED-IR","774530","708032","908255","7.903293","2.465580","0.006391","750226","891714","764486","5.793263","1.814527","-0.016479","845666","896195","813512","4.855067","1.503355","-0.064221","844295","922519","865752","3.894248","1.197433","-0.305308","720514","846149","950541","2.727426","0.776699","0.000000","3576","3707","3766","3183","2993","2906","2822","2359","2151","2650","1653","1210","2529","1628","2529",""
"MA200-0416","31823","93","1","1.10","1.4","2023-05-30T09:49:29","120","2023/05/30","09:49:29","-15.795722782611847","35.002847833093256","0.1","16","30","64","77","-3304","-26003","-3732","10","150","150.04","114.39","35.65","29.62","40.2","14.65","90676","29.13","DUALSPOT-UV-BLUE-GREEN-RED-IR","774857","708642","909276","7.971273","2.487644","0.007114","749702","891359","764281","5.839078","1.828802","-0.000089","846214","897016","814343","4.892332","1.513797","-0.034977","838273","916142","859835","3.923540","1.205956","-0.027022","721051","846900","951428","2.748907","0.782926","0.000000","3490","3635","3700","2969","2968","2967","2704","2431","2309","2569","2398","2322","2623","2440","2623",""
"MA200-0416","31824","93","1","1.10","1.4","2023-05-30T09:49:59","120","2023/05/30","09:49:59","-15.795729637145996","35.00280899950303","0.1","16","30","64","77","-3092","-26075","-5056","10","150","150.03","114.28","35.75","29.63","40.3","14.71","0","0.00","DUALSPOT-UV-BLUE-GREEN-RED-IR","767300","702036","900963","8.039999","2.509184","0.000351","749995","892053","764973","5.886774","1.842832","-0.016119","846345","897423","814818","4.931927","1.524884","-0.036300","838838","916978","860686","3.955677","1.214098","-0.095530","721387","847426","952069","2.769907","0.787078","0.000000","3532","3539","3542","3094","2909","2825","2876","2574","2439","2821","2285","2047","2567","1622","2567",""
"MA200-0416","31825","93","1","1.10","1.4","2023-05-30T09:50:29","120","2023/05/30","09:50:29","-15.795730292797089","35.00284133316018","0.2","16","30","64","77","-3124","-26028","-4924","10","150","150.05","113.85","36.20","29.64","40.4","14.76","0","0.00","DUALSPOT-UV-BLUE-GREEN-RED-IR","767470","702539","901782","8.108574","2.531473","0.003872","750275","892641","765581","5.933716","1.857221","-0.009310","846440","897746","815217","4.970748","1.536810","-0.010325","838875","917208","860953","3.984093","1.222366","-0.035056","721401","847549","952293","2.790220","0.793747","0.000000","3537","3616","3652","3056","2946","2896","2830","2735","2692","2504","2291","2197","2492","2573","2492",""
"MA200-0416","31826","93","1","1.10","1.4","2023-05-30T09:50:59","120","2023/05/30","09:50:59","-15.79571932554245","35.0028681664262","0.0","16","30","64","77","-3108","-26091","-4848","10","150","149.35","114.29","35.06","29.66","40.5","14.82","90672","29.19","DUALSPOT-UV-BLUE-GREEN-RED-IR","767398","702809","902348","8.177129","2.554306","0.013575","750427","893120","766109","5.981201","1.871378","-0.007114","846784","898363","815869","5.008960","1.547486","-0.029576","840176","918833","862547","4.016189","1.231199","-0.043287","721901","848305","953163","2.813177","0.799185","0.000000","3523","3825","3963","3080","2993","2954","2775","2528","2417","2817","2528","2400","2805","2166","2805",""
"MA200-0416","31827","93","1","1.10","1.4","2023-05-30T09:51:29","120","2023/05/30","09:51:29","-15.795710325241089","35.002878666389734","0.2","16","30","64","77","-3152","-26184","-5164","10","150","150.42","114.25","36.17","29.68","40.6","14.88","90672","29.19","DUALSPOT-UV-BLUE-GREEN-RED-IR","767386","703103","902922","8.244480","2.577631","0.014587","745680","887744","761607","6.027773","1.886261","0.002257","846561","898368","815952","5.048681","1.559192","-0.021984","840019","918850","862670","4.046398","1.239937","-0.035117","721970","848502","953449","2.835111","0.805428","0.000000","3462","3787","3935","3021","3050","3063","2886","2687","2597","2652","2423","2322","2681","2411","2681",""
"MA200-0416","31828","93","1","1.10","1.4","2023-05-30T09:51:59","120","2023/05/30","09:51:59","-15.795714795589447","35.00286633265205","0.2","16","30","64","77","-3030","-25969","-5119","10","150","150.62","114.24","36.38","29.70","40.8","14.95","90672","29.25","DUALSPOT-UV-BLUE-GREEN-RED-IR","768267","704237","904580","8.312090","2.599680","0.004062","746688","889233","763022","6.076046","1.901107","-0.008626","846350","898420","816114","5.089611","1.572019","-0.004651","840645","919794","863623","4.078881","1.247746","-0.133936","721576","848216","953222","2.860538","0.812502","0.000000","3476","3559","3597","3132","3025","2976","2974","2927","2905","2852","2153","1844","3109","2716","3109",""
"MA200-0416","31829","93","1","1.10","1.4","2023-05-30T09:52:29","120","2023/05/30","09:52:29","-15.795712649822235","35.00285133300349","0.2","16","30","64","77","-3080","-26024","-4892","10","150","149.70","114.12","35.58","29.72","40.8","14.99","90676","29.25","DUALSPOT-UV-BLUE-GREEN-RED-IR","767956","704254","904796","8.379097","2.621641","0.008298","746758","889623","763466","6.122271","1.914941","-0.010091","846044","898352","816131","5.127824","1.581866","-0.065269","840309","919616","863538","4.110530","1.256543","-0.044958","721894","848693","953787","2.880821","0.817418","0.000000","3448","3625","3706","3002","2882","2828","2779","2297","2082","2782","2481","2348","2482","1930","2482",""
"MA200-0416","31830","93","1","1.10","1.4","2023-05-30T09:52:59","120","2023/05/30","09:52:59","-15.795711517333984","35.00285499962047","0.1","16","30","64","77","-3088","-25956","-5268","10","150","149.37","113.81","35.56","29.74","40.9","15.03","90676","29.25","DUALSPOT-UV-BLUE-GREEN-RED-IR","767076","703770","904390","8.445768","2.644817","0.016670","745651","888566","762668","6.167921","1.930362","0.017116","845668","898177","816055","5.165345","1.594508","0.019704","839006","918361","862422","4.139149","1.264596","-0.040414","721284","848095","953196","2.902067","0.823835","0.000000","3440","3828","4004","2973","3214","3324","2737","2951","3047","2522","2271","2161","2607","2520","2607",""
"MA200-0416","31831","93","1","1.10","1.4","2023-05-30T09:53:29","120","2023/05/30","09:53:29","-15.79569685459137","35.00286666653119","0.1","16","30","64","76","-3140","-25947","-5032","10","150","150.01","114.29","35.71","29.76","40.9","15.07","90676","29.31","DUALSPOT-UV-BLUE-GREEN-RED-IR","768697","705585","906896","8.511967","2.666830","0.010047","746910","890332","764277","6.213188","1.943559","-0.017383","843008","895607","813811","5.203653","1.604253","-0.070585","842300","922183","866060","4.168721","1.272082","-0.090136","723088","850359","955798","2.923814","0.829369","0.000000","3401","3620","3720","2936","2739","2649","2782","2265","2035","2595","2103","1886","2658","2164","2658",""
"MA200-0416","31832","93","1","1.10","1.4","2023-05-30T09:53:59","120","2023/05/30","09:53:59","-15.795697331428528","35.00286699971184","0.0","16","30","64","76","-3000","-25988","-4944","10","150","150.03","114.20","35.83","29.78","41.1","15.14","90676","29.31","DUALSPOT-UV-BLUE-GREEN-RED-IR","769273","706388","908189","8.577747","2.689645","0.015542","747484","891320","765241","6.259538","1.957679","-0.007024","846393","899433","817365","5.240208","1.613945","-0.055057","836040","915523","859904","4.199049","1.281708","0.003958","722537","849861","955271","2.945150","0.835063","0.000000","3383","3740","3903","3008","2921","2882","2657","2245","2062","2664","2695","2709","2609","2219","2609",""
"MA200-0416","31833","93","1","1.10","1.4","2023-05-30T09:54:29","120","2023/05/30","09:54:29","-15.795697450637817","35.0028738330584","0.0","16","30","64","77","-3048","-26008","-5216","10","150","149.63","113.92","35.71","29.80","41.0","15.12","90680","29.38","DUALSPOT-UV-BLUE-GREEN-RED-IR","768774","706213","908162","8.643915","2.713085","0.018445","747202","891242","765298","6.304115","1.974840","0.039560","842508","895500","813901","5.276710","1.628262","0.050528","837167","916935","861281","4.226787","1.288944","-0.075254","718734","845516","950414","2.966051","0.839873","0.000000","3411","3855","4058","2900","3562","3864","2660","3328","3627","2442","2033","1853","2562","1881","2562",""
"MA200-0416","31834","93","1","1.10","1.4","2023-05-30T09:54:59","120","2023/05/30","09:54:59","-15.795697331428528","35.002881666179746","0.0","16","30","64","76","-3096","-26061","-5480","10","150","150.03","114.52","35.51","29.82","40.8","15.06","90676","29.38","DUALSPOT-UV-BLUE-GREEN-RED-IR","762712","700928","901523","8.705173","2.733917","0.014199","747792","892184","766196","6.342592","1.987260","0.008914","843235","896454","814851","5.309022","1.638120","-0.004475","838253","918310","862628","4.251318","1.296043","-0.024985","719374","846364","951463","2.984050","0.846159","0.000000","3141","3445","3585","2490","2593","2640","2342","2304","2288","2149","2005","1942","2195","2472","2195",""
"MA200-0416","31835","93","1","1.10","1.4","2023-05-30T09:55:29","120","2023/05/30","09:55:29","-15.795696496963501","35.002878833096474","0.0","16","30","64","76","-3060","-25891","-5240","10","150","149.70","113.84","35.85","29.86","40.6","15.02","90672","29.44","DUALSPOT-UV-BLUE-GREEN-RED-IR","763686","702074","903174","8.759262","2.750394","-0.005719","743581","887346","762127","6.378787","1.998025","-0.013849","843529","896977","815387","5.338127","1.645357","-0.081965","839000","919294","863614","4.274984","1.301992","-0.095696","719713","846878","952074","3.002502","0.849375","-0.549427","2790","2699","2657","2356","2225","2165","2122","1675","1476","2085","1664","1480","2264","1253","854",""
"MA200-0416","31836","93","1","1.10","1.4","2023-05-30T09:55:59","120","2023/05/30","09:55:59","-15.79569685459137","35.002871999749914","0.0","16","30","64","76","-3048","-26012","-5164","10","150","149.94","114.04","35.89","29.88","40.4","14.99","90672","29.44","DUALSPOT-UV-BLUE-GREEN-RED-IR","764518","703099","904650","8.811426","2.768253","0.012875","744619","888784","763475","6.412893","2.008934","0.003594","843962","897635","816055","5.366356","1.652962","-0.048947","839386","919844","864198","4.296569","1.307535","-0.083727","720076","847415","952694","3.017509","0.853770","-0.035613","2686","2922","3030","2217","2252","2269","2055","1759","1627","1898","1549","1396","1838","1710","1659",""
"MA200-0416","31837","93","1","1.10","1.4","2023-05-30T09:56:29","120","2023/05/30","09:56:29","-15.795694887638092","35.002871999749914","0.0","16","30","64","76","-3040","-26112","-4552","10","150","150.03","114.00","36.03","29.90","40.4","14.98","90672","29.50","DUALSPOT-UV-BLUE-GREEN-RED-IR","765108","703900","905815","8.861986","2.784080","-0.001570","745214","889731","764314","6.447732","2.018392","-0.040010","844394","898247","816673","5.393840","1.660049","-0.067141","840062","920758","865075","4.318687","1.313323","-0.075976","720246","847719","953077","3.034280","0.857481","-0.236425","2604","2580","2569","2265","1946","1800","2001","1633","1469","1946","1611","1465","2055","1439","1196",""
"MA200-0416","31838","93","1","1.10","1.4","2023-05-30T09:56:59","120","2023/05/30","09:56:59","-15.795694470405579","35.0028598329518","0.0","16","30","64","76","-3136","-26091","-4652","10","150","149.53","113.59","35.94","29.93","40.4","15.02","90672","29.56","DUALSPOT-UV-BLUE-GREEN-RED-IR","763187","702348","903988","8.917025","2.802690","0.010203","744036","888570","763402","6.485139","2.028715","-0.035225","842368","896289","814973","5.424517","1.668376","-0.047650","839149","919907","864302","4.342467","1.318407","-0.200720","718848","846208","951411","3.052911","0.862066","-0.147052","2846","3041","3130","2441","2129","1987","2242","1923","1781","2100","1419","1122","2291","1781","1581",""
"MA200-0416","31839","93","1","1.10","1.4","2023-05-30T09:57:29","120","2023/05/30","09:57:29","-15.795689165592194","35.00287566636689","0.1","16","30","64","76","-3124","-26096","-4932","10","150","149.66","114.04","35.62","29.94","40.3","15.01","90668","29.56","DUALSPOT-UV-BLUE-GREEN-RED-IR","764967","704226","906604","8.969913","2.821117","0.016089","745354","890344","765031","6.519722","2.040105","0.011301","844223","898473","817016","5.455691","1.678031","-0.002187","835444","915992","860715","4.365811","1.324802","-0.048973","720919","848731","954290","3.069542","0.866890","-0.035799","2723","3038","3183","2248","2370","2426","2269","2250","2242","2053","1801","1691","2037","1892","1835",""
"MA200-0416","31840","93","1","1.10","1.4","2023-05-30T09:57:59","120","2023/05/30","09:57:59","-15.79568737745285","35.00286916620098","0.0","16","30","64","76","-3168","-25928","-4588","10","150","150.49","114.88","35.61","29.97","40.1","14.94","90672","29.56","DUALSPOT-UV-BLUE-GREEN-RED-IR","763687","703293","905538","9.020767","2.839424","0.021110","744623","889700","764563","6.555002","2.053154","0.033452","842704","897027","815784","5.484206","1.688260","0.033715","832991","913471","858390","4.388251","1.331627","-0.006400","719447","847129","952552","3.086359","0.872212","0.009085","2600","3019","3211","2276","2715","2916","2060","2384","2528","1959","1922","1906","2045","2087","2104",""
"MA200-0416","31841","93","1","1.10","1.4","2023-05-30T09:58:29","120","2023/05/30","09:58:29","-15.795688331127167","35.002872666111216","0.0","16","30","64","76","-2896","-25936","-6568","10","150","150.63","113.96","36.67","30.00","40.0","14.91","90668","29.63","DUALSPOT-UV-BLUE-GREEN-RED-IR","766974","706579","909901","9.070704","2.854698","-0.008567","742145","886926","762299","6.591691","2.064418","-0.010814","841251","895680","814629","5.513704","1.695377","-0.102565","836030","916946","861735","4.413203","1.337885","-0.104887","721619","849790","955607","3.105934","0.877402","-0.104674","2573","2446","2388","2386","2277","2227","2149","1611","1372","2196","1712","1501","2399","1977","1810",""
"MA200-0416","31842","93","1","1.10","1.4","2023-05-30T09:58:59","120","2023/05/30","09:58:59","-15.795921504497528","35.00284166657366","1.0","16","30","64","76","-2580","-26047","-4648","10","150","150.69","114.32","36.37","30.03","40.0","14.94","0","0.00","DUALSPOT-UV-BLUE-GREEN-RED-IR","759748","700075","901756","9.119291","2.877411","0.044608","741807","886695","762215","6.626922","2.083564","0.076668","841340","895884","814961","5.544108","1.713765","0.102090","836752","917803","862648","4.436428","1.352483","0.131626","721538","849797","955662","3.124378","0.885230","0.101755","2496","3668","4208","2284","3902","4644","2208","4197","5087","2038","4026","4898","2253","3006","3304",""
"MA200-0416","31843","93","1","1.10","1.4","2023-05-30T09:59:29","120","2023/05/30","09:59:29","-15.795935988426208","35.002874332945794","0.0","16","30","64","76","-3040","-26075","-5012","10","150","149.96","114.32","35.64","30.05","40.0","14.95","0","0.00","DUALSPOT-UV-BLUE-GREEN-RED-IR","765383","705518","908900","9.170094","2.895265","0.017103","740822","885715","761445","6.661947","2.094041","-0.009408","840412","895077","814277","5.572469","1.720703","-0.081195","835548","916675","861641","4.460138","1.358056","-0.122783","720736","848927","954761","3.140998","0.888997","-0.195809","2610","2942","3095","2271","2179","2137","2059","1616","1418","2080","1568","1344","2030","1476","1257",""
"MA200-0416","31844","93","1","1.10","1.4","2023-05-30T09:59:59","120","2023/05/30","09:59:59","-15.795965313911438","35.002854666206986","0.2","16","30","64","76","-3160","-26036","-4736","10","150","150.16","113.96","36.20","30.07","40.0","14.97","90672","29.69","DUALSPOT-UV-BLUE-GREEN-RED-IR","760662","701434","903812","9.222481","2.913297","0.011816","742950","888484","763926","6.695770","2.104944","0.003158","841378","896295","815460","5.601299","1.729137","-0.023028","837601","919082","863923","4.480299","1.363581","-0.054822","722084","850675","956706","3.156362","0.891945","-0.389782","2700","2925","3030","2200","2232","2247","2100","1934","1860","1774","1531","1424","1883","1137","844",""
"MA200-0416","31845","93","1","1.10","1.4","2023-05-30T10:00:29","120","2023/05/30","10:00:29","-15.796065628528595","35.00271066627465","0.9","16","30","64","76","-3316","-25863","-5568","10","150","150.55","114.57","35.98","30.09","39.7","14.90","90668","29.75","DUALSPOT-UV-BLUE-GREEN-RED-IR","760373","701471","904080","9.291664","2.936910","0.012121","742741","888493","764030","6.739302","2.119743","0.015938","841655","896775","815973","5.634839","1.741087","0.028927","839157","920943","865717","4.503663","1.369816","-0.061169","718058","845996","951520","3.172414","0.896451","-0.054849","3546","3854","3996","2816","3049","3155","2430","2757","2903","2045","1738","1604","1957","1749","1667",""
"MA200-0416","31846","93","1","1.10","1.4","2023-05-30T10:00:59","120","2023/05/30","10:00:59","-15.79607766866684","35.00274199969135","0.2","16","30","64","75","-5396","-25784","-3000","10","150","149.82","113.97","35.86","30.12","39.6","14.89","90664","29.75","DUALSPOT-UV-BLUE-GREEN-RED-IR","759806","701267","904002","9.356224","2.957569","0.002590","742407","888344","764007","6.777935","2.131837","-0.001089","840089","895301","814706","5.663526","1.748293","-0.072731","837240","918939","863917","4.525790","1.375955","-0.045193","716830","844635","950022","3.187091","0.901467","0.033682","3327","3383","3409","2512","2500","2494","2089","1668","1480","1947","1717","1617","1799","1954","2015",""
"MA200-0416","31847","93","1","1.10","1.4","2023-05-30T10:01:29","120","2023/05/30","10:01:29","-15.796054005622864","35.00270999968052","1.7","15","30","64","76","-4604","-25828","-5160","10","150","149.51","113.64","35.86","30.16","39.5","14.87","90652","29.75","DUALSPOT-UV-BLUE-GREEN-RED-IR","761918","703786","907588","9.468435","2.993398","0.001803","743822","890471","765989","6.845327","2.152479","-0.006550","841502","897177","816494","5.712206","1.761162","-0.053645","834319","915992","861244","4.557260","1.384407","-0.059703","718726","846998","952714","3.206218","0.905609","-0.242373","5799","5868","5900","4396","4266","4207","3556","2979","2722","2778","2364","2184","2351","1613","1323",""
"MA200-0416","31848","93","1","1.10","1.4","2023-05-30T10:01:59","120","2023/05/30","10:01:59","-15.795908868312836","35.00218466622755","1.8","15","30","64","75","-2016","-26219","-4808","10","150","149.76","113.67","36.09","30.18","39.3","14.82","90672","29.81","DUALSPOT-UV-BLUE-GREEN-RED-IR","762346","704612","908953","9.566631","3.027301","0.011861","739840","886005","762292","6.901993","2.171690","0.013050","842613","898557","817911","5.754066","1.776063","0.025929","834886","916790","862018","4.584199","1.391744","-0.055925","719127","847588","953430","3.226448","0.909832","-0.282674","5073","5517","5723","3695","3946","4061","3057","3427","3593","2377","2039","1892","2486","1634","1300",""
"MA200-0416","31849","93","1","1.10","1.4","2023-05-30T10:02:29","120","2023/05/30","10:02:29","-15.795279920101166","35.00238616624847","2.3","15","30","64","75","-1568","-26703","-5096","10","150","149.51","113.92","35.58","30.21","39.1","14.77","90684","29.81","DUALSPOT-UV-BLUE-GREEN-RED-IR","762311","704935","909617","9.642950","3.053232","0.011807","740275","886784","763090","6.946844","2.187835","0.026222","837334","893153","813069","5.788153","1.786262","-0.011209","835303","917398","862689","4.608646","1.398700","-0.031795","719170","847742","953644","3.242666","0.915370","0.035461","3934","4280","4440","2918","3363","3568","2484","2379","2332","2152","1961","1877","1988","2174","2247",""
"MA200-0416","31850","93","1","1.10","1.4","2023-05-30T10:02:59","120","2023/05/30","10:02:59","-15.79497504234314","35.00195133325178","4.9","15","30","64","75","-4192","-24740","-7279","10","150","150.65","113.86","36.80","30.23","38.9","14.70","0","0.00","DUALSPOT-UV-BLUE-GREEN-RED-IR","755098","698583","901603","9.710852","3.075088","-0.000610","739749","886392","762852","6.987131","2.200246","-0.010502","837635","893654","813602","5.817730","1.796114","0.007322","836104","918401","863657","4.628542","1.403153","-0.170749","719686","848432","954476","3.259117","0.920748","0.004913","3502","3488","3482","2623","2500","2443","2156","2222","2252","1753","1213","979","2018","2041","2051",""
"MA200-0416","31851","93","1","1.10","1.4","2023-05-30T10:03:29","120","2023/05/30","10:03:29","-15.79555857181549","34.99981701374054","12.0","15","30","64","75","-1772","-27724","-5248","10","150","150.49","114.19","36.30","30.25","38.7","14.65","0","0.00","DUALSPOT-UV-BLUE-GREEN-RED-IR","761630","705250","910643","9.835785","3.116788","0.006940","740027","887200","763741","7.059940","2.222776","-0.005702","837006","893352","813462","5.872566","1.811927","-0.026406","836466","919054","864390","4.668261","1.414436","-0.038548","719540","848461","954584","3.286432","0.926783","-0.224664","6426","6747","6896","4726","4601","4543","3986","3616","3451","3489","3118","2957","3341","2322","1922",""
"MA200-0416","31852","93","1","1.10","1.4","2023-05-30T10:03:59","120","2023/05/30","10:03:59","-15.795401930809021","34.9974399805069","5.7","15","30","64","76","-344","-26656","-1344","10","150","150.29","113.45","36.85","30.28","38.5","14.59","90808","29.94","DUALSPOT-UV-BLUE-GREEN-RED-IR","755571","700231","904515","9.964161","3.158804","0.001109","740620","888334","764937","7.135290","2.247989","0.005912","838641","895440","815497","5.930877","1.829743","-0.015830","836615","919538","864927","4.710275","1.426667","-0.037111","719968","849118","955395","3.315277","0.933716","-0.171072","6646","6697","6720","4923","5072","5140","4267","4014","3901","3715","3330","3162","3551","2628","2266",""
"MA200-0416","31853","93","1","1.10","1.4","2023-05-30T10:04:29","120","2023/05/30","10:04:29","-15.79315322637558","34.99749797582626","11.1","15","30","64","75","-1664","-26203","-4744","10","150","150.23","113.84","36.38","30.31","38.3","14.51","90948","29.94","DUALSPOT-UV-BLUE-GREEN-RED-IR","754405","700027","904901","10.138752","3.221477","0.015088","739965","888387","765330","7.260101","2.292495","0.019935","837501","894918","815364","6.031448","1.865291","0.022054","836566","920015","865647","4.788942","1.453733","0.020681","719710","849227","955717","3.371166","0.952376","0.017383","9007","10117","10634","8127","9068","9502","7334","8111","8459","6932","7463","7694","6858","7164","7284",""
"MA200-0416","31854","93","1","1.10","1.4","2023-05-30T10:04:59","120","2023/05/30","10:04:59","-15.791155993938446","34.997408866882324","5.4","15","30","64","75","-4916","-26012","-3760","10","150","149.54","113.55","36.00","30.34","38.0","14.44","90904","30.00","DUALSPOT-UV-BLUE-GREEN-RED-IR","754006","700563","906118","10.341503","3.287191","0.003060","739401","888600","765845","7.413826","2.342386","0.004505","836202","894280","815092","6.160933","1.906192","-0.000870","830979","914495","860694","4.890521","1.484531","-0.013685","715380","844516","950563","3.444786","0.972635","-0.065449","10488","10721","10830","10036","10273","10383","9467","9432","9417","8975","8583","8412","9057","7861","7391",""
"MA200-0416","31855","93","1","1.10","1.4","2023-05-30T10:05:29","120","2023/05/30","10:05:29","-15.790179669857025","34.99792301654816","4.3","15","30","64","74","-5680","-25788","-5344","10","150","149.90","114.16","35.73","30.36","37.8","14.38","90800","30.00","DUALSPOT-UV-BLUE-GREEN-RED-IR","751889","699159","904675","10.468695","3.330509","0.010921","733435","881909","760348","7.507741","2.374828","0.017523","834583","893002","814102","6.237942","1.930636","0.003193","828943","912610","859075","4.951614","1.503062","-0.009399","713945","843054","949060","3.488723","0.985732","-0.020432","6544","7119","7388","6098","6730","7022","5600","5679","5714","5368","5202","5130","5376","5119","5018",""
"MA200-0416","31856","93","1","1.10","1.4","2023-05-30T10:05:59","120","2023/05/30","10:05:59","-15.78891634941101","34.99835830926895","5.4","15","30","64","75","-3216","-25952","-4952","10","150","149.87","113.96","35.91","30.38","37.6","14.30","90708","30.06","DUALSPOT-UV-BLUE-GREEN-RED-IR","753245","700934","907432","10.592339","3.377502","0.021942","734524","883734","762184","7.597429","2.406549","0.020017","836304","895266","816424","6.315339","1.958990","0.030217","831066","915304","861798","5.011990","1.524388","0.029565","715466","845123","951529","3.531370","0.999783","0.016974","6372","7687","8302","5834","6549","6880","5638","6555","6968","5315","5958","6240","5227","5466","5561",""
"MA200-0416","31857","93","1","1.10","1.4","2023-05-30T10:06:29","120","2023/05/30","10:06:29","-15.787256300449371","34.998621702194214","3.4","15","30","64","75","-1152","-26163","-6364","10","150","150.25","113.71","36.54","30.41","37.3","14.23","90732","30.06","DUALSPOT-UV-BLUE-GREEN-RED-IR","752807","701032","907911","10.705154","3.415968","0.007692","734671","884394","762961","7.684895","2.437603","0.017330","835224","894531","815915","6.385106","1.982617","0.011364","831517","916155","862747","5.066911","1.541835","-0.003286","715275","845152","951656","3.571642","1.011473","-0.043616","5827","6183","6350","5702","6300","6578","5093","5368","5492","4845","4790","4766","4947","4469","4280",""
"MA200-0416","31858","93","1","1.10","1.4","2023-05-30T10:06:59","120","2023/05/30","10:06:59","-15.787528693675995","34.99993109703064","7.2","15","30","64","74","-3580","-26275","-3156","10","150","149.59","113.67","35.92","30.44","37.1","14.16","90752","30.06","DUALSPOT-UV-BLUE-GREEN-RED-IR","752497","701150","908271","10.794601","3.446861","0.011126","734163","884152","762914","7.750906","2.458810","0.003067","835088","894708","816233","6.442112","2.000445","-0.002373","832085","917041","863703","5.111507","1.555037","-0.019549","715361","845387","952042","3.601907","1.021125","0.003501","4621","5051","5252","4305","4376","4409","4163","4120","4100","3936","3687","3578","3719","3753","3767",""
"MA200-0416","31859","93","1","1.10","1.4","2023-05-30T10:07:29","120","2023/05/30","10:07:29","-15.78715431690216","35.00087816658197","7.4","15","30","64","74","-4340","-26119","-3460","10","150","150.36","114.04","36.32","30.46","36.9","14.10","90664","30.06","DUALSPOT-UV-BLUE-GREEN-RED-IR","746324","695731","901479","10.867369","3.469782","-0.001496","734136","884436","763282","7.803377","2.475225","-0.003400","832570","892297","814105","6.485832","2.012819","-0.029653","832226","917408","864126","5.147197","1.565617","-0.021427","715826","846108","952896","3.629024","1.027556","-0.152437","3747","3706","3687","3410","3350","3322","3182","2828","2669","3139","2922","2827","3321","2473","2138",""
"MA200-0416","31860","93","1","1.10","1.4","2023-05-30T10:07:59","120","2023/05/30","10:07:59","-15.785555005073547","35.001113833277486","6.7","15","30","64","74","-3828","-26160","-2724","10","150","150.23","114.04","36.18","30.48","36.8","14.04","90536","30.13","DUALSPOT-UV-BLUE-GREEN-RED-IR","751130","700500","907871","10.935551","3.493799","0.012743","732638","882939","762082","7.853075","2.490991","-0.000028","834200","894251","816024","6.528205","2.026165","-0.001652","830470","915695","862594","5.177638","1.572865","-0.107937","714456","844624","951277","3.650943","1.033208","-0.096825","3511","3898","4080","3230","3230","3229","3084","3062","3051","2678","2009","1717","2684","2182","1983",""
"MA200-0416","31861","93","1","1.10","1.4","2023-05-30T10:08:29","120","2023/05/30","10:08:29","-15.784241020679474","35.001312666456215","6.4","15","30","64","74","-4633","-26104","-4462","10","150","150.03","113.92","36.11","30.50","36.6","13.98","90428","30.13","DUALSPOT-UV-BLUE-GREEN-RED-IR","746148","696107","902358","10.991179","3.512510","0.007520","734009","884807","763815","7.892091","2.504039","0.009467","836018","896400","818055","6.558228","2.035874","0.004383","833101","918744","865519","5.203469","1.581579","0.016287","715671","846157","953046","3.670061","1.039787","0.029118","2868","3043","3126","2538","2678","2743","2187","2232","2252","2274","2421","2485","2344","2545","2624",""
"MA200-0416","31862","93","1","1.10","1.4","2023-05-30T10:08:59","120","2023/05/30","10:08:59","-15.784102201461792","35.00021233331063","5.0","15","30","64","74","-3980","-25780","-5088","10","150","150.49","114.00","36.49","30.53","36.4","13.95","90448","30.13","DUALSPOT-UV-BLUE-GREEN-RED-IR","751730","701614","909683","11.053598","3.534069","0.009421","733611","884589","763748","7.938046","2.519447","0.008195","834014","894516","816403","6.596542","2.046746","-0.029846","830651","916254","863238","5.231981","1.588320","-0.114808","714457","844864","951655","3.690786","1.044796","-0.140618","3215","3470","3589","2988","3130","3196","2790","2473","2331","2509","1853","1567","2539","1917","1671",""
"MA200-0416","31863","93","1","1.10","1.4","2023-05-30T10:09:29","120","2023/05/30","10:09:29","-15.782927215099335","34.99824517965317","10.7","15","30","64","74","-3448","-26232","-3968","10","150","150.56","114.28","36.28","30.54","36.3","13.91","90516","30.19","DUALSPOT-UV-BLUE-GREEN-RED-IR","746047","696791","903717","11.150450","3.565679","0.003568","734202","885749","764917","8.010459","2.542251","-0.001459","832015","892730","814963","6.656701","2.065581","-0.003043","827468","913053","860379","5.279661","1.603323","-0.002416","716047","846987","954134","3.725980","1.054813","-0.045205","4977","5118","5184","4697","4660","4643","4370","4310","4283","4185","4149","4133","4302","3857","3681",""
"MA200-0416","31864","93","1","1.10","1.4","2023-05-30T10:09:59","120","2023/05/30","10:09:59","-15.782364666461945","34.99662631750107","2.8","15","30","64","74","-3375","-26725","-2016","10","150","150.01","114.41","35.60","30.56","36.1","13.86","90560","30.19","DUALSPOT-UV-BLUE-GREEN-RED-IR","744553","696736","904529","11.398087","3.650920","0.011873","733184","885885","765621","8.203946","2.608080","0.014696","829459","891147","814046","6.822723","2.122790","0.019794","831917","918962","866364","5.412749","1.645952","0.007519","714840","846231","953612","3.824741","1.084483","-0.013186","12713","14065","14702","12537","13709","14255","12047","13343","13928","11670","12015","12165","12058","11643","11479",""
"MA200-0416","31865","93","1","1.10","1.4","2023-05-30T10:10:29","120","2023/05/30","10:10:29","-15.781811714172363","34.99510318040848","8.2","15","30","64","73","-2760","-26256","-5172","10","150","150.09","114.16","35.93","30.57","36.0","13.80","90608","30.19","DUALSPOT-UV-BLUE-GREEN-RED-IR","740716","694351","902271","11.675577","3.744608","0.008274","729704","882895","763611","8.423245","2.681846","0.010867","827643","890277","813743","7.010621","2.183765","0.006144","829375","917072","865007","5.569416","1.697486","0.010930","713318","845115","952717","3.941558","1.119694","-0.015956","14276","15314","15803","14240","15218","15675","13664","14088","14279","13768","14388","14660","14294","13689","13448",""
