"Serial number","Datum ID","Session ID","Data format version","Firmware version","App version","Date / time local","Timezone offset (mins)","Date local (yyyy/MM/dd)","Time local (hh:mm:ss)","GPS lat (ddmm.mmmmm)","GPS long (dddmm.mmmmm)","GPS speed (km/h)","GPS sat count","Timebase (s)","Status","Battery remaining (%)","Accel X","Accel Y","Accel Z","Tape position","Flow setpoint (mL/min)","Flow total (mL/min)","Flow1 (mL/min)","Flow2 (mL/min)","Sample temp (C)","Sample RH (%)","Sample dewpoint (C)","Internal pressure (Pa)","Internal temp (C)","Optical config","UV Sen1","UV Sen2","UV Ref","UV ATN1","UV ATN2","UV K","Blue Sen1","Blue Sen2","Blue Ref","Blue ATN1","Blue ATN2","Blue K","Green Sen1","Green Sen2","Green Ref","Green ATN1","Green ATN2","Green K","Red Sen1","Red Sen2","Red Ref","Red ATN1","Red ATN2","Red K","IR Sen1","IR Sen2","IR Ref","IR ATN1","IR ATN2","IR K","UV BC1","UV BC2","UV BCc","Blue BC1","Blue BC2","Blue BCc","Green BC1","Green BC2","Green BCc","Red BC1","Red BC2","Red BCc","IR BC1","IR BC2","IR BCc","Readable status"
"MA200-0416","33118","97","1","1.10","1.4","2023-05-31T20:41:00","120","2023/05/31","20:41:00","-15.795297682285309","35.00290916627273","1.1","17","30","66","91","36","-464","-26019","16","150","150.36","114.08","36.29","30.13","34.7","12.86","90464","29.19","DUALSPOT-UV-BLUE-GREEN-RED-IR","847953","733972","910483","0.000000","0.000000","0.000000","798875","911706","761671","0.000000","0.000000","0.000000","898074","920163","817281","0.000000","0.000000","0.000000","883964","940508","866689","0.000000","0.000000","0.000000","741283","855893","951423","0.000000","0.000000","0.000000","","","","","","","","","","","","","","","","Start up"
"MA200-0416","33119","97","1","1.10","1.4","2023-05-31T20:41:30","120","2023/05/31","20:41:30","-15.79570609331131","35.00301883299835","0.1","17","30","66","90","28","-580","-26312","16","150","149.73","113.24","36.49","30.07","34.4","12.65","90464","29.13","DUALSPOT-UV-BLUE-GREEN-RED-IR","841976","730586","907266","0.000000","0.000000","0.000000","798665","913128","763506","0.000000","0.000000","0.000000","894517","917924","815904","0.000000","0.000000","0.000000","878393","935777","862900","0.000000","0.000000","0.000000","738526","853537","949160","0.000000","0.000000","0.000000","","","","","","","","","","","","","","","","Start up"
"MA200-0416","33120","97","1","1.10","1.4","2023-05-31T20:42:00","120","2023/05/31","20:42:00","-15.795738816261292","35.00303066638298","0.4","17","30","66","90","-37","-537","-26095","16","150","149.64","113.64","36.00","30.00","34.1","12.47","90464","29.00","DUALSPOT-UV-BLUE-GREEN-RED-IR","838319","729019","906134","0.000000","0.000000","0.000000","796247","911876","763012","0.000000","0.000000","0.000000","892410","917055","815643","0.000000","0.000000","0.000000","876511","934827","862460","0.000000","0.000000","0.000000","741965","858231","954671","0.000000","0.000000","0.000000","","","","","","","","","","","","","","","","Start up"
"MA200-0416","33121","97","1","1.10","1.4","2023-05-31T20:42:30","120","2023/05/31","20:42:30","-15.795733511447906","35.003026499645784","0.1","17","30","66","90","20","-536","-26112","16","150","149.59","113.67","35.92","29.92","33.9","12.31","90460","28.88","DUALSPOT-UV-BLUE-GREEN-RED-IR","834085","726937","904405","0.000000","0.000000","0.000000","792580","909172","761298","0.000000","0.000000","0.000000","889609","915500","814732","0.000000","0.000000","0.000000","879103","938688","866450","0.000000","0.000000","0.000000","740030","856670","953309","0.000000","0.000000","0.000000","","","","","","","","","","","","","","","","Start up"
"MA200-0416","33122","97","1","1.10","1.4","2023-05-31T20:43:00","120","2023/05/31","20:43:00","-15.79570746421814","35.003006166545674","0.1","17","30","66","90","-20","-308","-26352","16","150","149.53","113.59","35.94","29.83","33.7","12.16","90464","28.81","DUALSPOT-UV-BLUE-GREEN-RED-IR","834220","728587","907342","0.000000","0.000000","0.000000","794194","912447","764611","0.000000","0.000000","0.000000","890022","917121","816772","0.000000","0.000000","0.000000","874362","934642","863203","0.000000","0.000000","0.000000","737755","854678","951427","0.000000","0.000000","0.000000","","","","","","","","","","","","","","","","Start up"
"MA200-0416","33123","97","1","1.10","1.4","2023-05-31T20:43:30","120","2023/05/31","20:43:30","-15.795664668083191","35.002961833262816","0.1","17","30","64","90","92","-568","-26516","16","150","149.67","114.11","35.56","29.75","33.6","12.03","90468","28.75","DUALSPOT-UV-BLUE-GREEN-RED-IR","830064","726498","905646","0.000000","0.000000","0.000000","790747","909953","763093","0.000000","0.000000","0.000000","887289","915561","815910","0.000000","0.000000","0.000000","870489","931563","860854","0.000000","0.000000","0.000000","740162","858174","955619","0.000000","0.000000","0.000000","","","","","","","","","","","","","","","",""
"MA200-0416","33124","97","1","1.10","1.4","2023-05-31T20:44:00","120","2023/05/31","20:44:00","-15.795681536197662","35.00295416638255","0.0","17","30","64","89","-119","-708","-26300","16","150","150.10","113.94","36.16","29.66","33.5","11.91","90472","28.69","DUALSPOT-UV-BLUE-GREEN-RED-IR","830058","728231","908723","0.337083","0.102792","0.000000","790512","911312","764891","0.260412","0.082380","0.000000","883632","913190","814390","0.225013","0.072365","0.000000","871257","933556","863252","0.186055","0.059610","0.000000","737563","855961","953526","0.130657","0.037918","0.000000","17376","16697","17376","16942","16889","16942","16395","16615","16395","16382","16539","16382","16018","14648","16018",""
"MA200-0416","33125","97","1","1.10","1.4","2023-05-31T20:44:30","120","2023/05/31","20:44:30","-15.795671820640564","35.00291183311492","0.3","17","30","64","90","-40","-532","-26403","16","150","149.76","113.76","36.00","29.57","33.5","11.81","90472","28.56","DUALSPOT-UV-BLUE-GREEN-RED-IR","826592","726916","908115","0.683947","0.211843","0.000000","788074","910217","764666","0.532960","0.171686","0.000000","881417","912341","814305","0.462329","0.151872","0.000000","869680","933117","863413","0.382590","0.126552","0.000000","737041","856197","954208","0.266441","0.081547","0.000000","17908","17792","17908","17760","18390","17760","17318","18335","17318","17332","18655","17332","16673","16930","16673",""
"MA200-0416","33126","97","1","1.10","1.4","2023-05-31T20:45:00","120","2023/05/31","20:45:00","-15.795669376850128","35.002874832833186","0.1","17","30","64","89","-20","-552","-26344","16","150","149.76","113.84","35.92","29.49","33.4","11.72","90476","28.50","DUALSPOT-UV-BLUE-GREEN-RED-IR","821164","724043","905547","1.056607","0.326915","0.000000","784009","907342","762967","0.829786","0.264215","0.000000","882426","915016","817365","0.722063","0.234877","0.000000","865255","929744","860904","0.600653","0.196701","0.000000","734911","854559","952828","0.416139","0.127191","0.000000","19226","18816","19226","19328","19096","19328","18941","19184","18941","19217","19592","19217","18369","17750","18369",""
"MA200-0416","33127","97","1","1.10","1.4","2023-05-31T20:45:30","120","2023/05/31","20:45:30","-15.795590281486511","35.00284349988215","0.6","17","30","64","89","-56","-644","-26300","16","150","150.09","114.00","36.09","29.41","33.5","11.66","90476","28.44","DUALSPOT-UV-BLUE-GREEN-RED-IR","821152","725855","908875","1.431151","0.444759","0.000000","779040","903449","760409","1.128023","0.359773","0.000000","878381","912406","815720","0.980663","0.318991","0.000000","865630","931502","863138","0.818151","0.267737","0.000000","731512","851515","949847","0.564973","0.173692","0.000000","19297","19177","19297","19393","19627","19393","18832","19348","18832","19140","19746","19140","18237","17998","18237",""
"MA200-0416","33128","97","1","1.10","1.4","2023-05-31T20:46:00","120","2023/05/31","20:46:00","-15.795656323432922","35.00292749982327","0.4","17","30","64","89","0","-584","-26428","16","150","150.01","113.71","36.30","29.32","33.5","11.59","90476","28.38","DUALSPOT-UV-BLUE-GREEN-RED-IR","816891","723991","907532","1.797612","0.556062","0.000000","780891","907406","764428","1.418536","0.449705","0.000000","876103","911668","815708","1.234382","0.397938","0.000000","865273","932487","864615","1.031607","0.335645","0.000000","731420","852318","951184","0.719028","0.217381","0.000000","18929","18011","18929","18939","18368","18939","18524","18058","18524","18833","18770","18833","18925","16814","18925",""
"MA200-0416","33129","97","1","1.10","1.4","2023-05-31T20:46:30","120","2023/05/31","20:46:30","-15.795646667480469","35.002979499520734","0.1","17","30","64","89","119","-540","-26512","16","150","149.80","113.54","36.25","29.24","33.5","11.53","90480","28.38","DUALSPOT-UV-BLUE-GREEN-RED-IR","812937","722289","906480","2.172820","0.672578","0.000000","778089","906022","763980","1.718169","0.543195","0.000000","872949","909967","814843","1.497066","0.480210","0.000000","860986","929255","862254","1.253006","0.404757","0.000000","729324","850782","949886","0.871028","0.261808","0.000000","19409","18876","19409","19563","19116","19563","19207","18840","19207","19562","19125","19562","18700","17118","18700",""
"MA200-0416","33130","97","1","1.10","1.4","2023-05-31T20:47:00","120","2023/05/31","20:47:00","-15.795623540878296","35.00297916634008","0.3","17","30","64","88","12","-496","-26280","16","150","149.80","114.00","35.79","29.16","33.5","11.45","90480","28.31","DUALSPOT-UV-BLUE-GREEN-RED-IR","812644","723660","909463","2.533159","0.809686","0.000000","772987","901648","761157","2.005994","0.657594","0.000000","868913","907186","813174","1.748258","0.580710","0.000000","861595","931094","864707","1.465341","0.492506","0.000000","731176","853703","953780","1.021041","0.328211","0.000000","18565","22499","18565","18716","23693","18716","18293","23311","18293","18686","24596","18686","18382","25916","18382",""
"MA200-0416","33131","97","1","1.10","1.4","2023-05-31T20:47:30","120","2023/05/31","20:47:30","-15.795599281787872","35.002973166061565","0.2","17","30","64","89","-4","-475","-26280","16","150","150.03","114.36","35.67","29.08","33.5","11.38","90476","28.25","DUALSPOT-UV-BLUE-GREEN-RED-IR","810106","723099","909804","2.887869","0.925834","0.000000","771319","901389","761643","2.289188","0.750471","0.000000","866629","906206","813006","1.996791","0.666671","0.000000","860671","931368","865573","1.672927","0.563132","0.000000","730428","853609","954109","1.165250","0.376287","0.000000","18218","19126","18218","18357","19303","18357","18042","20008","18042","18211","19865","18211","17615","18828","17615",""
"MA200-0416","33132","97","1","1.10","1.4","2023-05-31T20:48:00","120","2023/05/31","20:48:00","-15.795622706413269","35.003004333237186","0.2","17","30","64","88","4","-475","-26232","16","150","150.17","114.15","36.02","29.01","33.4","11.30","90476","28.19","DUALSPOT-UV-BLUE-GREEN-RED-IR","805734","720706","907742","3.207368","1.032289","0.023758","772449","904217","764662","2.541446","0.835514","0.000000","868675","909665","816691","2.218341","0.741505","0.000000","857427","928960","863873","1.859017","0.627368","0.000000","728831","852481","953249","1.294475","0.416932","0.000000","16439","17358","17795","16381","17502","16381","16113","17248","16113","16355","17891","16355","15813","15762","15813",""
"MA200-0416","33133","97","1","1.10","1.4","2023-05-31T20:48:30","120","2023/05/31","20:48:30","-15.795663297176361","35.00300799985416","0.3","17","30","64","88","-268","-620","-25592","16","150","149.36","114.26","35.10","28.92","33.4","11.23","90476","28.13","DUALSPOT-UV-BLUE-GREEN-RED-IR","800395","717361","904317","3.498726","1.125452","0.016200","768252","900666","762251","2.772915","0.912481","0.000000","864994","907043","814851","2.417177","0.807028","0.000000","852464","924605","860293","2.026895","0.683784","0.000000","726511","850464","951320","1.409191","0.452808","0.000000","14977","15588","15877","15018","16254","15018","14448","15496","14448","14741","16124","14741","14025","14277","14025",""
"MA200-0416","33134","97","1","1.10","1.4","2023-05-31T20:49:00","120","2023/05/31","20:49:00","-15.795660316944122","35.00299916625954","0.3","17","30","64","88","48","-604","-26336","16","150","149.84","114.49","35.36","28.86","33.5","11.19","90476","28.06","DUALSPOT-UV-BLUE-GREEN-RED-IR","803271","721360","910284","3.797361","1.220640","0.011907","765924","899347","761711","3.008782","0.986946","0.010673","863578","906816","815216","2.624923","0.873827","0.000000","851664","924830","860985","2.200994","0.739472","0.000000","726267","850859","952143","1.530403","0.489336","0.000000","15320","15813","16046","15272","15613","15779","15065","15685","15065","15256","15802","15256","14789","14432","14789",""
"MA200-0416","33135","97","1","1.10","1.4","2023-05-31T20:49:30","120","2023/05/31","20:49:30","-15.795681655406952","35.00293766637333","0.3","17","30","64","88","136","-528","-27047","16","150","150.05","114.57","35.48","28.78","33.5","11.13","90476","28.06","DUALSPOT-UV-BLUE-GREEN-RED-IR","794678","715098","903249","4.096162","1.319727","0.023145","768086","903328","765699","3.244745","1.066667","0.036845","861584","905939","814988","2.830083","0.943451","0.000000","855664","930194","866513","2.373189","0.798964","0.000000","725234","850346","951905","1.649335","0.525638","0.000000","15318","16405","16922","15267","16659","17340","14866","16294","14866","15078","16824","15078","14501","14294","14501",""
"MA200-0416","33136","97","1","1.10","1.4","2023-05-31T20:50:00","120","2023/05/31","20:50:00","-15.795689940452576","35.00299033289775","0.5","17","30","64","88","84","-552","-26352","16","150","149.59","114.38","35.21","28.70","33.5","11.08","90480","28.00","DUALSPOT-UV-BLUE-GREEN-RED-IR","796136","717794","907489","4.386035","1.413728","0.016631","765684","901867","765035","3.475159","1.142597","0.027306","858433","903835","813637","3.033060","1.011383","0.038087","851978","927183","864223","2.542174","0.855505","0.000000","723111","848509","950201","1.763582","0.562779","0.000000","14885","15679","16057","14934","15985","16499","14733","16016","16657","14822","16109","14822","13953","14734","13953",""
"MA200-0416","33137","97","1","1.10","1.4","2023-05-31T20:50:30","120","2023/05/31","20:50:30","-15.79565167427063","35.00300083332695","0.0","17","30","64","88","-24","-604","-26412","16","150","150.70","114.79","35.91","28.62","33.6","11.02","90484","27.94","DUALSPOT-UV-BLUE-GREEN-RED-IR","790887","714261","903750","4.633527","1.495470","0.016468","761580","898229","762407","3.668168","1.206743","0.023249","859513","905975","816020","3.200728","1.068311","0.035547","847343","923043","860747","2.682895","0.903886","0.000000","725201","851551","953851","1.857942","0.592030","0.000000","12663","13371","13709","12464","13244","13626","12126","13163","13683","12298","13518","12298","11482","11380","11482",""
"MA200-0416","33138","97","1","1.10","1.4","2023-05-31T20:51:00","120","2023/05/31","20:51:00","-15.79565280675888","35.002883333247155","0.3","17","30","64","88","36","-496","-26280","16","150","149.45","114.28","35.17","28.56","33.6","10.99","0","0.00","DUALSPOT-UV-BLUE-GREEN-RED-IR","789399","714173","904450","4.901739","1.584549","0.021408","760251","897889","762690","3.880826","1.278251","0.031320","858704","906233","816819","3.386295","1.130867","0.037043","846682","923272","861410","2.840036","0.957971","0.000000","725301","852264","955022","1.964124","0.625911","0.000000","13785","14878","15401","13794","15075","15703","13481","14769","15414","13795","15430","13795","12979","13459","12979",""
"MA200-0416","33139","97","1","1.10","1.4","2023-05-31T20:51:30","120","2023/05/31","20:51:30","-15.795681655406952","35.002963833278045","0.1","17","30","64","87","157","-553","-27896","16","150","149.09","113.13","35.96","28.49","33.6","10.95","0","0.00","DUALSPOT-UV-BLUE-GREEN-RED-IR","789246","715216","906575","5.159695","1.672864","0.019843","760325","899127","764250","4.081418","1.347780","0.029150","854815","903141","814488","3.560263","1.191979","0.038333","841769","918758","857638","2.985087","1.009803","0.000000","722518","849563","952319","2.066104","0.660500","0.000000","13393","14425","14920","13144","14333","14920","12767","14109","14785","12863","14461","12863","12593","13437","12593",""
"MA200-0416","33140","97","1","1.10","1.4","2023-05-31T20:52:00","120","2023/05/31","20:52:00","-15.795603334903717","35.00292633310892","0.1","17","30","64","88","-72","-628","-26300","16","150","149.70","114.52","35.18","28.43","33.7","10.92","90480","27.81","DUALSPOT-UV-BLUE-GREEN-RED-IR","788773","715924","908198","5.394429","1.751581","0.022157","760087","899936","765407","4.264842","1.410484","0.033834","854005","903218","814998","3.719568","1.246791","0.041133","847586","925911","864704","3.118298","1.055639","0.049289","722527","850065","953104","2.155658","0.690301","0.000000","12039","13142","13673","11873","13213","13876","11549","12936","13635","11670","13072","13789","10924","11834","10924",""
"MA200-0416","33141","97","1","1.10","1.4","2023-05-31T20:52:30","120","2023/05/31","20:52:30","-15.795568227767944","35.00293183303438","0.1","17","30","64","87","-16","-552","-26219","16","150","150.31","114.28","36.03","28.37","33.7","10.88","90484","27.81","DUALSPOT-UV-BLUE-GREEN-RED-IR","785005","713602","906018","5.636771","1.837438","0.027482","756866","897194","763612","4.451946","1.478487","0.041782","852517","902567","814886","3.880203","1.305866","0.051649","846245","925199","864471","3.253648","1.105010","0.058974","721920","849877","953250","2.249469","0.723532","0.000000","12456","13995","14739","12137","13990","14911","11670","13610","14595","11882","13746","14704","11467","12882","11467",""
"MA200-0416","33142","97","1","1.10","1.4","2023-05-31T20:53:00","120","2023/05/31","20:53:00","-15.79555469751358","35.00289983279072","0.1","17","30","64","87","84","-540","-26503","16","150","149.83","114.52","35.31","28.30","33.8","10.85","90484","27.75","DUALSPOT-UV-BLUE-GREEN-RED-IR","781984","711898","904573","5.864343","1.916631","0.027351","754795","895739","762841","4.627644","1.538711","0.030971","850565","901335","814199","4.031068","1.357751","0.036768","844215","923744","863501","3.377684","1.149397","0.057964","720929","849171","952701","2.332857","0.752041","0.000000","11672","13173","13901","11373","12643","13276","10937","12199","12840","10866","12611","13511","10171","11278","10171",""
"MA200-0416","33143","97","1","1.10","1.4","2023-05-31T20:53:30","120","2023/05/31","20:53:30","-15.795560836791992","35.00285783293657","0.4","17","30","64","87","-52","-472","-25800","16","150","149.73","114.13","35.60","28.25","33.9","10.84","90484","27.69","DUALSPOT-UV-BLUE-GREEN-RED-IR","785698","716354","910937","6.089172","1.991859","0.015995","753282","894969","762631","4.800213","1.597333","0.024510","848248","899813","813211","4.181355","1.410853","0.039896","840799","920737","861083","3.500995","1.193845","0.054523","719344","847784","951406","2.417961","0.779649","0.000000","11570","12411","12819","11209","12206","12704","10932","12383","13121","10840","12525","13397","10416","10832","10416",""
"MA200-0416","33144","97","1","1.10","1.4","2023-05-31T20:54:00","120","2023/05/31","20:54:00","-15.795593619346619","35.002856999635696","0.1","17","30","64","86","-56","-572","-26228","16","150","150.11","114.50","35.61","28.18","34.0","10.85","90488","27.69","DUALSPOT-UV-BLUE-GREEN-RED-IR","781508","713624","908186","6.320452","2.072053","0.023067","749288","891225","759896","4.976658","1.660175","0.035904","850389","902951","816522","4.332465","1.463853","0.037290","843438","924395","864899","3.626683","1.238649","0.050046","717766","846373","950112","2.502416","0.806942","0.000000","11864","13225","13889","11424","13080","13909","10957","12355","13068","11013","12621","13455","10304","10705","10304",""
"MA200-0416","33145","97","1","1.10","1.4","2023-05-31T20:54:30","120","2023/05/31","20:54:30","-15.79559713602066","35.00285733281635","0.0","17","30","64","87","16","-504","-26388","16","150","149.87","114.67","35.20","28.13","34.1","10.85","90492","27.63","DUALSPOT-UV-BLUE-GREEN-RED-IR","779742","713117","908248","6.552668","2.151888","0.023132","753184","896989","765313","5.156877","1.722436","0.030745","849333","902759","816782","4.487222","1.517325","0.035548","842922","924601","865431","3.754352","1.282751","0.042603","717770","846898","950973","2.589613","0.836668","0.000000","11894","13321","14019","11651","13113","13846","11204","12612","13331","11170","12570","13297","10622","11797","10622",""
"MA200-0416","33146","97","1","1.10","1.4","2023-05-31T20:55:00","120","2023/05/31","20:55:00","-15.795665323734283","35.00292733311653","0.1","17","30","64","87","-72","-544","-26116","16","150","149.96","114.72","35.24","28.08","34.3","10.87","90492","27.56","DUALSPOT-UV-BLUE-GREEN-RED-IR","776452","711186","906518","6.790492","2.234079","0.023111","750619","894979","764090","5.341559","1.785696","0.027561","847374","901617","816193","4.648364","1.572537","0.031911","841390","923683","864986","3.889169","1.329302","0.040736","716698","846146","950411","2.681224","0.865903","0.000000","12176","13697","14443","11934","13306","13994","11662","13006","13693","11790","13251","14010","11155","11588","11155",""
"MA200-0416","33147","97","1","1.10","1.4","2023-05-31T20:55:30","120","2023/05/31","20:55:30","-15.795678198337555","35.00293333339505","0.1","17","30","64","86","0","-556","-26463","16","150","150.19","115.24","34.95","28.02","34.4","10.86","90492","27.56","DUALSPOT-UV-BLUE-GREEN-RED-IR","772936","709009","904520","7.022618","2.316202","0.028360","747867","892736","762612","5.520979","1.848579","0.034365","844903","899858","815048","4.804230","1.628470","0.045203","836478","919081","861087","4.019432","1.376432","0.056477","718577","848905","953753","2.771381","0.894843","0.000000","11830","13802","14773","11541","13339","14244","11228","13288","14344","11340","13530","14670","10928","11568","10928",""
"MA200-0416","33148","97","1","1.10","1.4","2023-05-31T20:56:00","120","2023/05/31","20:56:00","-15.795664370059967","35.00291816634126","0.4","17","30","64","86","8","-456","-26296","16","150","149.76","115.04","34.73","27.98","34.5","10.86","90496","27.50","DUALSPOT-UV-BLUE-GREEN-RED-IR","771139","708446","904442","7.249372","2.392734","0.020661","746725","892398","762778","5.695877","1.906925","0.023949","843804","899607","815247","4.955781","1.678716","0.026105","836862","920269","862550","4.145773","1.419031","0.036406","718849","849730","954969","2.856838","0.921177","0.000000","11577","12944","13617","11270","12455","13051","10937","12012","12562","11018","12307","12977","10377","10593","10377",""
"MA200-0416","33149","97","1","1.10","1.4","2023-05-31T20:56:30","120","2023/05/31","20:56:30","-15.795633256435394","35.00289599969983","0.2","17","30","64","86","448","-344","-26496","16","150","149.43","114.08","35.35","27.95","34.5","10.84","90492","27.50","DUALSPOT-UV-BLUE-GREEN-RED-IR","774493","712541","910417","7.471767","2.470539","0.021618","745031","891368","762367","5.866228","1.966310","0.026964","841370","897905","814096","5.101157","1.728927","0.028952","840190","924662","867059","4.266826","1.460492","0.032328","717296","848379","953689","2.939943","0.947639","0.000000","11450","12927","13656","11070","12452","13150","10580","11791","12413","10646","11766","12349","10176","10456","10176",""
"MA200-0416","33150","97","1","1.10","1.4","2023-05-31T20:57:00","120","2023/05/31","20:57:00","-15.795622527599335","35.0029253331013","0.5","17","30","64","86","-76","-624","-26119","16","150","149.46","114.46","35.00","27.90","34.5","10.83","90492","27.44","DUALSPOT-UV-BLUE-GREEN-RED-IR","769484","708982","906578","7.696161","2.549047","0.023034","741292","887927","759882","6.039373","2.027088","0.030148","838683","895875","812677","5.248731","1.780754","0.034946","836060","920875","863870","4.388850","1.503902","0.045347","715209","846372","951708","3.024505","0.975019","0.026401","11514","13174","13995","11214","12872","13710","10704","12292","13108","10695","12442","13353","10320","10927","11216",""
"MA200-0416","33151","97","1","1.10","1.4","2023-05-31T20:57:30","120","2023/05/31","20:57:30","-15.795572340488434","35.00296349986456","0.6","17","30","64","86","0","-352","-26303","16","150","150.21","114.54","35.67","27.85","34.6","10.79","90488","27.44","DUALSPOT-UV-BLUE-GREEN-RED-IR","769127","709649","908188","7.917080","2.628471","0.023723","741133","888670","760970","6.210090","2.088075","0.029225","838750","896787","813936","5.396682","1.834404","0.036955","836515","922090","865367","4.512010","1.546209","0.030048","715918","847673","953448","3.107803","1.005290","0.063689","11328","13078","13947","11048","12674","13498","10723","12487","13395","10787","11899","12479","10158","11854","12665",""
"MA200-0416","33152","97","1","1.10","1.4","2023-05-31T20:58:00","120","2023/05/31","20:58:00","-15.795616567134857","35.00294483313337","0.1","17","30","72","86","40","-384","-26432","16","150","149.40","114.17","35.23","27.81","34.6","10.77","90492","27.38","DUALSPOT-UV-BLUE-GREEN-RED-IR","767119","708827","907819","8.140991","2.705621","0.018257","743955","893089","765185","6.381222","2.145971","0.019857","841259","900346","817579","5.544484","1.884359","0.022747","723111","797718","748983","4.634174","1.589053","0.037114","714668","846684","952597","3.189861","1.031036","0.007572","11519","12862","13530","11112","12182","12724","10748","11772","12299","10735","12200","12965","10040","10208","10289",""
"MA200-0416","33153","97","1","1.10","1.4","2023-05-31T20:58:30","120","2023/05/31","20:58:30","-15.795594036579132","35.00289566651918","0.1","17","30","64","86","32","-396","-25863","16","150","150.15","114.31","35.84","27.76","34.7","10.75","90488","27.38","DUALSPOT-UV-BLUE-GREEN-RED-IR","763810","706801","905890","8.360985","2.784391","0.021003","741732","891352","764188","6.549184","2.206939","0.029359","839553","899382","817131","5.691165","1.937174","0.032290","832426","919013","863233","4.754892","1.632010","0.035866","713979","846345","952463","3.273826","1.058344","0.015994","11303","12909","13711","10892","12611","13485","10653","12235","13051","10595","12025","12773","10261","10644","10828",""
"MA200-0416","33154","97","1","1.10","1.4","2023-05-31T20:59:00","120","2023/05/31","20:59:00","-15.795595169067383","35.002896666526794","0.2","17","30","64","86","36","-483","-26463","16","150","149.73","114.65","35.08","27.73","34.8","10.77","90492","27.38","DUALSPOT-UV-BLUE-GREEN-RED-IR","760773","705007","904325","8.587513","2.861232","0.016299","739304","889494","763007","6.725595","2.264392","0.013136","837756","898366","816631","5.842918","1.987528","0.019397","831498","918776","863381","4.883021","1.673918","0.019421","713218","845921","952241","3.361389","1.084869","-0.004495","11605","12864","13493","11406","12140","12512","10989","11916","12393","11212","11984","12387","10669","10561","10510",""
"MA200-0416","33155","97","1","1.10","1.4","2023-05-31T20:59:30","120","2023/05/31","20:59:30","-15.795594990253448","35.00298766628839","0.1","17","30","64","85","-76","-568","-26075","16","150","149.86","114.69","35.17","27.69","34.8","10.75","90484","27.31","DUALSPOT-UV-BLUE-GREEN-RED-IR","763677","708675","909661","8.796595","2.933622","0.018430","736589","887127","761406","6.886056","2.319717","0.022919","835486","896718","815524","5.981160","2.034092","0.021678","827500","915047","860193","4.996086","1.712184","0.027249","711322","844168","950498","3.441709","1.110220","0.011990","10707","12088","12779","10372","11661","12315","10007","10991","11498","9890","10915","11449","9783","10068","10204",""
"MA200-0416","33156","97","1","1.10","1.4","2023-05-31T21:00:00","120","2023/05/31","21:00:00","-15.795563519001007","35.00299266632646","0.2","17","30","64","86","-107","-607","-26057","16","150","149.43","114.53","34.90","27.65","34.8","10.72","90484","27.25","DUALSPOT-UV-BLUE-GREEN-RED-IR","762385","708419","909997","9.005062","3.005161","0.017702","735783","887071","761780","7.043307","2.371967","0.017063","834536","896501","815682","6.116742","2.078872","0.018469","827866","916144","861548","5.110817","1.750457","0.024680","711506","844796","951433","3.517627","1.133416","0.001196","10690","12041","12718","10178","11100","11568","9828","10654","11079","10049","11003","11500","9259","9286","9298",""
"MA200-0416","33157","97","1","1.10","1.4","2023-05-31T21:00:30","120","2023/05/31","21:00:30","-15.795616269111633","35.00300733326003","0.2","17","30","64","85","19","-523","-25923","16","150","149.09","114.88","34.21","27.60","34.8","10.69","90488","27.25","DUALSPOT-UV-BLUE-GREEN-RED-IR","757796","705113","906381","9.211161","3.077730","0.023344","732310","883824","759406","7.203449","2.428049","0.029122","831737","894322","814078","6.255472","2.126532","0.030184","830061","919289","864809","5.225121","1.789206","0.033271","713357","847481","954698","3.598583","1.159210","0.025990","10537","12459","13424","10334","12153","13077","10026","11566","12359","9982","11364","12083","9844","10533","10860",""
"MA200-0416","33158","97","1","1.10","1.4","2023-05-31T21:01:00","120","2023/05/31","21:01:00","-15.795619547367096","35.00298549956642","0.2","17","30","64","86","20","-544","-26236","16","150","149.73","114.61","35.12","27.56","34.9","10.67","90488","27.19","DUALSPOT-UV-BLUE-GREEN-RED-IR","757604","705854","908040","9.418598","3.151687","0.020939","737059","890487","765548","7.363155","2.484644","0.025937","831268","894630","814763","6.393588","2.176141","0.032367","829931","919831","865705","5.340625","1.830828","0.039541","713485","848044","955593","3.675642","1.185289","0.036325","10630","12368","13242","10330","11945","12768","10004","11727","12615","10110","11889","12817","9392","10373","10839",""
"MA200-0416","33159","97","1","1.10","1.4","2023-05-31T21:01:30","120","2023/05/31","21:01:30","-15.795603513717651","35.00295616639778","0.2","17","30","64","86","-76","-492","-26224","16","150","149.80","114.27","35.53","27.53","34.9","10.65","90488","27.19","DUALSPOT-UV-BLUE-GREEN-RED-IR","755417","704775","907307","9.623600","3.225727","0.020324","735637","889680","765280","7.521097","2.540868","0.023883","830119","894159","814724","6.530339","2.223843","0.023898","828192","918552","864846","5.452480","1.869731","0.028058","712742","847627","955375","3.755525","1.210450","0.005035","10537","12240","13099","10246","11732","12490","9935","11147","11773","9820","10986","11594","9765","9893","9954",""
"MA200-0416","33160","97","1","1.10","1.4","2023-05-31T21:02:00","120","2023/05/31","21:02:00","-15.795628011226654","35.00297549972311","0.1","17","30","64","85","28","-416","-26296","16","150","149.68","114.29","35.39","27.50","35.0","10.65","90488","27.19","DUALSPOT-UV-BLUE-GREEN-RED-IR","751694","702232","904681","9.830879","3.298704","0.017394","731909","886077","762591","7.681026","2.595461","0.017444","827588","892267","813358","6.668354","2.270555","0.018549","824979","915669","862467","5.569131","1.908284","0.016692","711098","846133","953903","3.834612","1.234638","-0.004794","10652","12112","12849","10373","11435","11978","10025","10958","11440","10239","10929","11289","9666","9548","9491",""
"MA200-0416","33161","97","1","1.10","1.4","2023-05-31T21:02:30","120","2023/05/31","21:02:30","-15.795608818531036","35.002986332867295","0.7","17","30","64","86","-72","-588","-26163","16","150","150.23","114.44","35.79","27.45","35.0","10.63","90488","27.13","DUALSPOT-UV-BLUE-GREEN-RED-IR","750568","702090","905184","10.037979","3.371854","0.016257","731185","886115","763086","7.840689","2.651674","0.020378","826962","892327","813849","6.805945","2.318989","0.023525","825301","916741","863824","5.683911","1.948106","0.025115","711205","846740","954831","3.914156","1.260255","0.010780","10629","12005","12702","10342","11644","12309","9981","11236","11884","10062","11163","11738","9709","9999","10137",""
"MA200-0416","33162","97","1","1.10","1.4","2023-05-31T21:03:00","120","2023/05/31","21:03:00","-15.795614004135132","35.00291116628796","0.3","17","30","64","85","-304","-492","-25852","16","150","149.70","114.36","35.34","27.42","35.0","10.61","90484","27.13","DUALSPOT-UV-BLUE-GREEN-RED-IR","746317","699042","901895","10.237736","3.442876","0.018066","728123","883329","761086","7.994903","2.706642","0.023561","828413","894712","816420","6.939436","2.365756","0.024312","821253","912920","860565","5.794214","1.987397","0.032563","709036","844620","952692","3.992532","1.285800","0.018711","10259","11804","12587","9996","11531","12316","9691","10987","11657","9676","11155","11927","9574","10098","10346",""
"MA200-0416","33163","97","1","1.10","1.4","2023-05-31T21:03:30","120","2023/05/31","21:03:30","-15.795642018318176","35.002925666514784","0.1","17","30","64","85","20","-668","-26732","16","150","149.92","114.50","35.43","27.39","35.1","10.60","90488","27.13","DUALSPOT-UV-BLUE-GREEN-RED-IR","752189","705401","910779","10.435381","3.516685","0.022799","728290","884343","762398","8.147719","2.763122","0.027918","828320","895384","817439","7.072712","2.415013","0.032242","822037","914404","862306","5.905189","2.028095","0.037275","709615","845714","954168","4.071050","1.311845","0.023629","10139","12237","13304","9894","11819","12807","9664","11544","12518","9724","11526","12468","9579","10270","10599",""
"MA200-0416","33164","97","1","1.10","1.4","2023-05-31T21:04:00","120","2023/05/31","21:04:00","-15.795649468898773","35.0029231661465","0.2","17","30","64","85","-8","-388","-26447","16","150","149.90","114.48","35.42","27.35","35.1","10.57","90488","27.06","DUALSPOT-UV-BLUE-GREEN-RED-IR","749596","703867","909369","10.629557","3.584503","0.015321","726662","883249","761834","8.299634","2.814020","0.013436","826112","893772","816297","7.203776","2.458178","0.012389","825073","918481","866418","6.015711","2.063024","0.005273","708047","844291","952756","4.145607","1.333406","-0.025669","9962","11247","11900","9837","10653","11072","9505","10118","10436","9685","9894","10003","9097","8504","8222",""
"MA200-0416","33165","97","1","1.10","1.4","2023-05-31T21:04:30","120","2023/05/31","21:04:30","-15.795629680156708","35.00291633279994","0.2","17","30","64","85","-48","-552","-26188","16","150","150.33","114.29","36.04","27.31","35.1","10.56","90488","27.06","DUALSPOT-UV-BLUE-GREEN-RED-IR","745213","700570","905748","10.815594","3.651407","0.016192","727665","885295","764005","8.443481","2.865572","0.020301","824192","892428","815415","7.328689","2.502113","0.020367","822782","916553","864976","6.120579","2.101159","0.030933","706599","842997","951519","4.218450","1.356438","0.000990","9560","10904","11590","9330","10605","11260","9073","10122","10665","9205","10617","11355","8903","8928","8940",""
"MA200-0416","33166","97","1","1.10","1.4","2023-05-31T21:05:00","120","2023/05/31","21:05:00","-15.795640707015991","35.002912499709055","0.2","17","30","64","85","-92","-656","-26263","16","150","149.70","114.60","35.10","27.28","35.1","10.52","90484","27.00","DUALSPOT-UV-BLUE-GREEN-RED-IR","745323","701543","907593","11.002979","3.719400","0.019828","727698","886201","765165","8.586635","2.916515","0.022935","823876","892833","816141","7.453543","2.546114","0.024982","823130","917585","866225","6.225107","2.136981","0.024634","706844","843705","952548","4.291719","1.380836","0.026550","9604","11378","12284","9260","10760","11531","9045","10407","11114","9151","10239","10808","8931","9710","10080",""
"MA200-0416","33167","97","1","1.10","1.4","2023-05-31T21:05:30","120","2023/05/31","21:05:30","-15.795629680156708","35.00289349979721","0.2","17","30","64","85","-15","-438","-26300","16","150","149.83","114.36","35.47","27.25","35.2","10.52","90488","27.00","DUALSPOT-UV-BLUE-GREEN-RED-IR","740633","697987","903653","11.199091","3.789903","0.017311","724314","882931","762736","8.742041","2.970661","0.018004","821312","890785","814669","7.588197","2.594047","0.024158","819503","914188","863360","6.336046","2.175444","0.024009","705134","842074","950939","4.367981","1.404270","-0.003175","10072","11674","12494","10074","11316","11955","9775","11219","11969","9732","10879","11478","9315","9229","9188",""
"MA200-0416","33168","97","1","1.10","1.4","2023-05-31T21:06:00","120","2023/05/31","21:06:00","-15.795622527599335","35.00289066624828","0.5","17","30","64","85","-17","-557","-26322","16","150","150.55","114.57","35.98","27.23","35.3","10.55","90484","27.00","DUALSPOT-UV-BLUE-GREEN-RED-IR","741865","700053","907007","11.401384","3.863983","0.017608","725017","884679","764705","8.898933","3.026165","0.018072","821172","891435","815649","7.725042","2.641463","0.017562","818990","914287","863817","6.451195","2.215736","0.022971","705111","842554","951722","4.451782","1.431385","0.009599","10370","12092","12975","10151","11435","12097","9916","10940","11472","10083","11234","11837","10217","10527","10673",""
"MA200-0416","33169","97","1","1.10","1.4","2023-05-31T21:06:30","120","2023/05/31","21:06:30","-15.795583188533783","35.00292883324437","0.6","17","30","64","85","-28","-540","-26463","16","150","149.39","114.84","34.55","27.20","35.3","10.55","90488","27.00","DUALSPOT-UV-BLUE-GREEN-RED-IR","744771","703681","912357","11.602293","3.936376","0.019851","722802","882917","763571","9.058012","3.081001","0.019980","819583","890537","815193","7.863808","2.688330","0.019975","818364","914291","864176","6.567671","2.254372","0.020568","704595","842421","951831","4.532205","1.456027","0.005845","10275","12307","13350","10269","11766","12538","10032","11262","11901","10175","11219","11765","9783","9963","10049",""
"MA200-0416","33170","97","1","1.10","1.4","2023-05-31T21:07:00","120","2023/05/31","21:07:00","-15.795551896095276","35.0028808331117","0.5","17","30","64","85","-64","-572","-26380","16","150","149.70","114.92","34.78","27.16","35.5","10.57","90484","26.94","DUALSPOT-UV-BLUE-GREEN-RED-IR","736905","697229","904649","11.814699","4.010753","0.016251","721546","882368","763565","9.227256","3.138227","0.016344","817976","889668","814837","8.011449","2.738070","0.018306","816251","912752","863030","6.692210","2.294933","0.015508","703440","841533","951107","4.620403","1.483898","0.013203","10856","12560","13436","10917","12197","12856","10666","11873","12499","10872","11700","12131","10721","11194","11418",""
"MA200-0416","33171","97","1","1.10","1.4","2023-05-31T21:07:30","120","2023/05/31","21:07:30","-15.79562658071518","35.0029336665757","0.3","17","30","64","85","0","-532","-26472","16","150","150.23","114.60","35.63","27.14","35.5","10.58","90484","26.94","DUALSPOT-UV-BLUE-GREEN-RED-IR","733407","695204","902962","12.083792","4.106962","0.015324","718826","880321","762427","9.444020","3.215688","0.019563","816036","888728","814529","8.201092","2.803861","0.018256","814583","911906","862762","6.852125","2.348536","0.015511","702557","841200","951093","4.736370","1.520225","0.002338","13791","15860","16926","14022","16118","17200","13739","15331","16158","14000","15094","15664","14136","14243","14294",""
"MA200-0416","33172","97","1","1.10","1.4","2023-05-31T21:08:00","120","2023/05/31","21:08:00","-15.795684158802032","35.0029628330376","0.2","17","30","64","85","28","-524","-26247","16","150","150.08","114.56","35.51","27.11","35.6","10.56","90488","26.94","DUALSPOT-UV-BLUE-GREEN-RED-IR","737075","699937","910087","12.379431","4.213796","0.016229","717006","879500","762303","9.685044","3.299017","0.015375","814078","887829","814282","8.414901","2.877360","0.016892","812778","910921","862335","7.030766","2.409160","0.017935","705526","845481","956323","4.865833","1.562364","0.014122","15157","17670","18967","15596","17395","18325","15494","17183","18061","15644","17127","17901","15786","16576","16950",""
"MA200-0416","33173","97","1","1.10","1.4","2023-05-31T21:08:30","120","2023/05/31","21:08:30","-15.795725703239441","35.00299449963495","0.1","17","30","64","85","28","-568","-26319","16","150","149.92","114.34","35.58","27.08","35.6","10.56","90484","26.88","DUALSPOT-UV-BLUE-GREEN-RED-IR","734012","698180","908672","12.647366","4.314415","0.018899","715227","878437","762023","9.902145","3.378713","0.021657","815868","890797","817560","8.604353","2.945577","0.022429","809953","908665","860671","7.192706","2.467334","0.026480","704113","844436","955493","4.983059","1.601498","0.019476","13763","16611","18086","14075","16606","17917","13755","15919","17045","14208","16405","17551","14321","15366","15860",""
"MA200-0416","33174","97","1","1.10","1.4","2023-05-31T21:09:00","120","2023/05/31","21:09:00","-15.795703172683716","35.0029558329843","0.1","17","30","64","85","20","-448","-26280","16","150","149.92","114.69","35.23","27.06","35.7","10.58","90484","26.88","DUALSPOT-UV-BLUE-GREEN-RED-IR","732040","697404","908505","12.893673","4.407753","0.020307","717170","881986","765650","10.101014","3.452898","0.024306","810312","885728","813416","8.777947","3.009039","0.025539","814836","915022","867175","7.337608","2.519440","0.028088","699356","839324","950060","5.087726","1.636952","0.025810","12614","15559","17088","12854","15607","17037","12566","14953","16197","12675","14836","15966","12749","14056","14676",""
"MA200-0416","33175","97","1","1.10","1.4","2023-05-31T21:09:30","120","2023/05/31","21:09:30","-15.795639157295227","35.00296333339065","0.5","17","30","64","84","-64","-592","-26324","16","150","149.96","114.44","35.52","27.05","35.8","10.60","90484","26.88","DUALSPOT-UV-BLUE-GREEN-RED-IR","728017","694818","906072","13.172588","4.509451","0.015931","710244","874760","760001","10.329219","3.533722","0.017088","811662","888416","816488","8.980023","3.078639","0.015918","810168","910830","863664","7.509267","2.577382","0.015642","701012","842028","953485","5.212318","1.677100","0.010208","14315","16815","18117","14782","16867","17951","14660","16266","17105","15049","16364","17052","15208","15788","16063",""
"MA200-0416","33176","97","1","1.10","1.4","2023-05-31T21:10:00","120","2023/05/31","21:10:00","-15.795630037784576","35.00296549964696","0.3","17","30","64","85","40","-568","-26268","16","150","149.83","114.76","35.07","27.01","35.9","10.60","90484","26.81","DUALSPOT-UV-BLUE-GREEN-RED-IR","726632","694713","906870","13.451035","4.610391","0.016410","713358","879902","765102","10.558382","3.613931","0.017133","806740","884177","813136","9.180129","3.147852","0.018192","811211","913046","866279","7.679276","2.633738","0.014863","701481","843321","955333","5.336614","1.715319","0.001673","14251","16904","18288","14803","16954","18073","14476","16384","17379","14863","16121","16778","15130","15223","15266",""
"MA200-0416","33177","97","1","1.10","1.4","2023-05-31T21:10:30","120","2023/05/31","21:10:30","-15.795629858970642","35.00294433301315","0.4","17","30","64","84","-124","-588","-26288","16","150","150.03","114.88","35.15","27.00","35.9","10.59","90484","26.81","DUALSPOT-UV-BLUE-GREEN-RED-IR","724906","694245","907210","13.725555","4.712450","0.017969","711933","879385","765245","10.778796","3.693456","0.019867","804906","883262","812857","9.375667","3.216344","0.019256","808889","911389","865192","7.844271","2.690792","0.021069","700355","842645","954951","5.458978","1.756012","0.020789","14036","17053","18631","14223","16771","18099","14131","16177","17245","14409","16284","17262","14879","16172","16784",""
"MA200-0416","33178","97","1","1.10","1.4","2023-05-31T21:11:00","120","2023/05/31","21:11:00","-15.79551386833191","35.00288066640496","0.4","18","30","64","84","12","-483","-26072","16","150","149.09","114.88","34.21","26.97","35.9","10.56","90484","26.81","DUALSPOT-UV-BLUE-GREEN-RED-IR","720474","691072","903856","13.974525","4.806368","0.020685","708995","876871","763618","10.982241","3.767223","0.022655","805999","885472","815420","9.554874","3.281843","0.026920","804977","907887","862312","7.996286","2.745461","0.030046","698010","840474","952802","5.566961","1.791131","0.021477","12729","16125","17905","13128","15985","17477","12951","15896","17436","13276","16033","17474","13131","14340","14914",""
"MA200-0416","33179","97","1","1.10","1.4","2023-05-31T21:11:30","120","2023/05/31","21:11:30","-15.795564472675323","35.002858666237444","0.3","18","30","64","85","-88","-632","-26440","16","150","150.03","114.28","35.75","26.96","35.9","10.56","90480","26.75","DUALSPOT-UV-BLUE-GREEN-RED-IR","719768","691515","905350","14.233286","4.903372","0.016327","708078","876897","764233","11.191722","3.845996","0.021040","805009","885444","815943","9.738124","3.348082","0.019680","805077","908922","863809","8.151755","2.799230","0.017001","697887","840921","953730","5.680774","1.829935","0.020623","13299","15938","17325","13588","16335","17774","13312","15383","16469","13648","15090","15844","13912","15163","15758",""
"MA200-0416","33180","97","1","1.10","1.4","2023-05-31T21:12:00","120","2023/05/31","21:12:00","-15.795603156089783","35.002867833012715","0.1","18","30","64","84","44","-524","-26363","16","150","149.67","114.80","34.87","26.93","35.8","10.52","90484","26.75","DUALSPOT-UV-BLUE-GREEN-RED-IR","717804","690787","905294","14.500278","5.001884","0.017031","705983","875512","763606","11.409658","3.922880","0.017313","803909","885330","816401","9.930690","3.415799","0.019526","804391","909107","864466","8.316648","2.855742","0.019664","697623","841275","954463","5.798912","1.868321","0.016104","13660","16594","18140","14073","16346","17537","13926","16123","17276","14410","16260","17227","14375","15379","15856",""
"MA200-0416","33181","97","1","1.10","1.4","2023-05-31T21:12:30","120","2023/05/31","21:12:30","-15.795616090297699","35.002859166357666","0.1","18","30","64","84","56","-580","-26340","16","150","150.35","114.29","36.06","26.91","35.8","10.50","90484","26.75","DUALSPOT-UV-BLUE-GREEN-RED-IR","713147","687459","901806","14.769217","5.103336","0.015585","702712","872641","761741","11.627387","4.004091","0.018707","800928","883130","814895","10.122729","3.484713","0.017118","800686","905877","861846","8.478286","2.913057","0.018734","695438","839342","952632","5.918724","1.907209","0.006884","13820","16525","17953","14122","16696","18048","13949","15867","16873","14188","15947","16867","14643","15065","15266",""
"MA200-0416","33182","97","1","1.10","1.4","2023-05-31T21:13:00","120","2023/05/31","21:13:00","-15.795727491378784","35.002887999406084","0.1","18","30","64","84","-52","-548","-26236","16","150","149.57","114.64","34.93","26.89","35.8","10.48","90480","26.69","DUALSPOT-UV-BLUE-GREEN-RED-IR","718783","693905","911079","15.006388","5.191778","0.016998","702989","874057","763470","11.818044","4.071588","0.016767","800305","883388","815623","10.291184","3.543609","0.017851","800249","906216","862621","8.621761","2.961832","0.017391","695164","839560","953230","6.022722","1.941838","0.020021","12151","14873","16312","12329","14326","15375","12199","13999","14945","12556","14010","14771","12672","13850","14410",""
"MA200-0416","33183","97","1","1.10","1.4","2023-05-31T21:13:30","120","2023/05/31","21:13:30","-15.795680165290833","35.0028808331117","0.3","18","30","64","84","28","-460","-26296","16","150","149.57","114.44","35.13","26.85","35.8","10.45","90484","26.69","DUALSPOT-UV-BLUE-GREEN-RED-IR","716783","692987","910654","15.239067","5.277858","0.015685","701229","872907","762990","12.005941","4.139560","0.017841","798607","882454","815227","10.456773","3.601962","0.017625","798722","905316","862171","8.761724","3.009945","0.017633","694310","839108","952991","6.124025","1.974287","0.009868","11942","14394","15693","12171","14345","15489","12012","13792","14727","12270","13742","14512","12365","12904","13161",""
"MA200-0416","33184","97","1","1.10","1.4","2023-05-31T21:14:00","120","2023/05/31","21:14:00","-15.79567164182663","35.00286383298226","0.1","18","30","64","84","32","-572","-26312","16","150","149.92","114.46","35.46","26.82","35.8","10.41","90484","26.69","DUALSPOT-UV-BLUE-GREEN-RED-IR","714760","691976","910063","15.458233","5.359178","0.015020","699761","872086","762752","12.183734","4.203737","0.016518","797590","882201","815468","10.612887","3.658294","0.018919","797577","904765","862052","8.892957","3.055626","0.017804","693677","838855","953013","6.219265","2.005020","0.009280","11246","13468","14647","11515","13415","14416","11323","13188","14168","11503","12923","13666","11623","12106","12335",""
"MA200-0416","33185","97","1","1.10","1.4","2023-05-31T21:14:30","120","2023/05/31","21:14:30","-15.795575499534607","35.00284649967216","0.3","18","30","64","84","-30","-665","-26465","16","150","149.46","114.59","34.88","26.80","35.8","10.39","90484","26.69","DUALSPOT-UV-BLUE-GREEN-RED-IR","712280","690549","908918","15.675531","5.442032","0.017801","697821","870658","761968","12.359645","4.267145","0.017766","795471","880745","814544","10.766963","3.713578","0.019915","795584","903325","861069","9.024865","3.102088","0.021414","692323","837832","952127","6.316828","2.035144","0.003302","11138","13953","15449","11380","13477","14582","11163","13159","14210","11549","13365","14316","11894","12065","12147",""
"MA200-0416","33186","97","1","1.10","1.4","2023-05-31T21:15:00","120","2023/05/31","21:15:00","-15.795484185218811","35.00280649936758","0.6","18","30","64","84","-84","-500","-26146","16","150","149.76","114.28","35.48","26.78","35.8","10.37","90488","26.69","DUALSPOT-UV-BLUE-GREEN-RED-IR","710642","689949","909018","15.915430","5.534199","0.016764","696385","869886","761901","12.555068","4.342169","0.021147","794579","880730","815093","10.940689","3.778112","0.021092","799803","908945","866907","9.173867","3.157049","0.024284","691920","837925","952603","6.424343","2.071456","0.017843","12329","15256","16816","12676","15674","17259","12620","15099","16407","13080","15540","16830","13142","14295","14844",""
"MA200-0416","33187","97","1","1.10","1.4","2023-05-31T21:15:30","120","2023/05/31","21:15:30","-15.79559463262558","35.002847333205864","0.4","18","30","64","84","-50","-513","-26252","16","150","149.33","114.39","34.95","26.75","35.8","10.34","90488","26.69","DUALSPOT-UV-BLUE-GREEN-RED-IR","706617","687078","906053","16.164442","5.629497","0.017279","697789","872779","764987","12.761210","4.417396","0.017958","791387","878201","813269","11.122947","3.843087","0.018260","796317","905926","864458","9.328410","3.210473","0.017896","689638","835766","950485","6.536953","2.108024","0.012987","12786","16016","17742","13360","15957","17332","13228","15435","16600","13555","15336","16271","13752","14617","15028",""
"MA200-0416","33188","97","1","1.10","1.4","2023-05-31T21:16:00","120","2023/05/31","21:16:00","-15.795527815818787","35.00285133300349","0.2","18","30","64","84","20","-636","-26300","16","150","149.59","114.79","34.80","26.72","35.7","10.30","90488","26.63","DUALSPOT-UV-BLUE-GREEN-RED-IR","705819","687113","906785","16.361156","5.705427","0.018070","696888","872498","765181","12.918965","4.475994","0.019850","791505","879109","814489","11.263988","3.893817","0.019698","797471","907953","866749","9.449053","3.253322","0.021964","690304","837059","952210","6.624489","2.137257","0.019707","10065","12816","14289","10187","12483","13701","10200","12103","13109","10543","12354","13305","10652","11735","12251",""
"MA200-0416","33189","97","1","1.10","1.4","2023-05-31T21:16:30","120","2023/05/31","21:16:30","-15.795509934425354","35.00288416654803","0.1","18","30","64","84","4","-540","-26340","16","150","149.45","114.28","35.17","26.70","35.8","10.30","90488","26.63","DUALSPOT-UV-BLUE-GREEN-RED-IR","704482","686752","907065","16.576265","5.786299","0.015332","695525","871829","765075","13.095192","4.538454","0.014399","789809","878128","814026","11.418924","3.948068","0.015250","795746","906726","866001","9.580776","3.298819","0.016428","689274","836381","951790","6.722561","2.168654","0.008373","11055","13507","14822","11431","13167","14088","11255","12808","13629","11564","12980","13724","11988","12472","12703",""
"MA200-0416","33190","97","1","1.10","1.4","2023-05-31T21:17:00","120","2023/05/31","21:17:00","-15.795570194721222","35.00287399953231","0.1","18","30","64","83","-16","-540","-26232","16","150","149.09","113.13","35.96","26.68","35.8","10.29","90488","26.63","DUALSPOT-UV-BLUE-GREEN-RED-IR","700406","683641","903672","16.787768","5.867435","0.014372","692499","868930","763020","13.266965","4.602724","0.016080","787339","876171","812687","11.571701","4.005050","0.018110","792179","903387","863218","9.710866","3.345280","0.016335","687386","834611","950051","6.816925","2.199532","0.006109","10981","13252","14473","11256","13249","14309","11212","13156","14184","11537","12962","13712","11652","11995","12158",""
"MA200-0416","33191","97","1","1.10","1.4","2023-05-31T21:17:30","120","2023/05/31","21:17:30","-15.795580267906189","35.00289499992505","0.1","18","30","64","84","12","-544","-26200","16","150","149.80","114.53","35.26","26.66","35.8","10.27","90492","26.63","DUALSPOT-UV-BLUE-GREEN-RED-IR","700142","684212","905107","16.982748","5.942684","0.016524","692414","869657","764112","13.425166","4.661566","0.018009","787104","876724","813613","11.712479","4.056018","0.018111","792954","905012","865130","9.831620","3.387510","0.017475","687880","835663","951527","6.904487","2.229536","0.020717","9999","12534","13899","10239","12371","13504","10204","12000","12952","10577","12015","12771","10679","11886","12462",""
"MA200-0416","33192","97","1","1.10","1.4","2023-05-31T21:18:00","120","2023/05/31","21:18:00","-15.795655488967896","35.002892666263506","0.1","18","30","64","84","53","-484","-26384","16","150","149.49","114.69","34.80","26.64","35.9","10.30","90492","26.56","DUALSPOT-UV-BLUE-GREEN-RED-IR","698757","683629","905013","17.173408","6.019043","0.019214","691141","868854","763873","13.579630","4.721374","0.021896","789340","879923","817015","11.848606","4.107427","0.022989","790594","902962","863534","9.946156","3.430658","0.027082","686436","834374","950334","6.988147","2.258916","0.026994","9764","12887","14573","9984","12740","14209","9854","12264","13543","10019","12439","13713","10190","11793","12559",""
"MA200-0416","33193","97","1","1.10","1.4","2023-05-31T21:18:30","120","2023/05/31","21:18:30","-15.795687794685364","35.00290449964814","0.2","18","30","64","84","92","-488","-26584","16","150","150.43","114.40","36.03","26.62","36.0","10.29","90492","26.56","DUALSPOT-UV-BLUE-GREEN-RED-IR","696989","682640","904331","17.351066","6.089996","0.016855","689911","868080","763600","13.719884","4.775274","0.018415","788571","879748","817248","11.973331","4.155135","0.020663","789227","902001","862948","10.052910","3.469616","0.019419","689856","838997","955846","7.066925","2.284727","0.007984","9121","11568","12891","9088","11091","12161","9051","10994","12027","9362","10849","11633","9619","10008","10194",""
"MA200-0416","33194","97","1","1.10","1.4","2023-05-31T21:19:00","120","2023/05/31","21:19:00","-15.795605301856995","35.00293133314699","0.2","18","30","64","84","-48","-584","-26163","16","150","149.89","114.73","35.15","26.61","35.9","10.27","90496","26.56","DUALSPOT-UV-BLUE-GREEN-RED-IR","700758","687023","910739","17.522198","6.156828","0.016973","688562","867119","763129","13.856743","4.826565","0.018406","787301","879031","816920","12.093996","4.199231","0.018845","787909","901087","862395","10.157014","3.506547","0.019120","689464","838925","956010","7.142490","2.310423","0.019559","8760","11166","12469","8843","10816","11870","8731","10414","11309","9103","10540","11297","9200","10211","10694",""
"MA200-0416","33195","97","1","1.10","1.4","2023-05-31T21:19:30","120","2023/05/31","21:19:30","-15.795608639717102","35.002910333219916","0.3","18","30","64","83","-8","-468","-26319","16","150","149.98","114.72","35.25","26.58","36.0","10.27","90496","26.50","DUALSPOT-UV-BLUE-GREEN-RED-IR","697939","684981","908667","17.693234","6.223877","0.016863","685935","864547","761262","13.992997","4.877710","0.018134","785338","877564","815904","12.216230","4.243689","0.017970","786006","899525","861242","10.261486","3.544855","0.022211","687983","837555","954676","7.217849","2.335449","0.014754","8756","11170","12480","8804","10754","11798","8845","10469","11334","9136","10901","11833","9176","9916","10269",""
"MA200-0416","33196","97","1","1.10","1.4","2023-05-31T21:20:00","120","2023/05/31","21:20:00","-15.795689940452576","35.00291433301754","0.3","18","30","64","83","-16","-500","-26140","16","150","149.68","114.59","35.10","26.56","36.1","10.29","90492","26.50","DUALSPOT-UV-BLUE-GREEN-RED-IR","697641","685454","909898","17.871974","6.293016","0.016149","686355","865878","762833","14.136562","4.930711","0.016954","785188","878051","816746","12.342692","4.289818","0.018337","785871","900021","862016","10.368997","3.580927","0.012269","687977","838004","955410","7.297584","2.361146","0.009811","9162","11570","12879","9288","11194","12215","9162","10911","11843","9413","10311","10785","9720","10227","10470",""
"MA200-0416","33197","97","1","1.10","1.4","2023-05-31T21:20:30","120","2023/05/31","21:20:30","-15.79566514492035","35.00288199959323","0.2","18","30","64","83","-44","-468","-26508","16","150","150.14","114.84","35.31","26.55","36.1","10.31","90496","26.50","DUALSPOT-UV-BLUE-GREEN-RED-IR","695506","684053","908678","18.047944","6.361442","0.016076","684540","864363","761908","14.279379","4.983080","0.015986","783833","877227","816353","12.467217","4.333866","0.015028","785018","899630","861974","10.477304","3.619199","0.017721","687596","837953","955624","7.376884","2.387259","0.012873","9000","11382","12679","9219","10995","11946","9002","10356","11078","9462","10874","11619","9646","10331","10658",""
"MA200-0416","33198","97","1","1.10","1.4","2023-05-31T21:21:00","120","2023/05/31","21:21:00","-15.795635223388672","35.00286233308725","0.1","18","30","64","84","-36","-435","-26275","16","150","149.54","114.46","35.09","26.53","36.2","10.31","90496","26.50","DUALSPOT-UV-BLUE-GREEN-RED-IR","694486","683769","908950","18.221298","6.430973","0.017716","683722","864077","762045","14.419426","5.036087","0.018384","782845","876854","816388","12.594072","4.380625","0.018812","788878","904678","867157","10.583618","3.658228","0.021915","686351","836879","954641","7.454265","2.412071","0.008546","8895","11639","13136","9070","11199","12342","9201","11064","12058","9318","11160","12133","9444","9878","10086",""
"MA200-0416","33199","97","1","1.10","1.4","2023-05-31T21:21:30","120","2023/05/31","21:21:30","-15.795662343502045","35.0028939996846","0.2","18","30","64","83","52","-538","-26336","16","150","150.49","114.83","35.66","26.52","36.2","10.32","90496","26.50","DUALSPOT-UV-BLUE-GREEN-RED-IR","692979","682989","908531","18.395788","6.502599","0.018063","682514","863261","761780","14.560186","5.093170","0.021967","781238","875719","815691","12.717431","4.427517","0.020106","787740","904009","866828","10.690794","3.697401","0.019905","685692","836496","954484","7.532184","2.440140","0.025398","8925","11796","13366","9087","11866","13360","8919","10916","11983","9364","11020","11895","9479","10995","11721",""
"MA200-0416","33200","97","1","1.10","1.4","2023-05-31T21:22:00","120","2023/05/31","21:22:00","-15.795559048652649","35.00284583331086","0.3","18","30","64","83","392","-300","-27680","16","150","149.09","113.95","35.13","26.51","36.3","10.33","90496","26.44","DUALSPOT-UV-BLUE-GREEN-RED-IR","689896","680629","906041","18.565542","6.570568","0.017028","684126","866053","764608","14.696283","5.144924","0.017981","779494","874390","814841","12.838336","4.473686","0.020877","785461","901964","865195","10.793976","3.735613","0.021799","684397","835353","953416","7.609031","2.466150","0.016611","8749","11363","12794","8853","10920","12033","8808","10910","12034","9084","10912","11879","9420","10341","10783",""
"MA200-0416","33201","97","1","1.10","1.4","2023-05-31T21:22:30","120","2023/05/31","21:22:30","-15.795608818531036","35.00288316607475","0.1","19","30","64","83","-80","-376","-26060","16","150","149.67","114.65","35.02","26.49","36.3","10.31","90496","26.44","DUALSPOT-UV-BLUE-GREEN-RED-IR","691083","682487","909095","18.732198","6.636684","0.016888","680680","862375","761762","14.829752","5.196161","0.019102","779653","875206","815963","12.957343","4.517555","0.018599","785421","902481","866031","10.894266","3.771704","0.019653","684512","835926","954293","7.682945","2.490655","0.014598","8538","11089","12488","8630","10846","12041","8617","10400","11354","8776","10339","11167","9006","9774","10143",""
"MA200-0416","33202","97","1","1.10","1.4","2023-05-31T21:23:00","120","2023/05/31","21:23:00","-15.795618057250977","35.0028981664218","0.1","19","30","64","83","-20","-668","-26347","16","150","149.56","114.00","35.55","26.48","36.2","10.28","90500","26.44","DUALSPOT-UV-BLUE-GREEN-RED-IR","686884","678997","905024","18.892708","6.700392","0.015720","681977","864678","764189","14.958656","5.246277","0.018401","776747","872588","813848","13.070808","4.560131","0.018192","782534","899729","863692","10.991856","3.806114","0.015146","682524","833884","952200","7.755756","2.513672","0.002544","8269","10524","11763","8382","10449","11565","8263","9941","10841","8588","9709","10303","8922","9043","9101",""
"MA200-0416","33203","97","1","1.10","1.4","2023-05-31T21:23:30","120","2023/05/31","21:23:30","-15.795681118965149","35.002901333151385","0.1","19","30","64","83","-40","-536","-26275","16","150","149.59","114.88","34.71","26.47","36.2","10.27","90500","26.44","DUALSPOT-UV-BLUE-GREEN-RED-IR","687439","680175","907222","19.049680","6.765981","0.019553","682621","866180","765864","15.081924","5.293703","0.019645","777130","873605","815158","13.180941","4.602748","0.022855","783349","901201","865422","11.087012","3.841757","0.024197","683281","835185","953914","7.825374","2.537778","0.022696","8025","11097","12790","7954","10128","11303","7959","10192","11390","8310","10301","11357","8465","9701","10294",""
"MA200-0416","33204","97","1","1.10","1.4","2023-05-31T21:24:00","120","2023/05/31","21:24:00","-15.795632183551788","35.002899499377236","0.1","19","30","64","83","-12","-572","-26324","16","150","150.55","114.76","35.79","26.45","36.3","10.28","90496","26.38","DUALSPOT-UV-BLUE-GREEN-RED-IR","685768","679175","906455","19.213666","6.832536","0.016585","681075","864908","765121","15.213404","5.344475","0.017654","776133","873110","815047","13.296187","4.646373","0.018600","782337","900597","865114","11.186096","3.877943","0.018545","682613","834780","953682","7.898830","2.563634","0.020255","8392","10922","12317","8493","10516","11611","8337","10119","11076","8662","10143","10929","8941","10091","10644",""
"MA200-0416","33205","97","1","1.10","1.4","2023-05-31T21:24:30","120","2023/05/31","21:24:30","-15.795644521713257","35.00291599961929","0.0","19","30","64","83","-28","-548","-26572","16","150","150.24","114.99","35.25","26.43","36.3","10.27","90504","26.38","DUALSPOT-UV-BLUE-GREEN-RED-IR","682774","676830","903907","19.368654","6.896280","0.017901","678733","862558","763470","15.338179","5.395437","0.022103","773796","871049","813468","13.405905","4.688912","0.021594","779235","897593","862551","11.280514","3.914600","0.025703","680836","832995","951842","7.968799","2.587389","0.017244","7916","10622","12118","8044","10718","12169","7921","10020","11148","8237","10434","11601","8500","9414","9854",""
"MA200-0416","33206","97","1","1.10","1.4","2023-05-31T21:25:00","120","2023/05/31","21:25:00","-15.795644521713257","35.00292783300392","0.1","19","30","64","83","16","-516","-26225","16","150","149.55","114.83","34.73","26.41","36.3","10.26","90500","26.38","DUALSPOT-UV-BLUE-GREEN-RED-IR","682657","677399","905231","19.531426","6.961395","0.017102","678285","862698","763968","15.468898","5.445684","0.019066","773951","871873","814596","13.521361","4.732829","0.021001","780692","899804","864994","11.378428","3.950101","0.020522","681532","834283","953554","8.041897","2.611789","0.016569","8326","11013","12502","8439","10726","11969","8347","10499","11658","8555","10256","11161","8892","9816","10260",""
"MA200-0416","33207","97","1","1.10","1.4","2023-05-31T21:25:30","120","2023/05/31","21:25:30","-15.7955801486969","35.002925666514784","0.1","19","30","64","83","40","-564","-26196","16","150","149.92","114.42","35.50","26.40","36.3","10.25","90500","26.38","DUALSPOT-UV-BLUE-GREEN-RED-IR","681665","677077","905351","19.691926","7.023538","0.014125","677789","862745","764362","15.595015","5.493313","0.016102","773048","871437","814531","13.634878","4.774379","0.015889","779216","898691","864199","11.475608","3.983837","0.013424","681089","834122","953635","8.117000","2.634942","-0.001186","8239","10281","11413","8171","9945","10910","8236","9717","10514","8520","9533","10072","9169","9110","9081",""
"MA200-0416","33208","97","1","1.10","1.4","2023-05-31T21:26:00","120","2023/05/31","21:26:00","-15.79547244310379","35.00289966608398","0.5","19","30","64","82","-59","-632","-26175","16","150","150.07","114.48","35.59","26.39","36.3","10.24","90496","26.38","DUALSPOT-UV-BLUE-GREEN-RED-IR","678697","674671","902765","19.842112","7.087694","0.018538","675731","860753","762928","15.716458","5.540842","0.018171","771104","869846","813378","13.742377","4.815614","0.019257","776400","895904","861826","11.567560","4.019165","0.022943","679368","832382","951821","8.183994","2.658453","0.019575","7705","10587","12189","7864","9900","11008","7796","9618","10602","8058","9958","10970","8175","9228","9734",""
"MA200-0416","33209","97","1","1.10","1.4","2023-05-31T21:26:30","120","2023/05/31","21:26:30","-15.795391499996185","35.002892166376114","0.7","19","30","64","83","-104","-564","-26419","16","150","150.43","114.80","35.63","26.37","36.3","10.22","90496","26.31","DUALSPOT-UV-BLUE-GREEN-RED-IR","684477","681019","911733","19.985994","7.145338","0.015594","675835","861472","763919","15.829550","5.584562","0.017381","770841","870142","813927","13.843460","4.853457","0.017415","777103","897259","863388","11.654844","4.049414","0.013015","679541","832946","952689","8.249798","2.679229","0.003039","7361","9503","10694","7303","9097","10075","7310","8818","9632","7628","8518","8992","8007","8146","8213",""
"MA200-0416","33210","97","1","1.10","1.4","2023-05-31T21:27:00","120","2023/05/31","21:27:00","-15.795527040958405","35.002890166360885","0.3","19","30","64","83","-40","-464","-26275","16","150","149.63","114.40","35.23","26.36","36.3","10.21","90500","26.38","DUALSPOT-UV-BLUE-GREEN-RED-IR","677345","674498","903514","20.128134","7.202368","0.015920","674356","860177","763099","15.942485","5.627149","0.016155","770298","870004","814118","13.943851","4.890722","0.017229","776940","897530","863922","11.740746","4.080635","0.018429","679309","833026","952994","8.312801","2.700923","0.017902","7297","9507","10738","7318","8961","9857","7285","8781","9589","7533","8890","9613","7693","8601","9038",""
"MA200-0416","33211","97","1","1.10","1.4","2023-05-31T21:27:30","120","2023/05/31","21:27:30","-15.795593619346619","35.0028688327875","0.1","19","30","64","82","53","-423","-26196","16","150","150.49","114.88","35.61","26.34","36.3","10.20","90500","26.31","DUALSPOT-UV-BLUE-GREEN-RED-IR","680701","678411","909349","20.271110","7.261406","0.016816","672938","859019","762419","16.059315","5.672777","0.017843","768404","868450","812986","14.046676","4.929238","0.017294","773396","893990","860809","11.829124","4.112583","0.017152","677612","831336","951270","8.379883","2.721968","0.002081","7310","9736","11091","7539","9497","10567","7431","8978","9815","7718","9000","9683","8157","8255","8302",""
"MA200-0416","33212","97","1","1.10","1.4","2023-05-31T21:28:00","120","2023/05/31","21:28:00","-15.79562383890152","35.00283683324233","0.4","19","30","64","83","-56","-512","-26203","16","150","149.37","114.38","34.99","26.33","36.4","10.21","90500","26.31","DUALSPOT-UV-BLUE-GREEN-RED-IR","676278","674580","904743","20.417340","7.323986","0.018785","673318","860052","763706","16.176811","5.721308","0.021724","772739","873877","818432","14.151589","4.971915","0.023816","774267","895460","862498","11.918495","4.147827","0.025779","677970","832111","952361","8.444309","2.746100","0.029557","7508","10504","12180","7615","10281","11741","7615","10126","11486","7838","10105","11315","7868","9634","10485",""
"MA200-0416","33213","97","1","1.10","1.4","2023-05-31T21:28:30","120","2023/05/31","21:28:30","-15.795677840709686","35.00282166618854","0.3","19","30","64","83","-36","-508","-26208","16","150","149.57","114.60","34.97","26.33","36.4","10.21","90500","26.31","DUALSPOT-UV-BLUE-GREEN-RED-IR","679242","678051","909921","20.554696","7.381059","0.017554","671616","858443","762585","16.284672","5.764736","0.020324","767462","868450","813631","14.247135","5.009389","0.021453","774012","895640","862950","12.001580","4.179388","0.022760","677762","832183","952668","8.506107","2.767138","0.017212","7039","9587","11014","6977","9207","10429","6921","8897","9968","7273","9055","10007","7533","8404","8825",""
"MA200-0416","33214","97","1","1.10","1.4","2023-05-31T21:29:00","120","2023/05/31","21:29:00","-15.795594036579132","35.002827832940966","0.2","19","30","64","82","157","-619","-27269","16","150","150.56","114.79","35.77","26.31","36.3","10.18","90500","26.31","DUALSPOT-UV-BLUE-GREEN-RED-IR","676520","675868","907491","20.689598","7.436662","0.016198","669671","856532","761229","16.394194","5.808210","0.018174","769178","870891","816219","14.345302","5.046468","0.017199","770314","891778","859511","12.085135","4.209482","0.015981","675632","829903","950251","8.569817","2.787951","0.007827","6902","9131","10381","7072","9011","10074","7099","8607","9425","7302","8441","9050","7752","8129","8310",""
"MA200-0416","33215","97","1","1.10","1.4","2023-05-31T21:29:30","120","2023/05/31","21:29:30","-15.795625865459442","35.002881332999095","0.3","19","30","64","82","-72","-516","-26332","16","150","150.23","114.84","35.39","26.30","36.3","10.17","90496","26.25","DUALSPOT-UV-BLUE-GREEN-RED-IR","676825","676712","909138","20.824196","7.493698","0.017741","669505","856878","761869","16.501436","5.850464","0.018267","765620","867387","813243","14.441501","5.083197","0.018653","771887","894081","861993","12.169225","4.241669","0.022262","676630","831483","952258","8.632145","2.808877","0.013561","6884","9466","10917","6923","8851","9910","6954","8616","9519","7346","9124","10076","7582","8260","8587",""
"MA200-0416","33216","97","1","1.10","1.4","2023-05-31T21:30:00","120","2023/05/31","21:30:00","-15.795649349689484","35.00289383297786","0.3","19","30","64","83","57","-442","-26203","16","150","150.35","114.92","35.43","26.28","36.3","10.16","90500","26.25","DUALSPOT-UV-BLUE-GREEN-RED-IR","675779","676156","908926","20.955890","7.550861","0.018576","668915","856647","761993","16.606930","5.895258","0.022215","768221","870785","816757","14.535334","5.122388","0.024340","776070","899393","867370","12.250709","4.273867","0.024641","675529","830447","951330","8.694111","2.836159","0.044677","6731","9475","11021","6805","9371","10783","6778","9182","10490","7113","9116","10189","7532","10756","12316",""
"MA200-0416","33217","97","1","1.10","1.4","2023-05-31T21:30:30","120","2023/05/31","21:30:30","-15.795607924461365","35.00288416654803","0.1","19","30","64","82","-72","-516","-25991","16","150","150.27","114.68","35.59","26.26","36.3","10.14","90496","26.25","DUALSPOT-UV-BLUE-GREEN-RED-IR","672870","673768","906218","21.090698","7.608011","0.017259","670942","859804","765131","16.715775","5.939550","0.019473","766917","869809","816145","14.630550","5.160040","0.020331","773557","896948","865282","12.331923","4.304051","0.018872","674531","829537","950486","8.756443","2.856574","0.008649","6904","9431","10856","7036","9225","10431","6893","8782","9812","7105","8508","9260","7593","8012","8215",""
"MA200-0416","33218","97","1","1.10","1.4","2023-05-31T21:31:00","120","2023/05/31","21:31:00","-15.795637845993042","35.00291183311492","0.2","19","30","64","82","-32","-504","-26163","16","150","149.39","114.60","34.79","26.25","36.4","10.14","90500","26.25","DUALSPOT-UV-BLUE-GREEN-RED-IR","673434","674875","908238","21.226552","7.666111","0.018385","667334","855726","761841","16.823904","5.981201","0.017502","766834","870256","816880","14.727444","5.197477","0.020139","768758","891818","860636","12.415660","4.335767","0.022206","674655","830079","951268","8.818687","2.877352","0.014619","6962","9809","11419","6994","8876","9914","7019","8934","9979","7330","9146","10121","7587","8344","8710",""
"MA200-0416","33219","97","1","1.10","1.4","2023-05-31T21:31:30","120","2023/05/31","21:31:30","-15.795676052570343","35.002921332838014","0.1","19","30","64","82","-4","-464","-26347","16","150","149.33","114.56","34.77","26.25","36.4","10.15","90496","26.25","DUALSPOT-UV-BLUE-GREEN-RED-IR","671888","673882","907438","21.368716","7.724907","0.016955","669884","859576","765627","16.939946","6.028337","0.020333","766033","869934","816907","14.833251","5.238104","0.019602","768127","891610","860715","12.506306","4.369587","0.020842","674375","830078","951524","8.886833","2.901002","0.019764","7288","9933","11430","7509","10050","11454","7668","9701","10811","7938","9759","10737","8309","9502","10080",""
"MA200-0416","33220","97","1","1.10","1.4","2023-05-31T21:32:00","120","2023/05/31","21:32:00","-15.795595824718475","35.00294099980965","0.1","19","30","64","82","-59","-628","-26368","16","150","149.54","114.38","35.16","26.23","36.4","10.13","90496","26.25","DUALSPOT-UV-BLUE-GREEN-RED-IR","671197","673721","907795","21.513770","7.786493","0.017383","669396","859639","766053","17.059134","6.076139","0.018831","765274","869620","816951","14.938420","5.278313","0.018324","772549","897254","866491","12.599333","4.404634","0.020438","673568","829477","951090","8.958450","2.924945","0.012841","7448","10287","11898","7724","10078","11380","7633","9494","10510","8159","10000","10989","8746","9512","9883",""
"MA200-0416","33221","97","1","1.10","1.4","2023-05-31T21:32:30","120","2023/05/31","21:32:30","-15.795693814754486","35.00290866638534","0.2","19","30","64","82","-59","-524","-26184","16","150","149.94","114.21","35.73","26.23","36.4","10.12","90500","26.25","DUALSPOT-UV-BLUE-GREEN-RED-IR","669177","672300","906413","21.662436","7.849117","0.016256","667928","858340","765269","17.178642","6.123668","0.017266","763917","868642","816377","15.045560","5.320239","0.018589","772146","897341","866874","12.695806","4.441053","0.019006","673064","829249","951045","9.031792","2.950301","0.014965","7645","10295","11801","7757","9862","11028","7788","9742","10812","8474","10227","11169","8970","9914","10372",""
"MA200-0416","33222","97","1","1.10","1.4","2023-05-31T21:33:00","120","2023/05/31","21:33:00","-15.795669496059418","35.00291316630319","0.3","19","30","64","82","-136","-656","-26568","16","150","150.49","115.24","35.25","26.21","36.4","10.11","90500","26.25","DUALSPOT-UV-BLUE-GREEN-RED-IR","668739","672458","907239","21.814096","7.912971","0.017019","663490","853270","761136","17.304486","6.174045","0.018735","763276","868522","816622","15.158948","5.364370","0.019555","770673","896127","866011","12.792142","4.476177","0.017812","672265","828661","950610","9.105251","2.976281","0.020670","7730","10638","12294","8095","10593","11979","8169","10392","11610","8387","9996","10862","8905","10294","10969",""
"MA200-0416","33223","97","1","1.10","1.4","2023-05-31T21:33:30","120","2023/05/31","21:33:30","-15.795587360858917","35.00292549980804","0.2","19","30","64","82","-48","-532","-26328","16","150","150.03","114.72","35.31","26.20","36.4","10.12","90496","26.25","DUALSPOT-UV-BLUE-GREEN-RED-IR","668443","672745","908222","21.970448","7.980407","0.017595","666181","857404","765213","17.433066","6.225485","0.018240","762673","868481","816946","15.274864","5.408347","0.017330","770263","896244","866445","12.891765","4.513955","0.020406","672366","829166","951450","9.179790","3.002525","0.019189","8005","11217","13049","8309","10799","12182","8389","10339","11409","8712","10733","11822","9076","10382","11017",""
"MA200-0416","33224","97","1","1.10","1.4","2023-05-31T21:34:00","120","2023/05/31","21:34:00","-15.79559201002121","35.00295816641301","0.1","19","30","64","82","140","-412","-26596","16","150","150.49","115.17","35.32","26.19","36.5","10.12","90496","26.19","DUALSPOT-UV-BLUE-GREEN-RED-IR","667028","671933","907736","22.127862","8.047853","0.017363","661815","852392","761172","17.560628","6.277878","0.019673","761205","867375","816277","15.388959","5.454844","0.021927","768421","894656","865255","12.992868","4.552561","0.021078","675517","833487","956675","9.256733","3.029732","0.020011","8028","11215","13036","8211","10995","12545","8224","10928","12413","8807","10965","12129","9332","10760","11454",""
"MA200-0416","33225","97","1","1.10","1.4","2023-05-31T21:34:30","120","2023/05/31","21:34:30","-15.795595288276672","35.00293616624549","0.2","19","30","64","82","56","-456","-26488","16","150","150.62","115.07","35.55","26.19","36.5","10.14","90492","26.19","DUALSPOT-UV-BLUE-GREEN-RED-IR","665019","670481","906390","22.278960","8.112528","0.016940","664593","856624","765331","17.687438","6.330150","0.019355","760098","866713","816040","15.503595","5.500329","0.019726","768201","894961","865850","13.090578","4.590010","0.020650","674990","833248","956634","9.331547","3.056718","0.021373","7712","10685","12387","8169","10900","12422","8271","10622","11915","8519","10568","11675","9082","10604","11345",""
"MA200-0416","33226","97","1","1.10","1.4","2023-05-31T21:35:00","120","2023/05/31","21:35:00","-15.79561561346054","35.002956999931484","0.2","19","30","64","82","107","-576","-26260","16","150","150.16","114.64","35.52","26.18","36.5","10.13","90496","26.19","DUALSPOT-UV-BLUE-GREEN-RED-IR","663966","669995","906324","22.429344","8.178840","0.017821","663104","855340","764572","17.808360","6.380117","0.019205","759436","866519","816202","15.611868","5.544286","0.020807","767544","894697","865929","13.186787","4.628610","0.023688","670320","827826","950691","9.403618","3.083602","0.024743","7705","10964","12835","7819","10427","11884","7841","10274","11613","8419","10902","12244","8782","10572","11445",""
"MA200-0416","33227","97","1","1.10","1.4","2023-05-31T21:35:30","120","2023/05/31","21:35:30","-15.795590460300446","35.00289516639896","0.3","19","30","64","82","28","-584","-26184","16","150","150.08","114.50","35.57","26.17","36.5","10.12","90492","26.19","DUALSPOT-UV-BLUE-GREEN-RED-IR","660485","667096","902949","22.584120","8.242571","0.015001","660715","852918","762779","17.934920","6.431240","0.017776","757507","864928","815056","15.726144","5.589056","0.018326","764761","892008","863658","13.285430","4.664480","0.015659","668608","826152","949001","9.480583","3.110189","0.015060","7939","10522","12007","8193","10653","12028","8285","10448","11640","8643","10116","10913","9389","10440","10953",""
"MA200-0416","33228","97","1","1.10","1.4","2023-05-31T21:36:00","120","2023/05/31","21:36:00","-15.795566976070404","35.00289833289571","0.3","19","30","64","82","84","-448","-26163","16","150","149.67","114.15","35.51","26.16","36.5","10.11","0","0.00","DUALSPOT-UV-BLUE-GREEN-RED-IR","660970","668117","904949","22.732744","8.307369","0.017044","661065","853950","764074","18.057228","6.481243","0.018209","757254","865210","815662","15.837020","5.632180","0.017659","764776","892567","864519","13.382391","4.702103","0.020620","668598","826554","949707","9.555130","3.136922","0.019379","7647","10716","12484","7942","10437","11834","8063","10081","11194","8521","10628","11769","9122","10515","11195",""
"MA200-0416","33229","97","1","1.10","1.4","2023-05-31T21:36:30","120","2023/05/31","21:36:30","-15.795514047145844","35.002856999635696","0.3","19","30","64","82","8","-460","-26419","16","150","149.92","114.88","35.04","26.15","36.5","10.11","0","0.00","DUALSPOT-UV-BLUE-GREEN-RED-IR","659673","667448","904579","22.884930","8.370624","0.015892","660140","853447","764005","18.183426","6.530147","0.016315","756128","864560","815426","15.951734","5.675334","0.016658","763884","892106","864395","13.480633","4.738271","0.017936","668077","826296","949669","9.629383","3.161455","0.011428","7781","10601","12228","8143","10345","11579","8290","10223","11290","8579","10354","11316","9029","9779","10146",""
"MA200-0416","33230","97","1","1.10","1.4","2023-05-31T21:37:00","120","2023/05/31","21:37:00","-15.795532822608948","35.00289733312093","0.1","19","30","64","82","16","-448","-26160","16","150","149.67","114.46","35.21","26.13","36.5","10.10","90492","26.19","DUALSPOT-UV-BLUE-GREEN-RED-IR","658824","667141","904752","23.036040","8.436029","0.016976","659580","853321","764263","18.308568","6.580930","0.018164","754990","863840","815115","16.062241","5.720228","0.020696","762568","891090","863673","13.579040","4.775750","0.019780","671557","831004","955340","9.705063","3.188312","0.019185","7754","10910","12734","8105","10692","12143","8015","10585","12007","8625","10679","11793","9236","10655","11349",""
"MA200-0416","33231","97","1","1.10","1.4","2023-05-31T21:37:30","120","2023/05/31","21:37:30","-15.795609056949615","35.002852332778275","0.2","18","30","64","82","64","-512","-26208","16","150","149.84","114.44","35.40","26.12","36.5","10.09","90492","26.13","DUALSPOT-UV-BLUE-GREEN-RED-IR","657968","666771","904804","23.172108","8.493933","0.016061","658783","852856","764195","18.418670","6.626583","0.018840","754398","863647","815237","16.162285","5.758506","0.016636","761907","890762","863689","13.665949","4.809320","0.020281","671218","830951","955482","9.772778","3.211515","0.014131","6983","9606","11123","7132","9558","10922","7257","8976","9927","7619","9512","10540","8265","9155","9590",""
"MA200-0416","33232","97","1","1.10","1.4","2023-05-31T21:38:00","120","2023/05/31","21:38:00","-15.795700013637543","35.00286066625267","0.2","18","30","64","82","-128","-580","-26200","16","150","149.80","114.75","35.05","26.11","36.5","10.08","90492","26.13","DUALSPOT-UV-BLUE-GREEN-RED-IR","661759","671109","911276","23.311696","8.558147","0.019065","657817","852155","763953","18.534916","6.677097","0.021470","753418","863056","815052","16.265369","5.802726","0.023739","761066","890277","863522","13.756317","4.845226","0.023061","670779","830736","955534","9.840481","3.241317","0.040333","7144","10762","12860","7509","10685","12473","7458","10475","12149","7900","10278","11571","8241","11879","13665",""
"MA200-0416","33233","97","1","1.10","1.4","2023-05-31T21:38:30","120","2023/05/31","21:38:30","-15.79565304517746","35.00286933290772","0.3","18","30","64","82","-80","-488","-26256","16","150","149.76","114.36","35.40","26.10","36.5","10.07","90492","26.13","DUALSPOT-UV-BLUE-GREEN-RED-IR","655757","665553","904271","23.450546","8.618103","0.016388","657127","851831","764037","18.647028","6.722492","0.017430","753169","863261","815596","16.366505","5.844867","0.021376","760174","889730","863303","13.843624","4.879117","0.020346","670343","830533","955523","9.908749","3.265795","0.019268","7131","9946","11582","7267","9505","10766","7342","9882","11293","7659","9604","10662","8339","9658","10307",""
"MA200-0416","33234","97","1","1.10","1.4","2023-05-31T21:39:00","120","2023/05/31","21:39:00","-15.795692384243011","35.00285816611722","0.2","18","30","64","82","219","-473","-26400","16","150","149.94","114.46","35.48","26.09","36.5","10.07","90492","26.13","DUALSPOT-UV-BLUE-GREEN-RED-IR","657824","668181","908418","23.591244","8.678932","0.016299","654109","848448","761342","18.760766","6.768841","0.017587","750790","861080","813833","16.469128","5.884152","0.016261","758190","887863","861780","13.934449","4.913610","0.018528","668837","829078","954057","9.976715","3.288908","0.012687","7219","10071","11730","7366","9685","10993","7443","9193","10166","7961","9754","10731","8295","9100","9497",""
"MA200-0416","33235","97","1","1.10","1.4","2023-05-31T21:39:30","120","2023/05/31","21:39:30","-15.795722961425781","35.00283350003883","0.1","18","30","64","82","-40","-452","-26256","16","150","150.49","114.09","36.41","26.08","36.5","10.06","90492","26.13","DUALSPOT-UV-BLUE-GREEN-RED-IR","658528","669436","910614","23.727162","8.737450","0.015003","655004","850172","763249","18.875576","6.816322","0.016773","751086","861946","814988","16.572321","5.926007","0.017904","758380","888568","862788","14.022820","4.948330","0.018772","664742","824329","948825","10.044186","3.312766","0.013830","6997","9441","10865","7460","9668","10916","7509","9544","10677","7771","9568","10547","8261","9154","9594",""
"MA200-0416","33236","97","1","1.10","1.4","2023-05-31T21:40:00","120","2023/05/31","21:40:00","-15.795681953430176","35.0028751664795","0.2","18","30","64","82","92","-468","-26444","16","150","150.09","114.48","35.61","26.07","36.5","10.05","90492","26.13","DUALSPOT-UV-BLUE-GREEN-RED-IR","657493","668894","910402","23.860794","8.793386","0.014821","654111","849612","763083","18.985472","6.860828","0.016903","750028","861273","814661","16.670389","5.964893","0.017966","757400","887909","862382","14.108203","4.980159","0.016624","668415","829250","954709","10.109417","3.336833","0.021489","6856","9225","10607","7116","9264","10479","7112","9064","10152","7482","8966","9775","7959","9439","10169",""
"MA200-0416","33237","97","1","1.10","1.4","2023-05-31T21:40:30","120","2023/05/31","21:40:30","-15.795633018016815","35.002905666362494","0.2","18","30","64","81","-96","-500","-26240","16","150","149.98","114.31","35.67","26.06","36.6","10.07","90492","26.13","DUALSPOT-UV-BLUE-GREEN-RED-IR","654587","666466","907647","24.003166","8.853788","0.015125","651827","847230","761297","19.103396","6.907654","0.015665","747978","859472","813251","16.775707","6.004328","0.014160","754519","885052","859931","14.199570","5.014765","0.017503","666711","827528","952950","10.178364","3.359646","0.008137","7315","9946","11484","7647","9732","10913","7649","9179","10032","8019","9734","10671","8425","8935","9186",""
"MA200-0416","33238","97","1","1.10","1.4","2023-05-31T21:41:00","120","2023/05/31","21:41:00","-15.795725286006927","35.00287166633643","0.4","18","30","64","81","12","-640","-26740","16","150","150.49","114.72","35.77","26.05","36.6","10.06","90496","26.13","DUALSPOT-UV-BLUE-GREEN-RED-IR","655235","667635","909754","24.135990","8.909990","0.014980","651913","847922","762235","19.209710","6.949587","0.015279","748522","860578","814643","16.871344","6.042522","0.018050","756308","887589","862659","14.284013","5.046987","0.018011","667762","829164","955046","10.241619","3.381199","0.011897","6800","9229","10651","6869","8691","9723","6920","8866","9951","7384","9038","9942","7702","8418","8770",""
"MA200-0416","33239","97","1","1.10","1.4","2023-05-31T21:41:30","120","2023/05/31","21:41:30","-15.79574465751648","35.002906166249886","0.4","18","30","64","81","-20","-504","-26268","16","150","149.61","114.31","35.30","26.05","36.6","10.06","90492","26.06","DUALSPOT-UV-BLUE-GREEN-RED-IR","654672","667603","910212","24.267402","8.966415","0.015758","651763","848234","762860","19.315384","6.994022","0.018732","747605","860074","814476","16.967656","6.079244","0.015783","755009","886529","861894","14.366355","5.077529","0.016512","667077","828665","954677","10.305275","3.404035","0.018871","6752","9388","10933","6853","9332","10738","6995","8637","9553","7227","8680","9474","7779","9037","9657",""
"MA200-0416","33240","97","1","1.10","1.4","2023-05-31T21:42:00","120","2023/05/31","21:42:00","-15.795702517032623","35.002881166292354","0.4","18","30","64","81","36","-475","-26463","16","150","149.34","114.67","34.67","26.04","36.6","10.05","90488","26.06","DUALSPOT-UV-BLUE-GREEN-RED-IR","652613","666018","908537","24.402606","9.021601","0.014632","650326","846947","762029","19.429534","7.037931","0.015401","746918","859777","814494","17.069894","6.119275","0.018454","754671","886628","862268","14.455610","5.109876","0.016264","666888","828767","955027","10.373192","3.426959","0.014274","6925","9349","10771","7379","9389","10530","7402","9586","10806","7809","9361","10209","8273","9236","9711",""
"MA200-0416","33241","97","1","1.10","1.4","2023-05-31T21:42:30","120","2023/05/31","21:42:30","-15.795756936073303","35.00287133292295","0.3","18","30","64","82","-16","-516","-26368","16","150","149.57","114.64","34.93","26.03","36.6","10.04","90492","26.13","DUALSPOT-UV-BLUE-GREEN-RED-IR","653366","667342","910924","24.544456","9.081461","0.015457","649867","846913","762352","19.543872","7.083286","0.016445","746460","859805","814825","17.170456","6.157053","0.015520","754089","886422","862370","14.544774","5.142409","0.016093","666461","828650","955109","10.440758","3.449944","0.014205","7267","10066","11710","7393","9626","10895","7282","8979","9928","7803","9344","10188","8233","9193","9667",""
"MA200-0416","33242","97","1","1.10","1.4","2023-05-31T21:43:00","120","2023/05/31","21:43:00","-15.795732736587524","35.002854832680896","0.1","18","30","64","81","140","-588","-27275","16","150","150.42","114.54","35.88","26.02","36.6","10.03","90488","26.06","DUALSPOT-UV-BLUE-GREEN-RED-IR","650663","665087","908337","24.680480","9.139090","0.014544","648562","845810","761680","19.654236","7.126928","0.014840","744911","858553","813972","17.271238","6.196290","0.015910","752928","885577","861785","14.630003","5.173403","0.013631","665713","828037","954605","10.507042","3.473619","0.016492","6975","9434","10880","7142","9017","10084","7304","9079","10072","7465","8667","9324","8083","9218","9778",""
"MA200-0416","33243","97","1","1.10","1.4","2023-05-31T21:43:30","120","2023/05/31","21:43:30","-15.795746803283691","35.0028828328941","0.5","18","30","64","81","28","-560","-26088","16","150","149.87","114.79","35.07","26.01","36.6","10.04","90488","26.06","DUALSPOT-UV-BLUE-GREEN-RED-IR","649929","664871","908605","24.818588","9.198965","0.016103","648062","845708","761942","19.768454","7.173748","0.017657","744213","858239","814014","17.373320","6.237697","0.019469","756957","890821","867212","14.719906","5.209326","0.021921","664799","827262","953976","10.575695","3.497823","0.017678","7066","10026","11770","7376","9895","11331","7382","9801","11156","7857","10275","11600","8354","9640","10275",""
"MA200-0416","33244","97","1","1.10","1.4","2023-05-31T21:44:00","120","2023/05/31","21:44:00","-15.795732140541077","35.002892499556765","0.3","18","30","64","81","124","-492","-26480","16","150","150.43","114.68","35.75","26.01","36.6","10.04","90488","26.06","DUALSPOT-UV-BLUE-GREEN-RED-IR","648287","663700","907532","24.956340","9.257841","0.014869","646904","844758","761428","19.881916","7.218469","0.014757","743107","857512","813663","17.474058","6.277233","0.016475","751259","884564","861391","14.807106","5.242860","0.017943","664565","827332","954268","10.642094","3.521607","0.017125","7055","9674","11218","7334","9274","10380","7293","9182","10241","7628","9411","10388","8088","9294","9890",""
"MA200-0416","33245","97","1","1.10","1.4","2023-05-31T21:44:30","120","2023/05/31","21:44:30","-15.795715153217316","35.00290716649033","0.1","18","30","64","81","-88","-520","-25560","16","150","149.96","114.64","35.32","25.98","36.7","10.03","90488","26.06","DUALSPOT-UV-BLUE-GREEN-RED-IR","647751","663715","908084","25.096154","9.317036","0.014863","650285","849738","766330","19.995690","7.267261","0.019053","742445","857286","813730","17.576478","6.317323","0.016885","755488","890031","867038","14.896923","5.278331","0.020389","663882","826817","953951","10.708733","3.545836","0.019799","7163","9842","11424","7357","10239","11885","7417","9422","10547","7860","10074","11289","8120","9581","10305",""
"MA200-0416","33246","97","1","1.10","1.4","2023-05-31T21:45:00","120","2023/05/31","21:45:00","-15.795733511447906","35.00291433301754","0.1","18","30","64","81","211","-376","-26838","16","150","149.86","114.84","35.02","25.98","36.7","10.03","90484","26.06","DUALSPOT-UV-BLUE-GREEN-RED-IR","646259","662673","907158","25.229118","9.372532","0.014655","645151","843619","761113","20.105094","7.309181","0.014288","741820","857046","813846","17.672738","6.354707","0.016935","749713","883691","861094","14.980097","5.307800","0.013380","663722","827024","954338","10.774265","3.566536","0.004716","6800","9308","10790","7062","8873","9908","6959","8862","9931","7266","8442","9087","7971","8257","8398",""
"MA200-0416","33247","97","1","1.10","1.4","2023-05-31T21:45:30","120","2023/05/31","21:45:30","-15.795841574668884","35.002912499709055","0.3","18","30","64","81","-300","-588","-26052","16","150","149.90","114.88","35.02","25.97","36.7","10.02","90484","26.06","DUALSPOT-UV-BLUE-GREEN-RED-IR","645804","662677","907709","25.358830","9.429415","0.016213","648615","848670","766001","20.209440","7.352823","0.018259","744863","861060","817979","17.767888","6.393385","0.019277","753745","888868","866450","15.061464","5.339610","0.020212","662920","826325","953780","10.836014","3.589223","0.021673","6632","9540","11262","6733","9238","10671","6876","9169","10458","7106","9113","10216","7508","9050","9813",""
"MA200-0416","33248","97","1","1.10","1.4","2023-05-31T21:46:00","120","2023/05/31","21:46:00","-15.79588931798935","35.002861166140065","0.6","18","30","64","81","-28","-588","-26268","16","150","150.07","114.73","35.34","25.96","36.7","10.01","90488","26.00","DUALSPOT-UV-BLUE-GREEN-RED-IR","642942","660253","904877","25.488732","9.485920","0.015553","642625","841284","759694","20.315486","7.398111","0.018613","742793","859167","816463","17.863860","6.432617","0.018942","751226","886382","864261","15.145986","5.373138","0.020374","661227","824531","951923","10.899826","3.611952","0.017405","6650","9392","11018","6852","9501","11018","6944","9217","10496","7391","9519","10689","7769","8986","9588",""
"MA200-0416","33249","97","1","1.10","1.4","2023-05-31T21:46:30","120","2023/05/31","21:46:30","-15.79584288597107","35.002854499500245","0.3","18","30","64","81","-107","-630","-26157","16","150","150.36","114.72","35.64","25.95","36.7","10.00","90488","26.00","DUALSPOT-UV-BLUE-GREEN-RED-IR","643949","661748","907437","25.619804","9.543262","0.015382","643172","842578","761169","20.422346","7.440342","0.014674","743394","860386","817944","17.958680","6.469601","0.015890","752459","888275","866424","15.227927","5.404264","0.016848","662250","826158","954023","10.962860","3.634747","0.017968","6710","9450","11075","6905","8783","9860","6862","8615","9602","7166","8761","9639","7675","8934","9558",""
"MA200-0416","33250","97","1","1.10","1.4","2023-05-31T21:47:00","120","2023/05/31","21:47:00","-15.795725286006927","35.002905666362494","0.5","18","30","64","81","92","-560","-26780","16","150","150.05","114.80","35.25","25.94","36.7","10.02","90484","26.00","DUALSPOT-UV-BLUE-GREEN-RED-IR","642762","661018","906958","25.748626","9.598135","0.014827","646036","846872","765369","20.527194","7.483953","0.017455","742359","859615","817554","18.052540","6.507027","0.017635","751175","887202","865635","15.310224","5.436546","0.019655","661330","825352","953257","11.022221","3.655532","0.015755","6590","9143","10661","6770","9172","10550","6787","8815","9958","7192","9188","10288","7223","8237","8741",""
"MA200-0416","33251","97","1","1.10","1.4","2023-05-31T21:47:30","120","2023/05/31","21:47:30","-15.79572194814682","35.00290649966337","0.3","18","30","64","81","5","-661","-25672","16","150","150.30","114.57","35.73","25.93","36.7","10.01","90488","26.00","DUALSPOT-UV-BLUE-GREEN-RED-IR","642509","661221","907726","25.875324","9.655487","0.016183","645661","846865","765701","20.631652","7.529659","0.018819","741785","859439","817651","18.145188","6.546396","0.019948","750825","887191","865901","15.388493","5.468255","0.020599","661014","825269","953385","11.083405","3.678074","0.019271","6495","9428","11174","6758","9483","11048","6713","9148","10522","6853","8904","10034","7459","8813","9486",""
"MA200-0416","33252","97","1","1.10","1.4","2023-05-31T21:48:00","120","2023/05/31","21:48:00","-15.795571148395538","35.00288016651757","0.1","18","30","64","81","-144","-468","-25844","16","150","149.99","114.72","35.26","25.92","36.7","10.00","90484","26.00","DUALSPOT-UV-BLUE-GREEN-RED-IR","640860","659995","906518","25.996864","9.706049","0.013875","644249","845495","764790","20.729306","7.570011","0.016969","741182","859185","817714","18.233044","6.581247","0.017148","750191","886854","865849","15.467471","5.498475","0.017804","660739","825250","953542","11.142853","3.698926","0.015659","6222","8422","9733","6310","8483","9734","6357","8205","9249","6906","8598","9531","7238","8260","8768",""
"MA200-0416","33253","97","1","1.10","1.4","2023-05-31T21:48:30","120","2023/05/31","21:48:30","-15.795544683933258","35.002874332945794","0.2","18","30","64","81","24","-720","-26528","16","150","150.56","114.36","36.20","25.91","36.7","9.99","90480","25.94","DUALSPOT-UV-BLUE-GREEN-RED-IR","639776","659322","906063","26.120040","9.759977","0.014532","643969","845618","765200","20.827648","7.608562","0.013115","736416","854092","813135","18.321304","6.615716","0.014624","749413","886365","865627","15.542007","5.526876","0.015463","660221","824891","953335","11.199654","3.718266","0.009094","6326","8750","10197","6374","7895","8770","6407","7905","8752","6539","7872","8607","6938","7464","7725",""
"MA200-0416","33254","97","1","1.10","1.4","2023-05-31T21:49:00","120","2023/05/31","21:49:00","-15.795508682727814","35.00282716634683","0.1","18","30","64","81","-172","-548","-25684","16","150","149.99","114.65","35.34","25.90","36.8","10.00","90488","26.00","DUALSPOT-UV-BLUE-GREEN-RED-IR","638577","658601","905577","26.250732","9.815964","0.014620","642985","844888","764846","20.933272","7.652611","0.017080","739209","857846","817054","18.415534","6.653976","0.018028","748035","885218","864772","15.624924","5.558759","0.017766","659322","824076","952609","11.261253","3.742198","0.024921","6695","9306","10865","6829","9241","10630","6823","8989","10214","7255","9052","10044","7505","9460","10433",""
"MA200-0416","33255","97","1","1.10","1.4","2023-05-31T21:49:30","120","2023/05/31","21:49:30","-15.795568227767944","35.002860999666154","0.1","18","30","64","81","56","-752","-26884","16","150","150.25","115.02","35.23","25.90","36.8","10.01","90484","26.00","DUALSPOT-UV-BLUE-GREEN-RED-IR","637440","657895","905128","26.378810","9.870590","0.014616","642082","844207","764571","21.038072","7.693529","0.014372","738239","857199","816718","18.507924","6.688422","0.013722","747330","884785","864598","15.704831","5.588073","0.014962","658930","823922","952644","11.323856","3.762251","0.005690","6540","9108","10644","6754","8611","9681","6668","8118","8938","6969","8348","9110","7603","7952","8126",""
"MA200-0416","33256","97","1","1.10","1.4","2023-05-31T21:50:00","120","2023/05/31","21:50:00","-15.795643389225006","35.00287799956277","0.1","18","30","64","81","-24","-684","-26580","16","150","150.01","114.54","35.46","25.89","36.8","10.00","90488","26.00","DUALSPOT-UV-BLUE-GREEN-RED-IR","636828","657706","905345","26.500512","9.925621","0.016003","641342","843677","764402","21.134388","7.736778","0.019654","737798","857093","816917","18.594778","6.726497","0.021219","747154","884995","865060","15.780595","5.620033","0.022828","658821","824097","953019","11.379120","3.783463","0.023224","6240","9114","10835","6233","9041","10662","6295","8914","10398","6636","9041","10372","6739","8355","9160",""
"MA200-0416","33257","97","1","1.10","1.4","2023-05-31T21:50:30","120","2023/05/31","21:50:30","-15.79553085565567","35.002865832764655","0.4","18","30","64","80","124","-572","-26944","16","150","150.22","115.26","34.96","25.89","36.9","10.02","90488","25.94","DUALSPOT-UV-BLUE-GREEN-RED-IR","634179","655412","902665","26.625298","9.979736","0.015302","639432","841672","762897","21.235560","7.777609","0.016143","735822","855262","815460","18.684666","6.762088","0.017325","744296","881977","862404","15.857699","5.649101","0.017282","657020","822164","951008","11.441990","3.806637","0.021320","6359","9092","10730","6507","8658","9901","6474","8452","9573","6711","8342","9245","7619","9260","10078",""
"MA200-0416","33258","97","1","1.10","1.4","2023-05-31T21:51:00","120","2023/05/31","21:51:00","-15.795575499534607","35.0028508331161","0.2","18","30","64","81","-204","-296","-25896","16","150","150.28","114.50","35.78","25.87","36.9","10.00","90488","25.94","DUALSPOT-UV-BLUE-GREEN-RED-IR","634581","656265","904365","26.746316","10.035011","0.015887","640044","842918","764362","21.331952","7.818842","0.017253","736174","856132","816587","18.772864","6.797880","0.016987","745137","883424","864033","15.933342","5.678403","0.017026","657450","822984","952180","11.500114","3.826913","0.012903","6207","9073","10794","6240","8543","9875","6395","8304","9389","6627","8215","9095","7091","7915","8326",""
"MA200-0416","33259","97","1","1.10","1.4","2023-05-31T21:51:30","120","2023/05/31","21:51:30","-15.795665800571442","35.00289833289571","0.3","18","30","64","81","-12","-445","-26320","16","150","149.73","114.31","35.43","25.86","36.8","9.97","90484","25.94","DUALSPOT-UV-BLUE-GREEN-RED-IR","634121","656270","904834","26.871002","10.088921","0.014420","639257","842365","764177","21.431842","7.861030","0.016995","735779","856125","816894","18.861552","6.833082","0.016206","744588","883168","864084","16.012228","5.709684","0.018912","657242","823053","952435","11.558392","3.847161","0.013292","6407","8938","10459","6478","8828","10189","6441","8250","9277","6923","8858","9931","7122","7984","8414",""
"MA200-0416","33260","97","1","1.10","1.4","2023-05-31T21:52:00","120","2023/05/31","21:52:00","-15.795713484287262","35.002921166364104","0.1","18","30","64","81","-48","-572","-26163","16","150","149.53","114.34","35.19","25.84","36.8","9.97","90488","25.94","DUALSPOT-UV-BLUE-GREEN-RED-IR","633328","655910","904814","26.991748","10.141064","0.014536","638488","841889","764036","21.529582","7.899536","0.014243","735122","855824","816827","18.948752","6.867707","0.016505","744167","883124","864228","16.087696","5.737257","0.014003","657234","823350","952954","11.616329","3.867302","0.013993","6202","8703","10208","6337","8111","9140","6331","8168","9213","6622","7861","8547","7078","7995","8452",""
"MA200-0416","33261","97","1","1.10","1.4","2023-05-31T21:52:30","120","2023/05/31","21:52:30","-15.795703649520874","35.00289549981244","0.1","18","30","64","80","148","-636","-26560","16","150","149.95","114.55","35.40","25.84","36.8","9.97","90492","25.94","DUALSPOT-UV-BLUE-GREEN-RED-IR","628236","651096","898636","27.116672","10.194080","0.013805","638240","842079","764501","21.629268","7.938976","0.014192","734133","855184","816505","19.039464","6.901735","0.013197","743071","882270","863659","16.165815","5.765831","0.013741","652155","817305","946160","11.676838","3.888524","0.014417","6405","8797","10238","6451","8260","9308","6574","7981","8781","6842","8099","8796","7379","8375","8872",""
"MA200-0416","33262","97","1","1.10","1.4","2023-05-31T21:53:00","120","2023/05/31","21:53:00","-15.795736134052277","35.002867499832064","0.1","18","30","64","80","38","-588","-26438","16","150","149.39","114.80","34.59","25.83","36.8","9.96","90484","25.94","DUALSPOT-UV-BLUE-GREEN-RED-IR","635690","659294","910464","27.241874","10.246445","0.014078","636464","840216","763129","21.731428","7.979364","0.015200","733067","854388","816021","19.130936","6.936520","0.015233","742247","881749","863385","16.246822","5.794805","0.013868","655808","822245","952094","11.738834","3.908286","0.006810","6405","8892","10391","6597","8656","9851","6615","8349","9336","7079","8404","9138","7544","7981","8199",""
"MA200-0416","33263","97","1","1.10","1.4","2023-05-31T21:53:30","120","2023/05/31","21:53:30","-15.795712172985077","35.00288499961607","0.1","18","30","64","80","107","-356","-26332","16","150","149.32","114.50","34.82","25.83","36.8","9.96","90488","25.94","DUALSPOT-UV-BLUE-GREEN-RED-IR","631426","655303","905446","27.362670","10.301388","0.016186","636652","840925","764091","21.827026","8.020181","0.017857","733049","854809","816748","19.217428","6.973510","0.020263","741645","881394","863336","16.321096","5.825871","0.022585","655402","822016","951989","11.795265","3.928814","0.019272","6196","9268","11122","6189","8690","10143","6271","8820","10271","6508","8951","10307","6885","8235","8910",""
"MA200-0416","33264","97","1","1.10","1.4","2023-05-31T21:54:00","120","2023/05/31","21:54:00","-15.795724630355835","35.002880999585614","0.2","18","30","64","80","-92","-456","-26272","16","150","150.49","114.52","35.97","25.82","36.8","9.95","90492","25.94","DUALSPOT-UV-BLUE-GREEN-RED-IR","633232","657611","909120","27.486392","10.356243","0.014466","634554","838622","762323","21.926454","8.061737","0.015654","730813","852631","814954","19.305074","7.008684","0.015719","739368","879085","861321","16.398607","5.856168","0.016790","654039","820636","950627","11.854572","3.949772","0.013314","6345","8956","10534","6436","8563","9800","6354","8117","9122","6790","8449","9370","7234","8138","8590",""
"MA200-0416","33265","97","1","1.10","1.4","2023-05-31T21:54:30","120","2023/05/31","21:54:30","-15.795694053173065","35.002858666237444","0.1","18","30","64","80","-44","-500","-26260","16","150","150.16","114.92","35.24","25.81","36.8","9.92","90492","25.94","DUALSPOT-UV-BLUE-GREEN-RED-IR","628862","653592","904103","27.620930","10.414070","0.014189","634597","839231","763214","22.032204","8.105213","0.015890","731663","854159","816704","19.402042","7.047409","0.016586","740903","881412","863872","16.484556","5.888647","0.016096","654959","822143","952576","11.919056","3.971510","0.010860","6876","9637","11308","6821","9144","10496","7005","9122","10329","7503","9245","10213","7838","8615","9004",""
"MA200-0416","33266","97","1","1.10","1.4","2023-05-31T21:55:00","120","2023/05/31","21:55:00","-15.795693039894104","35.002860999666154","0.2","18","30","64","80","-96","-292","-25815","16","150","150.63","114.54","36.09","25.80","36.8","9.91","90488","25.94","DUALSPOT-UV-BLUE-GREEN-RED-IR","632415","657778","910437","27.753182","10.471992","0.013881","633561","838394","762761","22.134472","8.149029","0.016397","730499","853231","816177","19.495472","7.086170","0.017048","740052","880821","863606","16.565308","5.920142","0.016316","654352","821749","952348","11.985073","3.995449","0.015412","6781","9427","11031","6618","9001","10389","6771","8917","10143","7072","8756","9692","8051","9267","9875",""
"MA200-0416","33267","97","1","1.10","1.4","2023-05-31T21:55:30","120","2023/05/31","21:55:30","-15.795760810375214","35.00282699964009","0.5","18","30","64","79","64","-512","-26608","16","150","149.96","114.16","35.80","25.80","36.8","9.93","90488","25.94","DUALSPOT-UV-BLUE-GREEN-RED-IR","629822","655575","907885","27.883858","10.529263","0.013978","631952","836771","761604","22.239650","8.191543","0.014114","728651","851568","814882","19.588494","7.123149","0.015114","737178","877868","860965","16.648087","5.953556","0.018556","652743","820036","950576","12.047119","4.017515","0.013900","6723","9395","11017","6830","8803","9954","6764","8575","9610","7274","9363","10526","7592","8610","9119",""
"MA200-0416","33268","97","1","1.10","1.4","2023-05-31T21:56:00","120","2023/05/31","21:56:00","-15.795762121677399","35.00287416623905","0.5","18","30","64","80","-68","-404","-26036","16","150","150.17","114.92","35.26","25.79","36.8","9.92","90488","25.88","DUALSPOT-UV-BLUE-GREEN-RED-IR","630620","656887","910219","28.015262","10.586735","0.014496","632154","837542","762626","22.342018","8.234180","0.016178","729051","852495","816065","19.681216","7.160097","0.016235","738492","879844","863199","16.730087","5.984425","0.015604","653277","821061","951970","12.112812","4.041227","0.017279","6716","9573","11309","6603","8964","10341","6698","8699","9844","7159","8783","9688","7985","9394","10099",""
"MA200-0416","33269","97","1","1.10","1.4","2023-05-31T21:56:30","120","2023/05/31","21:56:30","-15.7957181930542","35.00289733312093","0.0","18","30","64","80","-35","-437","-26189","16","150","149.53","114.46","35.06","25.79","36.9","9.93","90488","25.88","DUALSPOT-UV-BLUE-GREEN-RED-IR","629491","656191","909777","28.149894","10.645782","0.014556","631823","837590","763010","22.447174","8.278061","0.016241","728149","851905","815821","19.777200","7.199007","0.017039","737111","878641","862300","16.810730","6.016070","0.018102","652489","820400","951405","12.176018","4.063122","0.013475","6908","9890","11704","6810","9277","10717","6962","9212","10500","7068","9054","10160","7714","8722","9228",""
"MA200-0416","33270","97","1","1.10","1.4","2023-05-31T21:57:00","120","2023/05/31","21:57:00","-15.79570996761322","35.002921666484326","0.1","18","30","64","80","-80","-588","-26363","16","150","150.24","114.57","35.67","25.77","36.9","9.93","90488","25.88","DUALSPOT-UV-BLUE-GREEN-RED-IR","628721","655900","909957","28.285058","10.705051","0.014025","631120","837212","762999","22.554926","8.322073","0.014673","727458","851597","815850","19.873998","7.237613","0.015430","736660","878598","862493","16.895640","6.048089","0.014663","655420","824428","956310","12.241081","4.086337","0.014700","6929","9760","11485","6971","9148","10420","7014","8986","10116","7435","9007","9883","7933","9092","9673",""
"MA200-0416","33271","97","1","1.10","1.4","2023-05-31T21:57:30","120","2023/05/31","21:57:30","-15.795712351799011","35.00296499975957","0.4","18","30","64","79","-115","-511","-26269","16","150","149.51","115.00","34.51","25.77","36.9","9.93","90492","25.88","DUALSPOT-UV-BLUE-GREEN-RED-IR","625959","653493","907203","28.423820","10.767052","0.015495","628836","834704","761077","22.664790","8.368749","0.017529","725249","849529","814172","19.971562","7.276762","0.017354","733787","875623","859857","16.981834","6.081044","0.017619","653742","822692","954564","12.310757","4.112046","0.020824","7087","10552","12665","7082","10027","11751","7043","9418","10779","7520","9581","10730","8464","10407","11381",""
"MA200-0416","33272","97","1","1.10","1.4","2023-05-31T21:58:00","120","2023/05/31","21:58:00","-15.795630037784576","35.00298699969426","0.1","18","30","64","80","100","-560","-26347","16","150","149.98","115.01","34.97","25.77","36.9","9.94","90488","25.88","DUALSPOT-UV-BLUE-GREEN-RED-IR","626803","654899","909688","28.562424","10.828495","0.014858","629281","835804","762437","22.772690","8.414644","0.017012","726057","850962","815881","20.069528","7.317156","0.017889","735859","878568","863068","17.070120","6.116330","0.019261","651648","820375","952111","12.377815","4.138118","0.023833","7078","10319","12297","6955","9728","11353","7072","9588","11033","7701","10122","11474","8145","10414","11553",""
"MA200-0416","33273","97","1","1.10","1.4","2023-05-31T21:58:30","120","2023/05/31","21:58:30","-15.79559999704361","35.00295533309691","0.4","18","30","64","80","-64","-560","-26200","16","150","150.56","114.79","35.77","25.76","36.9","9.93","90488","25.88","DUALSPOT-UV-BLUE-GREEN-RED-IR","626707","655263","910781","28.699006","10.890827","0.014921","629085","836105","763032","22.880988","8.458979","0.014529","725019","850276","815558","20.168370","7.356656","0.015268","734147","876933","861760","17.155528","6.149787","0.016683","650846","819728","951567","12.445850","4.161322","0.010001","6988","10236","12222","6993","9188","10476","7148","9168","10329","7464","9384","10457","8279","9062","9456",""
"MA200-0416","33274","97","1","1.10","1.4","2023-05-31T21:59:00","120","2023/05/31","21:59:00","-15.795659720897675","35.00297833303921","0.1","18","30","64","79","19","-492","-26457","16","150","150.49","114.88","35.61","25.76","36.9","9.92","90484","25.88","DUALSPOT-UV-BLUE-GREEN-RED-IR","622741","651641","906341","28.841816","10.958527","0.015964","626419","833046","760644","22.993276","8.508373","0.017370","722822","848174","813882","20.270512","7.400012","0.018138","731305","874035","859221","17.246808","6.186765","0.018760","651962","821535","953898","12.516315","4.188086","0.020199","7301","11165","13532","7246","10281","12064","7382","10107","11674","7971","10417","11785","8568","10498","11468",""
"MA200-0416","33275","97","1","1.10","1.4","2023-05-31T21:59:30","120","2023/05/31","21:59:30","-15.795655846595764","35.00295799970627","0.1","18","30","64","80","16","-604","-26616","16","150","150.21","114.75","35.46","25.75","36.9","9.92","90488","25.88","DUALSPOT-UV-BLUE-GREEN-RED-IR","623340","652792","908553","28.993840","11.026806","0.014572","627055","834517","762347","23.113342","8.558554","0.015526","723215","849188","815215","20.379158","7.444203","0.016316","732212","875634","861140","17.341706","6.224102","0.017228","652536","822636","955464","12.591614","4.215040","0.015268","7781","11309","13474","7756","10490","12097","7860","10345","11776","8296","10563","11831","9166","10617","11348",""
"MA200-0416","33276","97","1","1.10","1.4","2023-05-31T22:00:00","120","2023/05/31","22:00:00","-15.79567277431488","35.00297166639939","0.0","17","30","64","80","-32","-483","-25860","16","150","150.16","114.64","35.52","25.74","36.9","9.91","90488","25.88","DUALSPOT-UV-BLUE-GREEN-RED-IR","623369","653335","909936","29.139260","11.093334","0.014922","626119","833777","762077","23.228898","8.608879","0.016868","722970","849404","815768","20.483252","7.487374","0.016984","732041","875908","861718","17.433714","6.261498","0.018769","649443","819077","951609","12.662861","4.243842","0.024814","7450","11000","13182","7472","10502","12286","7538","10090","11560","8052","10562","11968","8681","11326","12659",""
"MA200-0416","33277","97","1","1.10","1.4","2023-05-31T22:00:30","120","2023/05/31","22:00:30","-15.795585691928864","35.00293616624549","0.3","17","30","64","79","-124","-688","-26172","16","150","149.91","114.29","35.62","25.75","36.9","9.94","90484","25.81","DUALSPOT-UV-BLUE-GREEN-RED-IR","619933","650270","906226","29.285504","11.159050","0.014226","624327","831934","760756","23.343788","8.656878","0.015049","720410","846924","813726","20.588398","7.530242","0.015888","729119","872889","859015","17.526192","6.296408","0.014157","650574","820921","953988","12.736465","4.267778","0.004832","7515","10837","12882","7452","9990","11487","7637","9992","11350","8117","9834","10796","8996","9388","9586",""
"MA200-0416","33278","97","1","1.10","1.4","2023-05-31T22:01:00","120","2023/05/31","22:01:00","-15.795610785484314","35.002937332959846","0.1","17","30","64","80","-84","-576","-26236","16","150","149.83","114.44","35.39","25.74","37.0","9.93","90484","25.81","DUALSPOT-UV-BLUE-GREEN-RED-IR","620470","651318","908308","29.424686","11.224186","0.015413","624539","832765","761868","23.454564","8.704412","0.016258","720862","848025","815114","20.690124","7.572377","0.016851","735487","881007","867308","17.615068","6.331283","0.016783","651140","821983","955452","12.805565","4.293059","0.016862","7143","10810","13071","7175","9957","11598","7379","9884","11330","7791","9886","11062","8434","9979","10757",""
"MA200-0416","33279","97","1","1.10","1.4","2023-05-31T22:01:30","120","2023/05/31","22:01:30","-15.795611798763275","35.00294683338143","0.1","17","30","64","80","-124","-508","-26368","16","150","150.05","114.80","35.25","25.74","37.0","9.94","90484","25.81","DUALSPOT-UV-BLUE-GREEN-RED-IR","615675","646770","902476","29.562886","11.284363","0.013648","624031","832619","762103","23.566582","8.749975","0.014452","720510","848093","815538","20.791576","7.612902","0.015486","734913","880801","867439","17.706080","6.366062","0.015611","647821","818163","951246","12.874691","4.317380","0.013982","7070","10027","11853","7233","9582","10969","7336","9545","10821","7953","9899","10991","8411","9638","10258",""
"MA200-0416","33280","97","1","1.10","1.4","2023-05-31T22:02:00","120","2023/05/31","22:02:00","-15.795587480068207","35.00293833320029","0.1","17","30","64","79","28","-684","-26384","16","150","149.70","114.56","35.14","25.73","37.0","9.93","90484","25.81","DUALSPOT-UV-BLUE-GREEN-RED-IR","617104","648750","905851","29.697528","11.347004","0.015336","625358","834924","764513","23.672580","8.793510","0.014801","718485","846185","813995","20.887770","7.651431","0.015584","727393","872267","859294","17.791358","6.399238","0.016597","646211","816466","949534","12.941154","4.341485","0.016643","6903","10470","12676","6859","9184","10559","6971","9103","10335","7468","9472","10597","8104","9583","10329",""
"MA200-0416","33281","97","1","1.10","1.4","2023-05-31T22:02:30","120","2023/05/31","22:02:30","-15.795681297779083","35.00292716640979","0.5","17","30","64","80","-16","-620","-26080","16","150","150.42","114.75","35.67","25.73","37.0","9.93","90484","25.81","DUALSPOT-UV-BLUE-GREEN-RED-IR","617692","649888","907976","29.836296","11.407669","0.013301","621931","830885","761200","23.783196","8.841539","0.016278","718880","847120","815225","20.988218","7.691502","0.014725","728273","873824","861142","17.881260","6.433499","0.014592","649930","821585","955693","13.013496","4.366413","0.010792","7102","9989","11776","7146","9981","11660","7267","9327","10518","7860","9636","10634","8806","9762","10245",""
"MA200-0416","33282","97","1","1.10","1.4","2023-05-31T22:03:00","120","2023/05/31","22:03:00","-15.795639336109161","35.00291066640057","0.8","17","30","64","79","-32","-408","-26068","16","150","150.05","114.99","35.06","25.72","37.0","9.93","90484","25.81","DUALSPOT-UV-BLUE-GREEN-RED-IR","616840","649421","907908","29.970298","11.469883","0.015302","625073","835622","765876","23.889028","8.885778","0.015548","718208","846849","815294","21.084834","7.729990","0.015471","727824","873713","861309","17.966112","6.466776","0.017206","649594","821481","955789","13.079243","4.390999","0.019447","6844","10423","12642","6822","9354","10854","6975","9114","10352","7403","9523","10715","7987","9796","10711",""
"MA200-0416","33283","97","1","1.10","1.4","2023-05-31T22:03:30","120","2023/05/31","22:03:30","-15.795628249645233","35.0028688327875","0.1","17","30","64","79","0","-424","-26560","16","150","149.49","114.88","34.61","25.71","37.0","9.92","90484","25.81","DUALSPOT-UV-BLUE-GREEN-RED-IR","615146","648145","906678","30.110172","11.534229","0.015299","624028","834727","765397","23.998568","8.932281","0.016440","717105","846021","814840","21.185252","7.773566","0.019364","732317","879557","867369","18.053280","6.502330","0.019724","648979","821069","955560","13.149540","4.416955","0.019281","7151","10920","13259","7068","9960","11675","7257","10453","12305","7612","10306","11822","8548","10476","11451",""
"MA200-0416","33284","97","1","1.10","1.4","2023-05-31T22:04:00","120","2023/05/31","22:04:00","-15.795590460300446","35.002836332889274","0.1","17","30","64","79","-36","-592","-26296","16","150","149.43","114.31","35.12","25.71","37.0","9.92","90480","25.81","DUALSPOT-UV-BLUE-GREEN-RED-IR","614598","648082","907174","30.252410","11.601517","0.015427","623410","834445","765544","24.113060","8.984406","0.018010","716169","845452","814677","21.287396","7.818097","0.018709","731377","878921","867118","18.145046","6.541240","0.020539","648363","820631","955384","13.220921","4.446674","0.026358","7308","11252","13705","7425","11001","13125","7418","10525","12329","8054","11114","12839","8723","11820","13389",""
