"Serial number","Datum ID","Session ID","Data format version","Firmware version","App version","Date / time local","Timezone offset (mins)","Date local (yyyy/MM/dd)","Time local (hh:mm:ss)","GPS lat (ddmm.mmmmm)","GPS long (dddmm.mmmmm)","GPS speed (km/h)","GPS sat count","Timebase (s)","Status","Battery remaining (%)","Accel X","Accel Y","Accel Z","Tape position","Flow setpoint (mL/min)","Flow total (mL/min)","Flow1 (mL/min)","Flow2 (mL/min)","Sample temp (C)","Sample RH (%)","Sample dewpoint (C)","Internal pressure (Pa)","Internal temp (C)","Optical config","UV Sen1","UV Sen2","UV Ref","UV ATN1","UV ATN2","UV K","Blue Sen1","Blue Sen2","Blue Ref","Blue ATN1","Blue ATN2","Blue K","Green Sen1","Green Sen2","Green Ref","Green ATN1","Green ATN2","Green K","Red Sen1","Red Sen2","Red Ref","Red ATN1","Red ATN2","Red K","IR Sen1","IR Sen2","IR Ref","IR ATN1","IR ATN2","IR K","UV BC1","UV BC2","UV BCc","Blue BC1","Blue BC2","Blue BCc","Green BC1","Green BC2","Green BCc","Red BC1","Red BC2","Red BCc","IR BC1","IR BC2","IR BCc","Readable status"
"MA200-0420","46924","76","1","1.10","1.6","2023-07-31T08:55:00","120","2023/07/31","08:55:00","-15.795648992061615","35.00277483300306","0.1","11","300","66","98","-148","-27240","268","1","150","150.21","113.82","36.39","27.19","40.6","12.64","90564","27.69","DUALSPOT-UV-BLUE-GREEN-RED-IR","790009","707175","906282","0.000000","0.000000","0.000000","887111","899403","841479","0.000000","0.000000","0.000000","864152","871799","831774","0.000000","0.000000","0.000000","879804","873512","887853","0.000000","0.000000","0.000000","770198","896387","965876","0.000000","0.000000","0.000000","","","","","","","","","","","","","","","","Start up-DualSpot on"
"MA200-0420","46925","76","1","1.10","1.6","2023-07-31T09:00:00","120","2023/07/31","09:00:00","-15.795611143112183","35.00271649938077","0.1","11","300","64","98","12","-27095","-258","1","150","150.15","113.64","36.51","27.34","39.1","12.21","90572","27.81","DUALSPOT-UV-BLUE-GREEN-RED-IR","783367","706952","909857","0.000000","0.000000","0.000000","876194","893191","838107","0.000000","0.000000","0.000000","860407","872032","834048","0.000000","0.000000","0.000000","878175","875035","891116","0.000000","0.000000","0.000000","769365","897563","968104","0.000000","0.000000","0.000000","","","","","","","","","","","","","","","","DualSpot on"
"MA200-0420","46926","76","1","1.10","1.6","2023-07-31T09:05:00","120","2023/07/31","09:05:00","-15.79576963186264","35.00263233319856","0.2","11","300","64","97","-80","-27063","-224","1","150","149.91","113.49","36.42","27.52","38.4","12.10","90576","28.00","DUALSPOT-UV-BLUE-GREEN-RED-IR","770707","702755","909251","1.555782","0.523275","0.000000","866059","889144","837275","1.057363","0.351405","0.000000","851805","868557","833151","0.891983","0.292736","0.000000","870940","871982","890047","0.705447","0.230013","0.000000","764609","894749","966459","0.444259","0.136081","0.000000","8051","8439","8051","6906","7153","6906","6525","6673","6525","6236","6336","6236","5468","5219","5468","DualSpot on"
"MA200-0420","46927","76","1","1.10","1.6","2023-07-31T09:10:00","120","2023/07/31","09:10:00","-15.795679867267609","35.00269899936393","0.3","10","300","64","97","-50","-26925","-637","1","150","150.08","114.02","36.06","27.70","38.0","12.09","90584","28.19","DUALSPOT-UV-BLUE-GREEN-RED-IR","759018","698392","908024","2.959472","1.017089","0.000000","856899","885188","836242","2.003139","0.676918","0.000000","843597","864640","831643","1.687669","0.563603","0.000000","863091","867706","887534","1.328170","0.439779","0.000000","759539","891196","963773","0.834610","0.259315","0.000000","7230","8043","7230","6149","6691","6149","5793","6236","5793","5479","5835","5479","4782","4773","4782","DualSpot on"
"MA200-0420","46928","76","1","1.10","1.6","2023-07-31T09:15:00","120","2023/07/31","09:15:00","-15.79558777809143","35.00269616628066","0.1","10","300","64","98","-66","-27100","-70","1","150","149.84","114.40","35.43","27.91","37.3","12.01","90592","28.50","DUALSPOT-UV-BLUE-GREEN-RED-IR","752169","696693","909311","4.005180","1.399192","0.054074","851541","883792","837065","2.729207","0.935745","0.000000","839142","863510","832374","2.302777","0.779372","0.000000","860416","867701","889043","1.812278","0.608572","0.000000","757224","890355","963777","1.142448","0.356192","0.000000","5368","6334","6852","4704","5415","4704","4463","5056","4463","4245","4779","4245","3758","3819","3758","DualSpot on"
"MA200-0420","46929","76","1","1.10","1.6","2023-07-31T09:20:00","120","2023/07/31","09:20:00","-15.795594990253448","35.0028181662783","0.4","9","300","64","98","-112","-27104","-579","1","150","150.39","114.32","36.06","28.10","36.7","11.90","90592","28.69","DUALSPOT-UV-BLUE-GREEN-RED-IR","743277","693287","908400","5.096044","1.791217","0.034686","844596","880991","836657","3.497380","1.201725","0.037028","832383","860303","831104","2.956915","1.001078","0.000000","853989","864234","887023","2.330800","0.780478","0.000000","757355","892570","967203","1.476062","0.456559","0.000000","5604","6384","6807","4981","5467","5722","4750","5104","4750","4550","4782","4550","4076","3887","4076","DualSpot on"
"MA200-0420","46930","76","1","1.10","1.6","2023-07-31T09:25:00","120","2023/07/31","09:25:00","-15.795676350593567","35.00269249943085","0.2","9","300","64","97","-104","-27100","-244","1","150","150.15","114.18","35.97","28.24","36.0","11.75","90592","28.69","DUALSPOT-UV-BLUE-GREEN-RED-IR","737508","692392","910844","6.147936","2.188745","0.038493","840610","880946","838879","4.240352","1.476127","0.049321","828917","860190","832864","3.589144","1.230007","0.051609","852665","865666","890066","2.833957","0.960279","0.000000","751943","888127","963378","1.798372","0.561216","0.000000","5411","6491","7088","4823","5655","6099","4597","5284","5642","4421","5015","4421","3943","4064","3943","DualSpot on"
"MA200-0420","46931","76","1","1.10","1.6","2023-07-31T09:30:00","120","2023/07/31","09:30:00","-15.795672476291656","35.00278666638769","0.1","9","300","64","98","-104","-27083","-437","1","150","149.90","114.06","35.83","28.35","35.5","11.64","90584","28.94","DUALSPOT-UV-BLUE-GREEN-RED-IR","728667","688169","908552","7.102421","2.551895","0.034895","832826","876576","836813","4.922001","1.724666","0.040284","821914","856114","830697","4.173720","1.439452","0.042312","845458","860936","886657","3.297998","1.123263","0.046039","751452","889315","965570","2.092302","0.656097","0.000000","4914","5952","6534","4430","5141","5525","4254","4852","5167","4081","4563","4812","3599","3698","3599","DualSpot on"
"MA200-0420","46932","76","1","1.10","1.6","2023-07-31T09:35:00","120","2023/07/31","09:35:00","-15.7955601811409","35.00276833306998","0.1","9","300","64","97","-216","-26991","445","1","150","150.01","114.22","35.79","28.52","35.5","11.78","90592","29.06","DUALSPOT-UV-BLUE-GREEN-RED-IR","719984","684459","907347","8.161821","2.956495","0.031297","831084","878877","841297","5.666017","1.996738","0.036181","819885","857483","833917","4.806688","1.666206","0.037410","845792","864087","891493","3.801521","1.300324","0.041203","747122","886158","963129","2.416547","0.758657","0.000000","5447","6639","7316","4828","5635","6074","4600","5259","5609","4422","4963","5244","3965","4003","3965","DualSpot on"
"MA200-0420","46933","76","1","1.10","1.6","2023-07-31T09:40:00","120","2023/07/31","09:40:00","-15.795630037784576","35.002749332692474","0.0","11","300","64","97","-112","-26912","-1229","1","150","149.87","114.05","35.82","28.68","35.4","11.86","90588","29.19","DUALSPOT-UV-BLUE-GREEN-RED-IR","709998","679395","904436","9.246840","3.382269","0.030530","822164","873572","838581","6.425325","2.280527","0.035417","813202","853994","832455","5.452255","1.901233","0.036027","838946","859934","888832","4.316105","1.484118","0.040082","746806","887754","965924","2.749714","0.868066","0.000000","5587","6981","7785","4935","5873","6389","4699","5447","5847","4526","5147","5473","4080","4266","4080","DualSpot on"
"MA200-0420","46934","76","1","1.10","1.6","2023-07-31T09:45:00","120","2023/07/31","09:45:00","-15.795607924461365","35.002724832855165","0.4","13","300","64","97","-59","-27088","-632","1","150","149.85","114.18","35.67","28.85","34.9","11.81","90588","29.44","DUALSPOT-UV-BLUE-GREEN-RED-IR","703296","676841","904446","10.188250","3.757658","0.029890","816348","871021","838282","7.093372","2.532858","0.034589","808116","851689","831998","6.024328","2.112764","0.036587","835033","858425","888770","4.772310","1.647959","0.038972","744287","886547","965514","3.044891","0.964277","0.019576","4842","6181","6963","4337","5244","5747","4159","4923","5335","4008","4608","4924","3611","3767","3840","DualSpot on"
"MA200-0420","46935","76","1","1.10","1.6","2023-07-31T09:50:00","120","2023/07/31","09:50:00","-15.795649349689484","35.00275483285077","0.2","13","300","64","97","-141","-26966","-579","1","150","150.08","113.85","36.23","29.05","34.8","11.96","90580","29.56","DUALSPOT-UV-BLUE-GREEN-RED-IR","692972","672781","904488","11.666939","4.359350","0.026387","807888","867187","837733","8.066036","2.906686","0.030385","800790","848350","831268","6.840346","2.418226","0.031316","828962","855682","887989","5.412932","1.881712","0.033887","739790","883527","963569","3.446249","1.098350","0.019711","7628","9754","11022","6333","7648","8389","5950","6999","7573","5645","6472","6913","4924","5169","5283","DualSpot on"
"MA200-0420","46936","76","1","1.10","1.6","2023-07-31T09:55:00","120","2023/07/31","09:55:00","-15.795588195323944","35.002722666133195","0.1","13","300","64","98","12","-27066","-525","1","150","150.21","113.62","36.59","29.19","34.2","11.81","90580","29.81","DUALSPOT-UV-BLUE-GREEN-RED-IR","687874","672057","907569","12.757406","4.812017","0.024856","805334","868333","841259","8.813908","3.200019","0.028940","798464","849159","834057","7.475733","2.662003","0.030666","828841","858272","892305","5.916865","2.068785","0.032169","739724","885350","966580","3.768863","1.207469","0.018325","5636","7267","8254","4879","5943","6550","4642","5531","6023","4449","5129","5495","3966","4166","4260","DualSpot on"
"MA200-0420","46937","76","1","1.10","1.6","2023-07-31T10:00:00","120","2023/07/31","10:00:00","-15.795694053173065","35.00273466622457","0.1","13","300","64","97","-52","-27088","-458","1","150","150.15","113.95","36.20","29.35","33.9","11.82","90580","29.88","DUALSPOT-UV-BLUE-GREEN-RED-IR","680665","668441","906065","13.642523","5.185613","0.025401","798565","864396","839596","9.455277","3.456825","0.030784","791879","844987","831772","8.029017","2.876574","0.031887","822729","854283","889679","6.363611","2.239348","0.037322","734819","881181","963038","4.064916","1.309137","0.026274","4562","6062","6981","4172","5259","5885","4031","4921","5418","3933","4727","5158","3629","3923","4063","DualSpot on"
"MA200-0420","46938","76","1","1.10","1.6","2023-07-31T10:05:00","120","2023/07/31","10:05:00","-15.795556843280792","35.0027353328187","0.2","12","300","64","97","-68","-27112","-440","1","150","150.09","113.56","36.52","29.53","33.5","11.77","90580","30.13","DUALSPOT-UV-BLUE-GREEN-RED-IR","671935","664690","906051","14.934423","5.744678","0.024077","791421","861162","839450","10.336264","3.813249","0.028068","785684","842212","831472","8.777542","3.171152","0.029543","816654","851113","888387","6.958200","2.464635","0.031062","735445","884159","967529","4.449377","1.440218","0.018336","6681","8990","10433","5751","7234","8101","5472","6696","7388","5252","6188","6701","4729","5013","5149","DualSpot on"
"MA200-0420","46939","76","1","1.10","1.6","2023-07-31T10:10:00","120","2023/07/31","10:10:00","-15.795644879341125","35.002760166535154","0.0","11","300","64","97","-62","-27079","-516","1","150","149.76","112.99","36.76","29.67","32.9","11.65","90580","30.25","DUALSPOT-UV-BLUE-GREEN-RED-IR","666730","663121","907611","15.885509","6.158203","0.022319","780848","853227","834174","11.053024","4.107976","0.026755","781762","841190","832547","9.406736","3.421146","0.027423","814133","851192","890232","7.477377","2.664932","0.029957","728835","878266","962311","4.809427","1.565227","0.018824","4943","6606","7659","4702","5943","6677","4623","5645","6230","4609","5466","5940","4451","4750","4894","DualSpot on"
"MA200-0420","46940","76","1","1.10","1.6","2023-07-31T10:15:00","120","2023/07/31","10:15:00","-15.7955961227417","35.002742832992226","0.1","11","300","64","98","-54","-27062","-570","1","150","149.61","113.56","36.05","29.74","31.9","11.23","90580","30.19","DUALSPOT-UV-BLUE-GREEN-RED-IR","663522","662823","910412","16.677496","6.509298","0.023632","779148","854184","837126","11.625148","4.350179","0.029917","778815","840448","833511","9.899820","3.624743","0.032510","812082","851099","891568","7.877249","2.824077","0.035991","727818","878571","963521","5.076462","1.659938","0.029254","4096","5720","6760","3734","4981","5726","3604","4689","5315","3532","4429","4930","3284","3670","3857","DualSpot on"
"MA200-0420","46941","76","1","1.10","1.6","2023-07-31T10:20:00","120","2023/07/31","10:20:00","-15.795619904994965","35.00276199984364","0.0","11","300","64","97","-29","-27087","-262","1","150","150.28","113.39","36.89","29.86","32.1","11.42","90588","30.44","DUALSPOT-UV-BLUE-GREEN-RED-IR","656861","659113","908597","17.479206","6.865318","0.021478","778996","856958","841889","12.210469","4.591602","0.024595","774246","838053","832811","10.404607","3.827387","0.025962","806803","847690","889371","8.286489","2.981914","0.027113","728783","881243","967393","5.345461","1.754649","0.020402","4152","5668","6649","3826","4851","5469","3696","4560","5063","3621","4292","4670","3314","3586","3719","DualSpot on"
"MA200-0420","46942","76","1","1.10","1.6","2023-07-31T10:25:00","120","2023/07/31","10:25:00","-15.79559063911438","35.002809832803905","0.2","11","300","64","97","0","-27075","-525","1","150","149.77","112.93","36.84","29.90","31.4","11.12","90572","30.31","DUALSPOT-UV-BLUE-GREEN-RED-IR","650229","655382","906680","18.285824","7.227188","0.020938","772279","852399","839440","12.784412","4.834533","0.025309","769334","835186","831620","10.898218","4.027712","0.025606","803540","846293","889336","8.682756","3.136856","0.027312","725945","879342","966184","5.607111","1.845585","0.015832","4195","5769","6797","3767","4888","5569","3628","4514","5033","3520","4219","4614","3236","3448","3551","DualSpot on"
"MA200-0420","46943","76","1","1.10","1.6","2023-07-31T10:30:00","120","2023/07/31","10:30:00","-15.79554933309555","35.002807499375194","0.3","11","300","64","98","-58","-27126","-526","1","150","149.74","113.02","36.72","29.92","31.2","11.05","90576","30.44","DUALSPOT-UV-BLUE-GREEN-RED-IR","646852","654416","908340","18.991944","7.557243","0.022196","770362","852758","841667","13.298709","5.057925","0.026489","766717","834468","832463","11.341860","4.215008","0.028458","801931","846382","890698","9.040436","3.281839","0.030968","725137","879616","967310","5.835823","1.932239","0.034104","3669","5279","6343","3373","4510","5208","3258","4234","4812","3175","3961","4409","2826","3296","3529","DualSpot on"
"MA200-0420","46944","76","1","1.10","1.6","2023-07-31T10:35:00","120","2023/07/31","10:35:00","-15.795617401599884","35.00272333296016","0.0","11","300","64","97","8","-27084","-712","1","150","150.00","113.05","36.95","30.04","31.2","11.13","90572","30.63","DUALSPOT-UV-BLUE-GREEN-RED-IR","641424","651192","906760","19.660698","7.874676","0.021866","765171","849366","840074","13.789043","5.271679","0.025430","762084","831411","830938","11.765279","4.394478","0.027311","796760","842660","888002","9.382205","3.420537","0.029349","721296","876175","964343","6.061336","2.014389","0.024125","3474","5045","6094","3215","4287","4951","3109","4031","4581","3033","3765","4185","2786","3105","3264","DualSpot on"
"MA200-0420","46945","76","1","1.10","1.6","2023-07-31T10:40:00","120","2023/07/31","10:40:00","-15.795633375644684","35.00275099975988","0.1","11","300","64","97","-72","-27063","-720","1","150","150.02","113.07","36.94","30.13","30.7","10.99","90568","30.63","DUALSPOT-UV-BLUE-GREEN-RED-IR","637552","649713","907789","20.380596","8.216930","0.021227","761937","848263","841014","14.318480","5.506420","0.025640","759633","830938","832053","12.223969","4.590832","0.027150","795032","842676","889413","9.755306","3.574663","0.030177","720235","876270","965342","6.309259","2.108019","0.030063","3739","5441","6590","3471","4710","5484","3367","4412","5040","3310","4185","4691","3062","3540","3779","DualSpot on"
"MA200-0420","46946","76","1","1.10","1.6","2023-07-31T10:45:00","120","2023/07/31","10:45:00","-15.795534193515778","35.00279733305797","0.1","11","300","64","98","-104","-27024","-624","1","150","150.08","112.70","37.38","30.20","30.2","10.81","90572","30.69","DUALSPOT-UV-BLUE-GREEN-RED-IR","634003","649093","910706","21.256768","8.631298","0.019647","753980","842384","837506","14.954988","5.788106","0.023600","756591","830241","833339","12.774770","4.826681","0.024949","793206","842968","891322","10.201626","3.757622","0.026661","719181","876610","966769","6.603817","2.216917","0.022296","4566","6511","7840","4186","5586","6470","4057","5238","5955","3973","4910","5457","3650","4069","4281","DualSpot on"
"MA200-0420","46947","76","1","1.10","1.6","2023-07-31T10:50:00","120","2023/07/31","10:50:00","-15.79570072889328","35.00275983288884","0.3","11","300","64","97","-52","-27024","-332","1","150","149.32","112.68","36.64","30.26","30.0","10.75","90564","30.75","DUALSPOT-UV-BLUE-GREEN-RED-IR","626094","643270","905422","21.932656","8.954243","0.020170","751433","841905","838891","15.456643","6.009090","0.023759","754711","830224","834846","13.207227","5.011723","0.025542","786540","837628","886949","10.552018","3.901829","0.028104","714513","872160","962677","6.833208","2.303984","0.029491","3523","5177","6318","3300","4471","5215","3186","4193","4808","3119","3948","4435","2843","3319","3561","DualSpot on"
"MA200-0420","46948","76","1","1.10","1.6","2023-07-31T10:55:00","120","2023/07/31","10:55:00","-15.795677185058594","35.00271283299662","0.1","11","300","64","97","-216","-26658","-2129","1","150","149.89","112.80","37.09","30.33","29.9","10.75","90556","30.88","DUALSPOT-UV-BLUE-GREEN-RED-IR","621561","641188","905829","22.703498","9.320278","0.018925","747380","840086","839210","16.036129","6.263960","0.022228","746851","823934","830329","13.714385","5.228000","0.023641","783215","836097","886842","10.967343","4.071934","0.025609","712293","870991","962374","7.113531","2.409003","0.024458","4014","5796","7037","3808","5094","5918","3732","4841","5523","3694","4601","5136","3471","3955","4202","DualSpot on"
"MA200-0420","46949","76","1","1.10","1.6","2023-07-31T11:00:00","120","2023/07/31","11:00:00","-15.795704305171967","35.00270366622135","0.2","12","300","64","97","25","-27075","-566","1","150","149.96","112.97","36.99","30.38","29.5","10.59","90556","30.81","DUALSPOT-UV-BLUE-GREEN-RED-IR","617471","639359","906511","23.441452","9.684628","0.019790","744102","838859","840131","16.585436","6.517094","0.024212","743400","822319","830475","14.194270","5.441509","0.025913","780045","834604","886746","11.362526","4.239695","0.028257","710276","869947","962226","7.380646","2.509975","0.025695","3836","5785","7157","3604","5073","6023","3526","4792","5578","3509","4550","5169","3303","3813","4076","DualSpot on"
"MA200-0420","46950","76","1","1.10","1.6","2023-07-31T11:05:00","120","2023/07/31","11:05:00","-15.795688807964325","35.00276416633278","0.1","12","300","64","97","-56","-27116","-620","1","150","150.08","113.04","37.04","30.38","29.3","10.51","90544","30.88","DUALSPOT-UV-BLUE-GREEN-RED-IR","614889","638682","908332","24.059502","9.990505","0.019372","741753","838377","841411","17.053488","6.729452","0.022784","741132","821695","831334","14.601228","5.620383","0.024449","779262","835386","888814","11.694799","4.378728","0.026245","709682","870388","963509","7.598734","2.594500","0.028601","3211","4850","6014","3069","4250","5019","2988","4009","4648","2948","3765","4254","2695","3187","3443","DualSpot on"
"MA200-0420","46951","76","1","1.10","1.6","2023-07-31T11:10:00","120","2023/07/31","11:10:00","-15.795672178268433","35.00275749969296","0.1","12","300","64","97","-68","-27019","-532","1","150","149.76","113.15","36.60","30.39","29.1","10.42","90540","30.88","DUALSPOT-UV-BLUE-GREEN-RED-IR","609447","635143","906381","24.736370","10.331753","0.019790","736404","834597","839575","17.560578","6.964662","0.023817","736960","819081","830330","15.043365","5.818706","0.025702","774816","832319","886956","12.055835","4.534034","0.028679","706964","868293","962113","7.837126","2.688556","0.031966","3513","5475","6882","3322","4763","5710","3244","4498","5289","3201","4256","4892","2943","3589","3926","DualSpot on"
"MA200-0420","46952","76","1","1.10","1.6","2023-07-31T11:15:00","120","2023/07/31","11:15:00","-15.795741975307465","35.002762499731034","0.3","12","300","64","97","-32","-27044","-475","1","150","150.15","113.59","36.56","30.41","29.2","10.47","90524","30.94","DUALSPOT-UV-BLUE-GREEN-RED-IR","608161","635866","910447","25.390538","10.662498","0.019533","730261","829763","836670","18.049804","7.195028","0.024097","736030","819942","832809","15.468904","6.010595","0.025601","775535","834763","890869","12.403419","4.683424","0.028224","707797","870514","965440","8.065737","2.779354","0.032608","3382","5313","6711","3193","4671","5650","3110","4357","5149","3070","4099","4723","2811","3469","3815","DualSpot on"
"MA200-0420","46953","76","1","1.10","1.6","2023-07-31T11:20:00","120","2023/07/31","11:20:00","-15.795675694942474","35.002773999702185","0.1","12","300","64","97","-31","-27105","-577","1","150","149.89","113.82","36.06","30.57","29.4","10.71","90520","31.19","DUALSPOT-UV-BLUE-GREEN-RED-IR","602775","632529","909038","26.126522","11.032902","0.019313","724799","826069","835064","18.607418","7.448663","0.022612","731676","817324","831927","15.957017","6.225685","0.024474","772106","833031","890513","12.807202","4.852788","0.026759","705208","868849","964597","8.342827","2.883125","0.026081","3797","6032","7666","3631","5213","6269","3560","4951","5841","3559","4711","5414","3400","4019","4346","DualSpot on"
"MA200-0420","46954","76","1","1.10","1.6","2023-07-31T11:25:00","120","2023/07/31","11:25:00","-15.795715987682343","35.002702665980905","0.2","12","300","64","97","-52","-27080","-564","1","150","150.15","114.71","35.44","30.74","29.1","10.73","90520","31.38","DUALSPOT-UV-BLUE-GREEN-RED-IR","598468","629989","908396","26.772130","11.367302","0.020184","726517","830099","841057","19.089362","7.678409","0.024934","727925","814996","831151","16.376074","6.416642","0.026775","767137","829239","887793","13.150663","5.002809","0.030447","705751","870754","967576","8.576653","2.973477","0.032331","3305","5542","7192","3114","4805","5943","3033","4473","5401","3004","4246","5010","2847","3561","3940","DualSpot on"
"MA200-0420","46955","76","1","1.10","1.6","2023-07-31T11:30:00","120","2023/07/31","11:30:00","-15.795651853084564","35.00278016645461","0.1","12","300","64","97","-91","-26825","-916","1","150","150.46","114.63","35.83","30.83","28.7","10.57","90512","31.31","DUALSPOT-UV-BLUE-GREEN-RED-IR","595291","628541","909230","27.401780","11.691357","0.019344","723666","828902","841650","19.555680","7.898528","0.023586","725425","814014","831677","16.783064","6.602119","0.025638","765310","828840","888660","13.481829","5.145796","0.028301","700140","865036","962023","8.801130","3.059205","0.028839","3226","5312","6865","3015","4554","5597","2947","4298","5173","2898","4004","4686","2735","3342","3666","DualSpot on"
"MA200-0420","46956","76","1","1.10","1.6","2023-07-31T11:35:00","120","2023/07/31","11:35:00","-15.795659363269806","35.00278466637246","0.1","11","300","64","97","-58","-27116","-470","1","150","149.67","114.32","35.35","30.90","28.6","10.58","90512","31.44","DUALSPOT-UV-BLUE-GREEN-RED-IR","589053","623889","905618","28.058002","12.036900","0.019668","716987","823286","837951","20.039244","8.132369","0.024302","723870","814071","833369","17.204610","6.797177","0.026204","764551","829595","890787","13.824121","5.296539","0.029483","699855","865885","963892","9.031235","3.149186","0.032003","3371","5741","7522","3135","4904","6112","3061","4581","5574","3003","4278","5070","2811","3556","3954","DualSpot on"
"MA200-0420","46957","76","1","1.10","1.6","2023-07-31T11:40:00","120","2023/07/31","11:40:00","-15.795716285705566","35.00273299938999","0.4","11","300","64","97","-112","-27145","-508","1","150","150.46","114.59","35.86","30.99","28.7","10.69","90500","31.63","DUALSPOT-UV-BLUE-GREEN-RED-IR","585686","622910","908501","28.941558","12.507240","0.019088","714700","823437","840759","20.690620","8.448138","0.023259","717718","809631","830970","17.766372","7.058114","0.025072","758991","825699","888405","14.282417","5.497837","0.027733","699749","867364","966666","9.332390","3.266625","0.029420","4528","7702","10118","4213","6526","8123","4069","6040","7339","4012","5631","6644","3671","4574","5060","DualSpot on"
"MA200-0420","46958","76","1","1.10","1.6","2023-07-31T11:45:00","120","2023/07/31","11:45:00","-15.795662999153137","35.00278566638008","0.1","11","300","64","97","-87","-27087","-333","1","150","149.96","114.63","35.33","31.10","28.2","10.56","90492","31.75","DUALSPOT-UV-BLUE-GREEN-RED-IR","576545","616364","904256","30.038308","13.093391","0.018825","704852","815529","835991","21.505070","8.841834","0.022841","713851","808365","832451","18.478630","7.388304","0.024707","756059","825242","890218","14.868620","5.755433","0.027571","693725","861924","962090","9.726067","3.420507","0.030096","5619","9745","12932","5267","8261","10351","5158","7759","9492","5130","7315","8695","4797","6084","6783","DualSpot on"
"MA200-0420","46959","76","1","1.10","1.6","2023-07-31T11:50:00","120","2023/07/31","11:50:00","-15.795670330524445","35.00275899958797","0.1","11","300","64","98","-25","-27145","-579","1","150","150.21","114.82","35.39","31.25","28.6","10.90","90492","31.94","DUALSPOT-UV-BLUE-GREEN-RED-IR","573152","616504","911107","31.380386","13.819576","0.018308","698323","811967","836229","22.465548","9.308043","0.022049","707720","804969","832179","19.308686","7.775408","0.023932","750285","822019","889388","15.541874","6.052997","0.026734","693571","864083","966215","10.171898","3.596950","0.030014","6865","12052","16134","6201","9766","12288","6001","9081","11157","5882","8435","10064","5424","6964","7807","DualSpot on"
"MA200-0420","46960","76","1","1.10","1.6","2023-07-31T11:55:00","120","2023/07/31","11:55:00","-15.795751631259918","35.00278649944812","0.1","11","300","64","98","-16","-27020","-733","1","150","150.21","114.49","35.72","31.36","28.3","10.81","90488","32.00","DUALSPOT-UV-BLUE-GREEN-RED-IR","566147","611362","907731","32.254760","14.293972","0.017682","695834","811770","838761","23.131908","9.636714","0.021572","705431","804855","834343","19.899766","8.053580","0.023152","743782","817086","885964","16.035074","6.273843","0.026003","688909","860030","962992","10.518665","3.735631","0.028922","4485","7801","10439","4314","6821","8611","4286","6465","7947","4321","6203","7412","4230","5423","6080","DualSpot on"
"MA200-0420","46961","76","1","1.10","1.6","2023-07-31T12:00:00","120","2023/07/31","12:00:00","-15.795639157295227","35.002771666506305","0.0","10","300","64","97","-16","-27100","-576","1","150","150.21","114.22","35.99","31.46","28.1","10.79","90476","31.94","DUALSPOT-UV-BLUE-GREEN-RED-IR","562155","608699","906809","32.859470","14.633297","0.017791","692471","809706","838623","23.595888","9.873734","0.021886","701742","802320","833376","20.307390","8.253264","0.023783","745934","820969","891574","16.372356","6.429158","0.026365","690359","863044","967242","10.748936","3.829297","0.028946","3109","5537","7486","3011","4881","6227","2963","4605","5730","2962","4329","5212","2816","3635","4088","DualSpot on"
"MA200-0420","46962","76","1","1.10","1.6","2023-07-31T12:05:00","120","2023/07/31","12:05:00","-15.795628249645233","35.00281733297743","0.3","10","300","64","98","-108","-27091","-404","1","150","149.95","114.02","35.93","31.44","27.9","10.68","90488","31.94","DUALSPOT-UV-BLUE-GREEN-RED-IR","558103","605864","905700","33.458858","14.973061","0.017667","688882","807316","838111","24.054456","10.109647","0.021691","698385","800123","832736","20.709996","8.451809","0.023579","742493","818618","890435","16.706516","6.584312","0.026254","688175","861466","966403","10.973072","3.924306","0.031850","3087","5554","7551","2981","4867","6234","2931","4587","5729","2940","4332","5237","2746","3693","4221","DualSpot on"
"MA200-0420","46963","76","1","1.10","1.6","2023-07-31T12:10:00","120","2023/07/31","12:10:00","-15.795601546764374","35.00279133301228","0.2","10","300","64","97","-16","-27116","-176","1","150","150.71","114.14","36.57","31.48","28.0","10.75","90468","32.00","DUALSPOT-UV-BLUE-GREEN-RED-IR","556072","605236","907876","34.064352","15.319416","0.017263","686592","806416","839211","24.521972","10.351550","0.021026","693069","795641","829809","21.122114","8.656854","0.022903","741410","818901","892143","17.048588","6.745007","0.025547","683992","857381","962734","11.205517","4.021480","0.028763","3115","5563","7563","3036","4904","6268","2997","4655","5806","3006","4408","5326","2844","3712","4197","DualSpot on"
"MA200-0420","46964","76","1","1.10","1.6","2023-07-31T12:15:00","120","2023/07/31","12:15:00","-15.795676171779633","35.00270783272572","0.2","12","300","64","98","-33","-27054","-658","1","150","150.15","113.76","36.38","31.64","28.2","11.01","90468","32.25","DUALSPOT-UV-BLUE-GREEN-RED-IR","553350","603817","908866","34.663580","15.662292","0.017024","683795","804962","839687","24.986326","10.588395","0.020330","690622","794525","830265","21.533882","8.856377","0.021671","735018","813330","887477","17.393440","6.903880","0.024270","682229","856392","962600","11.449207","4.119864","0.025393","3093","5535","7547","3025","4825","6149","3005","4553","5634","3041","4381","5262","2992","3777","4218","DualSpot on"
"MA200-0420","46965","76","1","1.10","1.6","2023-07-31T12:20:00","120","2023/07/31","12:20:00","-15.795627236366272","35.00272766617127","0.3","12","300","64","97","-12","-27072","-252","1","150","150.21","113.78","36.43","31.82","27.7","10.91","90460","32.50","DUALSPOT-UV-BLUE-GREEN-RED-IR","549987","601678","908844","35.270208","16.011452","0.016832","680886","803310","840007","25.449756","10.831872","0.020723","691060","796667","834224","21.944092","9.061492","0.022284","736515","816468","892347","17.734492","7.066287","0.025237","683246","858919","966388","11.692993","4.219536","0.025858","3131","5629","7706","3019","4954","6388","2993","4674","5857","3007","4472","5443","2993","3822","4290","DualSpot on"
"MA200-0420","46966","76","1","1.10","1.6","2023-07-31T12:25:00","120","2023/07/31","12:25:00","-15.79562920331955","35.002722332952544","0.1","12","300","64","98","-41","-27008","-341","1","150","150.21","113.35","36.86","31.90","27.9","11.07","90464","32.44","DUALSPOT-UV-BLUE-GREEN-RED-IR","544633","597890","907139","36.062352","16.460426","0.016012","675350","799268","838430","26.075396","11.151593","0.019159","686668","793862","833562","22.502314","9.334745","0.020589","731692","813170","890678","18.204040","7.283533","0.022705","679842","856309","964753","12.023239","4.355671","0.024579","4104","7153","9714","4091","6429","8176","4088","6154","7618","4156","5912","7084","4070","5158","5777","DualSpot on"
"MA200-0420","46967","76","1","1.10","1.6","2023-07-31T12:30:00","120","2023/07/31","12:30:00","-15.79565155506134","35.002800666261464","0.3","12","300","64","97","-58","-27120","-645","1","150","149.89","113.19","36.70","31.86","27.4","10.77","90456","32.38","DUALSPOT-UV-BLUE-GREEN-RED-IR","540348","594619","905343","36.656700","16.809482","0.016363","670820","795579","836670","26.539554","11.400823","0.020158","682991","791154","832485","22.912362","9.546589","0.022012","728951","811557","890376","18.545204","7.448077","0.024214","678062","855135","964424","12.254177","4.457112","0.029221","3084","5587","7706","3039","5034","6537","3007","4792","6068","3023","4498","5488","2850","3861","4440","DualSpot on"
"MA200-0420","46968","76","1","1.10","1.6","2023-07-31T12:35:00","120","2023/07/31","12:35:00","-15.795705139636993","35.002775999717414","0.3","12","300","64","97","-79","-26958","-387","1","150","149.71","112.93","36.78","31.96","27.4","10.86","90452","32.56","DUALSPOT-UV-BLUE-GREEN-RED-IR","539910","595777","910705","37.322404","17.201362","0.016067","666293","792131","835327","27.057590","11.676439","0.019481","678300","787511","830576","23.371314","9.779009","0.020893","723748","807364","887430","18.931086","7.633982","0.023528","678105","856549","967164","12.526115","4.572975","0.026090","3462","6258","8648","3400","5555","7191","3374","5246","6593","3428","5071","6181","3363","4400","4996","DualSpot on"
"MA200-0420","46969","76","1","1.10","1.6","2023-07-31T12:40:00","120","2023/07/31","12:40:00","-15.795629382133484","35.0028243327979","0.1","13","300","64","97","-83","-26958","-200","1","150","150.46","113.31","37.15","32.02","27.4","10.92","90452","32.63","DUALSPOT-UV-BLUE-GREEN-RED-IR","532640","589376","904485","37.994728","17.600026","0.015819","663007","790100","835437","27.568290","11.948231","0.019000","675780","786345","831246","23.822530","10.008063","0.020402","721192","806111","887648","19.305974","7.812729","0.022419","676354","855613","967147","12.784870","4.683825","0.025509","3485","6303","8735","3341","5423","7016","3306","5119","6432","3319","4827","5852","3190","4168","4734","DualSpot on"
"MA200-0420","46970","76","1","1.10","1.6","2023-07-31T12:45:00","120","2023/07/31","12:45:00","-15.795570313930511","35.002827666234225","0.5","13","300","64","97","-62","-27037","-645","1","150","150.27","112.52","37.76","32.00","27.0","10.64","90444","32.44","DUALSPOT-UV-BLUE-GREEN-RED-IR","530542","589497","910051","39.003036","18.189782","0.014922","661906","791852","840993","28.392470","12.386067","0.017908","673592","786695","834798","24.569926","10.389815","0.019333","716048","803061","887017","19.950242","8.121291","0.020993","672866","853483","966745","13.257446","4.887748","0.023515","5263","9174","12593","5430","8596","11047","5514","8394","10504","5744","8199","9884","5867","7545","8524","DualSpot on"
"MA200-0420","46971","76","1","1.10","1.6","2023-07-31T12:50:00","120","2023/07/31","12:50:00","-15.795730769634247","35.002735832938924","0.5","13","300","64","97","24","-27096","-288","1","150","149.97","113.13","36.84","31.97","27.0","10.62","90440","32.44","DUALSPOT-UV-BLUE-GREEN-RED-IR","525905","585834","908009","39.657132","18.591176","0.015754","657108","787928","839132","28.899302","12.664977","0.019073","669980","784119","834053","25.020246","10.625916","0.020569","712254","800329","885636","20.328102","8.307718","0.022901","670341","851491","965583","13.514946","5.003475","0.027850","3396","6399","9050","3321","5612","7400","3304","5320","6809","3351","5077","6270","3179","4388","5098","DualSpot on"
"MA200-0420","46972","76","1","1.10","1.6","2023-07-31T12:55:00","120","2023/07/31","12:55:00","-15.7956303358078","35.002765166340396","0.0","13","300","64","97","-20","-27024","-496","1","150","150.27","113.06","37.21","31.94","27.0","10.61","90436","32.38","DUALSPOT-UV-BLUE-GREEN-RED-IR","522539","583406","907693","40.261752","18.968400","0.015616","653833","785624","838910","29.373490","12.930167","0.018906","666775","781902","833566","25.440740","10.851762","0.020606","714428","804177","891462","20.681754","8.485638","0.022854","667997","849685","964564","13.759487","5.112478","0.026202","3141","5954","8460","3109","5283","6992","3087","5039","6490","3138","4797","5951","3021","4092","4725","DualSpot on"
"MA200-0420","46973","76","1","1.10","1.6","2023-07-31T13:00:00","120","2023/07/31","13:00:00","-15.795594036579132","35.00277116615325","0.1","13","300","64","98","29","-27045","-479","1","150","149.46","112.89","36.57","31.99","27.3","10.80","90424","32.50","DUALSPOT-UV-BLUE-GREEN-RED-IR","519776","581598","908243","40.858516","19.344784","0.015729","651037","783853","839214","29.836086","13.188621","0.018936","661010","776631","829745","25.852112","11.069917","0.020384","707859","798151","886351","21.026866","8.658910","0.022977","663573","845100","960416","13.996838","5.219374","0.027405","3104","6044","8688","3037","5238","6982","3025","4952","6395","3067","4753","5933","2937","4083","4764","DualSpot on"
"MA200-0420","46974","76","1","1.10","1.6","2023-07-31T13:05:00","120","2023/07/31","13:05:00","-15.795719146728516","35.00272516626865","0.1","13","300","64","97","-37","-27087","-433","1","150","150.02","112.93","37.09","32.10","27.4","10.94","90428","32.69","DUALSPOT-UV-BLUE-GREEN-RED-IR","515700","578519","907552","41.564492","19.795002","0.015460","647026","780762","838331","30.349524","13.480480","0.018715","660930","778164","833399","26.301808","11.314003","0.020297","709502","801451","891700","21.399270","8.847707","0.022477","664416","847430","964183","14.257458","5.334933","0.025158","3671","7129","10273","3370","5833","7801","3306","5463","7092","3308","5106","6374","3223","4352","5027","DualSpot on"
"MA200-0420","46975","76","1","1.10","1.6","2023-07-31T13:10:00","120","2023/07/31","13:10:00","-15.79564219713211","35.00272983289324","0.0","13","300","64","98","-84","-27000","-656","1","150","150.47","112.87","37.60","32.17","27.5","11.06","90420","32.69","DUALSPOT-UV-BLUE-GREEN-RED-IR","514256","578266","910820","42.207756","20.198262","0.014890","645901","781092","840979","30.843560","13.757649","0.017917","659333","777856","835038","26.740716","11.547781","0.019193","707758","800974","892769","21.766130","9.030310","0.021039","663563","847528","965420","14.513416","5.449076","0.024232","3347","6299","9009","3244","5465","7252","3228","5162","6632","3260","4872","6015","3167","4241","4886","DualSpot on"
"MA200-0420","46976","76","1","1.10","1.6","2023-07-31T13:15:00","120","2023/07/31","13:15:00","-15.795642733573914","35.002726833103225","0.1","12","300","64","97","4","-27058","-87","1","150","149.71","113.35","36.36","32.20","27.2","10.95","90412","32.69","DUALSPOT-UV-BLUE-GREEN-RED-IR","510819","575601","909904","42.777064","20.563202","0.015377","642479","778445","840305","31.290746","14.015256","0.018866","652877","771619","830174","27.138322","11.766437","0.020549","701210","794862","887478","22.101250","9.202438","0.022955","662495","847252","966097","14.744694","5.553098","0.026587","2950","5894","8620","2924","5251","7139","2912","4992","6584","2966","4749","6020","2850","3996","4688","DualSpot on"
"MA200-0420","46977","76","1","1.10","1.6","2023-07-31T13:20:00","120","2023/07/31","13:20:00","-15.795608639717102","35.00279299961403","0.2","12","300","64","97","-75","-27033","-612","1","150","149.44","112.80","36.64","32.31","27.2","11.06","90408","32.94","DUALSPOT-UV-BLUE-GREEN-RED-IR","506836","572194","907773","43.327208","20.920986","0.015223","637985","774387","838086","31.730636","14.270535","0.018542","652605","772640","833067","27.529730","11.982691","0.020115","701628","796582","890948","22.431914","9.375480","0.022830","658720","843502","962851","14.981636","5.660554","0.025963","2864","5735","8415","2891","5164","7023","2880","4899","6456","2941","4738","6028","2934","4096","4802","DualSpot on"
"MA200-0420","46978","76","1","1.10","1.6","2023-07-31T13:25:00","120","2023/07/31","13:25:00","-15.795624375343323","35.002753666369244","0.0","13","300","64","97","-70","-26950","-950","1","150","149.94","112.85","37.09","32.47","27.2","11.16","90408","33.13","DUALSPOT-UV-BLUE-GREEN-RED-IR","504090","570196","907816","43.869732","21.272098","0.014885","634916","772080","837681","32.161904","14.518836","0.017977","649930","770833","832869","27.915734","12.194287","0.019436","698646","794479","890094","22.760000","9.544493","0.021717","660445","846837","967645","15.216686","5.764319","0.023392","2823","5560","8136","2832","4963","6716","2839","4736","6208","2916","4572","5767","2909","3908","4517","DualSpot on"
"MA200-0420","46979","76","1","1.10","1.6","2023-07-31T13:30:00","120","2023/07/31","13:30:00","-15.795638501644135","35.00273199961521","0.1","13","300","64","97","29","-27166","-220","1","150","149.76","112.95","36.80","32.56","26.6","10.89","90400","33.06","DUALSPOT-UV-BLUE-GREEN-RED-IR","501055","567919","907560","44.452196","21.647766","0.014764","631879","769873","837471","32.620010","14.786244","0.018132","647166","768948","832729","28.326284","12.421887","0.019608","696917","793816","890959","23.104844","9.723719","0.021936","658480","845490","967185","15.466167","5.875994","0.024321","3028","5995","8811","3006","5386","7359","3017","5134","6787","3062","4885","6210","3085","4239","4945","DualSpot on"
"MA200-0420","46980","76","1","1.10","1.6","2023-07-31T13:35:00","120","2023/07/31","13:35:00","-15.795624673366547","35.00277983304113","0.0","13","300","64","97","-59","-27091","-456","1","150","149.39","112.04","37.35","32.48","26.4","10.74","90408","33.00","DUALSPOT-UV-BLUE-GREEN-RED-IR","499862","567545","910047","44.961276","21.985122","0.014659","631659","770889","840673","33.035442","15.032490","0.017804","645834","768626","834103","28.698420","12.632488","0.019334","695870","793815","892443","23.421142","9.890466","0.021419","654525","841346","963445","15.681263","5.979742","0.026748","2668","5305","7828","2748","4887","6674","2757","4681","6194","2832","4479","5683","2681","3880","4619","DualSpot on"
"MA200-0420","46981","76","1","1.10","1.6","2023-07-31T13:40:00","120","2023/07/31","13:40:00","-15.79552686214447","35.00280633266084","0.0","13","300","64","98","232","-27680","292","1","150","149.71","112.70","37.01","32.45","26.5","10.76","90400","32.88","DUALSPOT-UV-BLUE-GREEN-RED-IR","497431","565729","910247","45.472820","22.328126","0.014775","628118","767831","839421","33.446910","15.281728","0.018199","643574","767146","834274","29.069792","12.846438","0.019775","693782","792574","892559","23.734994","10.060795","0.022381","653307","840756","963740","15.898495","6.082828","0.026355","2665","5444","8124","2706","4992","6916","2735","4799","6434","2793","4617","5959","2692","3891","4634","DualSpot on"
"MA200-0420","46982","76","1","1.10","1.6","2023-07-31T13:45:00","120","2023/07/31","13:45:00","-15.795628547668457","35.002785332966596","0.2","14","300","64","97","4","-27088","32","1","150","150.15","113.23","36.92","32.45","26.6","10.83","90396","32.94","DUALSPOT-UV-BLUE-GREEN-RED-IR","495014","563978","910616","45.995948","22.676724","0.014633","626420","767090","840674","33.867132","15.529368","0.017673","641207","765547","834329","29.445438","13.059080","0.019339","691651","791315","892671","24.055592","10.229921","0.021536","651710","839675","963539","16.120346","6.187460","0.026060","2713","5545","8299","2751","4972","6853","2754","4781","6397","2840","4595","5894","2737","3958","4720","DualSpot on"
"MA200-0420","46983","76","1","1.10","1.6","2023-07-31T13:50:00","120","2023/07/31","13:50:00","-15.795511186122894","35.00280149956234","0.2","14","300","64","97","-16","-27195","-462","1","150","150.52","115.46","35.07","32.48","26.9","11.02","90388","33.00","DUALSPOT-UV-BLUE-GREEN-RED-IR","489323","558594","905466","46.590676","23.074006","0.015107","619746","760325","835611","34.335112","15.805759","0.018536","635668","760336","830618","29.864514","13.294206","0.020235","685302","785386","887650","24.413490","10.417898","0.022935","650995","839902","964902","16.375454","6.305033","0.027906","3025","6654","10215","3004","5843","8264","3013","5566","7615","3109","5378","7066","3086","4683","5684","DualSpot on"
"MA200-0420","46984","76","1","1.10","1.6","2023-07-31T13:55:00","120","2023/07/31","13:55:00","-15.795703530311584","35.00274166627787","0.2","14","300","64","97","20","-27132","-320","1","150","149.79","115.37","34.42","32.58","27.2","11.24","90376","33.19","DUALSPOT-UV-BLUE-GREEN-RED-IR","488389","558612","909169","47.185228","23.475850","0.015171","619604","761621","839319","34.797836","16.082432","0.018716","635726","761782","834171","30.279468","13.529729","0.020477","681657","782493","886008","24.761692","10.602908","0.023317","648173","837357","963127","16.621910","6.418916","0.028405","3026","6858","10651","2973","5959","8525","2986","5681","7858","3027","5393","7164","2984","4622","5653","DualSpot on"
"MA200-0420","46985","76","1","1.10","1.6","2023-07-31T14:00:00","120","2023/07/31","14:00:00","-15.795633018016815","35.00273716612719","0.3","13","300","64","97","128","-27240","200","1","150","150.60","115.09","35.52","32.67","26.8","11.10","90380","33.19","DUALSPOT-UV-BLUE-GREEN-RED-IR","486535","557450","910571","47.722104","23.837932","0.014734","617525","760339","840192","35.237524","16.350372","0.018310","633459","760344","834475","30.678162","13.760208","0.019979","684628","787143","892911","25.104556","10.787302","0.022532","646418","836208","962927","16.873958","6.536981","0.027148","2740","5988","9229","2832","5592","7982","2876","5387","7430","2988","5208","6881","3059","4643","5645","DualSpot on"
"MA200-0420","46986","76","1","1.10","1.6","2023-07-31T14:05:00","120","2023/07/31","14:05:00","-15.795563995838165","35.002805666066706","0.1","13","300","64","97","-79","-27116","-620","1","150","150.08","115.09","34.99","32.71","26.9","11.20","90368","33.19","DUALSPOT-UV-BLUE-GREEN-RED-IR","481285","552393","905509","48.247012","24.194478","0.014763","611437","754106","835408","35.662916","16.605707","0.018108","628325","755429","830919","31.060614","13.978593","0.019797","678359","781121","887612","25.430044","10.960494","0.022362","645765","836406","964177","17.106746","6.645785","0.027341","2678","5985","9310","2740","5409","7735","2758","5181","7164","2837","4965","6578","2825","4343","5308","DualSpot on"
"MA200-0420","46987","76","1","1.10","1.6","2023-07-31T14:10:00","120","2023/07/31","14:10:00","-15.79556918144226","35.00279549974948","0.2","13","300","64","97","0","-27129","-275","1","150","150.02","115.16","34.86","32.81","26.9","11.29","90360","33.38","DUALSPOT-UV-BLUE-GREEN-RED-IR","480537","552465","908951","48.784916","24.560242","0.014658","611006","754883","838473","36.094188","16.866278","0.018050","627430","755565","832933","31.451388","14.202201","0.019674","678970","783065","891444","25.764736","11.140609","0.022437","645630","837342","966339","17.349926","6.757296","0.026366","2743","6162","9628","2776","5540","7966","2817","5325","7390","2915","5183","6910","2949","4468","5437","DualSpot on"
"MA200-0420","46988","76","1","1.10","1.6","2023-07-31T14:15:00","120","2023/07/31","14:15:00","-15.795656025409698","35.00271866610274","0.3","13","300","64","98","-66","-27008","-470","1","150","149.92","115.36","34.56","32.86","26.7","11.20","90356","33.38","DUALSPOT-UV-BLUE-GREEN-RED-IR","479172","551703","910708","49.262612","24.891648","0.014753","610106","754881","840478","36.483572","17.106184","0.018241","625987","754972","833978","31.802162","14.407067","0.019952","677581","782519","892266","26.064174","11.303770","0.022682","644820","837252","967213","17.567382","6.859771","0.027585","2432","5632","8901","2502","5146","7480","2524","4921","6907","2604","4736","6370","2633","4142","5109","DualSpot on"
"MA200-0420","46989","76","1","1.10","1.6","2023-07-31T14:20:00","120","2023/07/31","14:20:00","-15.795636892318726","35.002742832992226","0.1","13","300","64","97","-137","-27237","-1675","1","150","149.65","114.56","35.09","32.91","26.8","11.32","90356","33.38","DUALSPOT-UV-BLUE-GREEN-RED-IR","475637","548470","908558","49.767824","25.242034","0.014457","605964","750950","838239","36.898104","17.361848","0.017801","622984","752499","833087","32.178798","14.626845","0.019389","674478","780122","891108","26.390520","11.480380","0.021815","642498","835251","966009","17.802532","6.969766","0.026069","2590","5864","9234","2682","5400","7816","2729","5199","7257","2858","5049","6736","2867","4378","5350","DualSpot on"
"MA200-0420","46990","76","1","1.10","1.6","2023-07-31T14:25:00","120","2023/07/31","14:25:00","-15.795641720294952","35.00272816629149","0.0","13","300","64","97","16","-27100","-544","1","150","149.56","114.81","34.75","32.88","26.9","11.33","90356","33.31","DUALSPOT-UV-BLUE-GREEN-RED-IR","473860","547249","909678","50.263932","25.584796","0.014387","604039","749779","839011","37.309848","17.613020","0.017634","620540","750732","832919","32.552182","14.844050","0.019320","671512","777846","890061","26.714114","11.655867","0.021865","640680","833964","965584","18.040740","7.082922","0.026820","2538","5793","9168","2658","5358","7772","2700","5189","7275","2827","5066","6799","2898","4548","5615","DualSpot on"
"MA200-0420","46991","76","1","1.10","1.6","2023-07-31T14:30:00","120","2023/07/31","14:30:00","-15.79558551311493","35.0028013328556","0.2","13","300","68","97","-29","-27079","-462","2","150","149.96","115.35","34.61","32.81","26.8","11.22","90360","33.19","DUALSPOT-UV-BLUE-GREEN-RED-IR","789422","704646","907379","0.000000","0.000000","0.000000","886471","894994","835893","0.000000","0.000000","0.000000","868099","872368","830770","0.000000","0.000000","0.000000","882218","872434","885872","0.000000","0.000000","0.000000","769929","892833","963041","0.000000","0.000000","0.000000","","","","","","","","","","","","","","","","Tape advance-DualSpot on"
"MA200-0420","46992","76","1","1.10","1.6","2023-07-31T14:35:00","120","2023/07/31","14:35:00","-15.795609056949615","35.002773999702185","0.2","13","300","68","97","-59","-27024","-496","2","150","150.28","115.20","35.07","32.77","27.3","11.48","90356","33.13","DUALSPOT-UV-BLUE-GREEN-RED-IR","778964","702156","908281","0.000000","0.000000","0.000000","878634","892738","836281","0.000000","0.000000","0.000000","862193","871026","831561","0.000000","0.000000","0.000000","879625","873422","888582","0.000000","0.000000","0.000000","768850","893839","965131","0.000000","0.000000","0.000000","","","","","","","","","","","","","","","","Tape advance-DualSpot on"
"MA200-0420","46993","76","1","1.10","1.6","2023-07-31T14:40:00","120","2023/07/31","14:40:00","-15.795576691627502","35.002756332745776","0.4","12","300","64","98","28","-27180","-348","2","150","150.02","115.05","34.97","32.69","28.1","11.82","90376","33.00","DUALSPOT-UV-BLUE-GREEN-RED-IR","769054","700788","911443","1.633852","0.542661","0.000000","872345","892490","838974","1.041126","0.346678","0.000000","856824","870593","833493","0.856661","0.283718","0.000000","876382","874019","891091","0.650179","0.213199","0.000000","767999","895149","967670","0.377105","0.115550","0.000000","8341","9114","8341","6708","7349","6708","6182","6735","6182","5669","6116","5669","4579","4615","4579","DualSpot on"
"MA200-0420","46994","76","1","1.10","1.6","2023-07-31T14:45:00","120","2023/07/31","14:45:00","-15.795656502246857","35.00273233279586","0.1","12","300","64","97","164","-27219","-431","2","150","150.41","115.28","35.12","32.44","27.9","11.56","90372","32.63","DUALSPOT-UV-BLUE-GREEN-RED-IR","755222","694443","907383","2.999529","1.002483","0.000000","860781","886040","835455","1.952845","0.649333","0.000000","848423","866469","831637","1.619607","0.536239","0.000000","867837","868916","887564","1.236738","0.403144","0.000000","764272","892962","966345","0.722776","0.220413","0.000000","6958","7689","6958","5862","6387","5862","5494","5968","5494","5104","5425","5104","4188","4170","4188","DualSpot on"
"MA200-0420","46995","76","1","1.10","1.6","2023-07-31T14:50:00","120","2023/07/31","14:50:00","-15.795644402503967","35.002704499522224","0.3","12","300","64","97","-24","-27028","-940","2","150","150.15","114.82","35.33","32.18","28.8","11.78","90360","32.25","DUALSPOT-UV-BLUE-GREEN-RED-IR","741268","688385","904329","4.530752","1.544416","0.040991","857320","888192","840405","2.948826","0.999349","0.000000","839657","862136","829899","2.446657","0.824064","0.000000","861527","866211","886692","1.867405","0.616876","0.000000","761228","891616","965959","1.083847","0.336477","0.000000","7832","9010","9619","6430","7345","6430","5980","6764","5980","5510","6070","5510","4392","4589","4392","DualSpot on"
"MA200-0420","46996","76","1","1.10","1.6","2023-07-31T14:55:00","120","2023/07/31","14:55:00","-15.79561048746109","35.00274899951182","0.3","12","300","64","98","172","-27444","148","2","150","150.34","114.73","35.61","31.85","29.3","11.79","90352","31.94","DUALSPOT-UV-BLUE-GREEN-RED-IR","732488","686587","906774","5.993921","2.075780","0.034435","845528","881474","836921","3.915131","1.342636","0.046059","835011","861829","831936","3.249067","1.107072","0.052733","858170","866338","888659","2.481730","0.828633","0.000000","756478","888079","963267","1.430955","0.452546","0.000000","7490","8764","9438","6243","7146","7617","5806","6597","7007","5372","5965","5372","4226","4553","4226","DualSpot on"
"MA200-0420","46997","76","1","1.10","1.6","2023-07-31T15:00:00","120","2023/07/31","15:00:00","-15.795623660087585","35.002747333142906","0.2","13","300","64","97","8","-26940","-564","2","150","150.15","114.80","35.35","31.54","29.8","11.75","90344","31.63","DUALSPOT-UV-BLUE-GREEN-RED-IR","720895","681863","905420","7.438171","2.615417","0.033299","836258","877102","835651","4.870891","1.690858","0.044995","831841","862964","835413","4.045288","1.392650","0.049654","850722","862230","886368","3.092165","1.040887","0.052731","753986","887193","963453","1.780754","0.571225","0.000000","7389","8966","9822","6171","7302","7904","5758","6707","7205","5334","6024","6374","4256","4690","4256","DualSpot on"
"MA200-0420","46998","76","1","1.10","1.6","2023-07-31T15:05:00","120","2023/07/31","15:05:00","-15.795628249645233","35.002736166119576","0.1","13","300","64","97","29","-26966","-570","2","150","149.69","114.57","35.12","31.37","30.4","11.92","90344","31.50","DUALSPOT-UV-BLUE-GREEN-RED-IR","710884","678232","905370","8.830019","3.143028","0.030438","827993","873519","835062","5.793276","2.028316","0.039619","822025","856961","831925","4.814875","1.670688","0.044620","847726","862504","888480","3.684322","1.248767","0.048914","753430","888578","966081","2.124284","0.685493","0.000000","7135","8824","9757","5968","7123","7746","5576","6573","7102","5185","5938","6325","4188","4545","4188","DualSpot on"
"MA200-0420","46999","76","1","1.10","1.6","2023-07-31T15:10:00","120","2023/07/31","15:10:00","-15.795645356178284","35.00283333333209","0.1","13","300","64","97","-620","-25520","-1368","2","150","149.89","115.09","34.80","31.26","31.0","12.09","90344","31.56","DUALSPOT-UV-BLUE-GREEN-RED-IR","702631","675761","906702","10.146299","3.654016","0.030284","822493","872538","836854","6.672996","2.354133","0.038635","816749","855454","832662","5.548802","1.937878","0.043005","845198","863103","890891","4.253167","1.449477","0.047493","751930","888821","967416","2.464218","0.797453","0.000000","6717","8624","9697","5666","6940","7635","5294","6374","6953","4958","5786","6214","4126","4494","4126","DualSpot on"
"MA200-0420","47000","76","1","1.10","1.6","2023-07-31T15:15:00","120","2023/07/31","15:15:00","-15.795595824718475","35.00278233294375","0.0","13","300","64","97","37","-27158","-312","2","150","149.94","114.72","35.23","31.22","31.0","12.08","90340","31.44","DUALSPOT-UV-BLUE-GREEN-RED-IR","692983","671411","905309","11.378363","4.148487","0.028628","814575","868521","835634","7.494156","2.669668","0.037469","809987","852005","831463","6.235748","2.196294","0.041348","838071","858739","888093","4.786278","1.643895","0.046435","748480","886652","966089","2.785442","0.904917","0.000000","6308","8244","9355","5306","6640","7378","4971","6090","6698","4662","5537","5994","3911","4261","3911","DualSpot on"
"MA200-0420","47001","76","1","1.10","1.6","2023-07-31T15:20:00","120","2023/07/31","15:20:00","-15.795686542987823","35.00268999952823","0.2","13","300","64","97","-88","-26991","-788","2","150","150.15","114.73","35.42","31.04","30.9","11.89","90356","31.13","DUALSPOT-UV-BLUE-GREEN-RED-IR","688865","672100","910646","12.561596","4.630865","0.026815","813088","871145","840753","8.288019","2.980292","0.035556","803816","848981","830627","6.900823","2.451759","0.039827","832723","856023","886974","5.301436","1.834691","0.044145","746065","885534","965921","3.091646","1.011871","0.052900","6057","8000","9134","5129","6502","7272","4812","5988","6636","4504","5404","5881","3728","4218","4457","DualSpot on"
"MA200-0420","47002","76","1","1.10","1.6","2023-07-31T15:25:00","120","2023/07/31","15:25:00","-15.795613586902618","35.00271766632795","0.2","13","300","64","97","50","-27354","-312","2","150","149.41","114.71","34.70","30.81","31.1","11.77","90364","30.94","DUALSPOT-UV-BLUE-GREEN-RED-IR","680160","668113","909551","13.716368","5.108398","0.026900","805684","867283","839593","9.069042","3.287733","0.035380","798812","847096","830861","7.555560","2.702945","0.038983","829203","855144","887741","5.810175","2.023426","0.044360","744861","885838","967275","3.390436","1.116050","0.054644","5913","8082","9370","5047","6567","7432","4738","6009","6717","4449","5456","5994","3638","4193","4466","DualSpot on"
"MA200-0420","47003","76","1","1.10","1.6","2023-07-31T15:30:00","120","2023/07/31","15:30:00","-15.795553863048553","35.00285633280873","0.3","13","300","64","98","16","-27195","-695","2","150","150.08","114.76","35.32","30.65","31.2","11.67","90364","30.75","DUALSPOT-UV-BLUE-GREEN-RED-IR","669263","661726","905158","14.843792","5.584562","0.025175","796077","860875","835922","9.828686","3.590047","0.032131","795450","846828","832671","8.192837","2.951497","0.035956","828229","856759","891074","6.305907","2.208897","0.039505","740960","882891","965043","3.685997","1.219112","0.044949","5770","7918","9213","4907","6345","7172","4610","5842","6535","4333","5268","5771","3597","4076","4312","DualSpot on"
"MA200-0420","47004","76","1","1.10","1.6","2023-07-31T15:35:00","120","2023/07/31","15:35:00","-15.795605301856995","35.00274799973704","0.1","13","300","64","97","-91","-26908","-816","2","150","150.34","114.57","35.77","30.53","31.4","11.66","90360","30.69","DUALSPOT-UV-BLUE-GREEN-RED-IR","665020","661688","909388","15.946939","6.054449","0.023204","794651","863202","840731","10.579981","3.892017","0.029544","788846","843001","830964","8.823752","3.198236","0.032167","820881","851794","887571","6.800073","2.395235","0.035719","737119","879994","962867","3.983427","1.323573","0.039576","5655","7715","8977","4861","6258","7071","4571","5727","6383","4327","5226","5715","3626","4079","4305","DualSpot on"
"MA200-0420","47005","76","1","1.10","1.6","2023-07-31T15:40:00","120","2023/07/31","15:40:00","-15.795641005039215","35.002746833022684","0.1","13","300","64","98","-100","-27075","-125","2","150","150.15","114.43","35.72","30.40","31.1","11.43","90364","30.44","DUALSPOT-UV-BLUE-GREEN-RED-IR","657994","658846","909742","17.047612","6.525951","0.022079","788710","860599","840705","11.328959","4.194206","0.028008","784607","841718","831768","9.455401","3.446537","0.030663","817774","851134","888527","7.289637","2.579793","0.033390","736039","880423","964307","4.280258","1.427032","0.034816","5649","7754","9059","4852","6272","7107","4582","5771","6454","4292","5184","5673","3623","4046","4258","DualSpot on"
"MA200-0420","47006","76","1","1.10","1.6","2023-07-31T15:45:00","120","2023/07/31","15:45:00","-15.795689940452576","35.00273516634479","0.2","13","300","64","97","-16","-27004","-520","2","150","149.84","114.40","35.43","30.26","31.2","11.32","90364","30.31","DUALSPOT-UV-BLUE-GREEN-RED-IR","648815","653683","906964","18.149750","7.007587","0.022097","780666","855624","838433","12.081221","4.502511","0.028154","781428","841464","833625","10.087568","3.699452","0.031272","816977","852932","892063","7.783054","2.768993","0.034677","736292","882388","967499","4.576383","1.532874","0.041108","5658","7984","9447","4874","6450","7387","4587","5926","6701","4327","5357","5926","3615","4173","4453","DualSpot on"
"MA200-0420","47007","76","1","1.10","1.6","2023-07-31T15:50:00","120","2023/07/31","15:50:00","-15.795681953430176","35.00275716627948","0.1","14","300","64","97","-4","-26983","-629","2","150","149.90","114.82","35.08","30.10","31.4","11.29","90356","30.19","DUALSPOT-UV-BLUE-GREEN-RED-IR","642773","651626","908639","19.265922","7.503937","0.022182","775927","854180","839653","12.839275","4.816962","0.028361","774080","836759","831081","10.725574","3.955829","0.031063","809415","847599","888221","8.280368","2.960549","0.034873","732430","879432","965295","4.873617","1.640017","0.043774","5709","8311","9970","4894","6645","7697","4613","6068","6918","4345","5478","6109","3616","4266","4596","DualSpot on"
"MA200-0420","47008","76","1","1.10","1.6","2023-07-31T15:55:00","120","2023/07/31","15:55:00","-15.795641720294952","35.00276916613802","0.5","13","300","64","98","-25","-27020","-662","2","150","149.76","114.49","35.26","29.90","31.5","11.16","90380","29.81","DUALSPOT-UV-BLUE-GREEN-RED-IR","634034","646756","906377","20.392478","8.010029","0.021101","767914","849145","837403","13.606030","5.137724","0.026853","772345","838139","834612","11.368992","4.218530","0.030009","803730","844238","886429","8.780720","3.156355","0.033826","729602","877698","964449","5.172760","1.749360","0.042558","5779","8429","10144","4964","6743","7822","4665","6185","7081","4384","5571","6236","3649","4331","4680","DualSpot on"
"MA200-0420","47009","76","1","1.10","1.6","2023-07-31T16:00:00","120","2023/07/31","16:00:00","-15.795612633228302","35.00278133293614","0.1","14","300","64","98","16","-27040","-536","2","150","149.69","114.89","34.80","29.62","31.7","11.02","90376","29.50","DUALSPOT-UV-BLUE-GREEN-RED-IR","629798","646341","910389","21.502338","8.513428","0.021000","760486","844642","835650","14.365770","5.458337","0.027009","765901","834247","832945","12.009210","4.481405","0.030133","804367","847503","891554","9.281407","3.349182","0.032112","727193","876518","964183","5.473140","1.858689","0.042721","5674","8495","10345","4902","6829","8010","4626","6271","7250","4372","5558","6228","3652","4388","4766","DualSpot on"
"MA200-0420","47010","76","1","1.10","1.6","2023-07-31T16:05:00","120","2023/07/31","16:05:00","-15.795632004737854","35.00281549943611","0.1","14","300","64","98","-44","-26991","-596","2","150","149.90","114.63","35.27","29.44","32.1","11.08","90376","29.38","DUALSPOT-UV-BLUE-GREEN-RED-IR","618444","638775","904707","22.693608","9.064754","0.020114","755046","842528","836474","15.189044","5.811167","0.025609","761875","833278","834379","12.708248","4.769717","0.027767","801716","847551","893518","9.832364","3.567339","0.031587","726374","877412","966349","5.811144","1.981963","0.037798","6103","9182","11229","5324","7416","8713","5062","6787","7823","4822","6206","6994","4119","4883","5278","DualSpot on"
"MA200-0420","47011","76","1","1.10","1.6","2023-07-31T16:10:00","120","2023/07/31","16:10:00","-15.79570072889328","35.00277333310805","0.1","14","300","64","97","-56","-26968","-584","2","150","149.79","114.79","35.00","29.23","32.4","11.02","90380","29.19","DUALSPOT-UV-BLUE-GREEN-RED-IR","612407","636185","905810","23.796646","9.589470","0.020347","749928","840432","837244","15.957212","6.148654","0.026184","753532","827200","830620","13.360033","5.048052","0.029326","791904","839691","887123","10.345891","3.775569","0.033059","721254","872848","962484","6.119905","2.101247","0.047268","5643","8806","10941","4960","7149","8521","4713","6603","7750","4488","5969","6821","3757","4761","5286","DualSpot on"
"MA200-0420","47012","76","1","1.10","1.6","2023-07-31T16:15:00","120","2023/07/31","16:15:00","-15.795692503452301","35.00275749969296","0.1","14","300","64","98","-79","-26912","-366","2","150","149.56","114.34","35.22","29.19","32.6","11.09","90392","29.44","DUALSPOT-UV-BLUE-GREEN-RED-IR","607558","635059","909324","24.974412","10.156578","0.019494","746862","840990","840862","16.798514","6.517905","0.024385","750275","827068","833040","14.079927","5.354197","0.027012","790112","840705","890251","10.921654","4.008808","0.030419","720865","874371","965485","6.484256","2.235996","0.036128","6050","9456","11790","5454","7771","9239","5227","7215","8435","5052","6643","7565","4451","5343","5813","DualSpot on"
"MA200-0420","47013","76","1","1.10","1.6","2023-07-31T16:20:00","120","2023/07/31","16:20:00","-15.795552849769592","35.00283149955794","0.2","13","300","64","97","-116","-27004","-454","2","150","149.38","114.14","35.24","29.09","32.4","10.90","90396","29.31","DUALSPOT-UV-BLUE-GREEN-RED-IR","597192","627804","903842","26.091160","10.700115","0.018943","736053","832450","835291","17.591530","6.872906","0.024148","742185","821282","829619","14.756929","5.645424","0.026371","782098","834779","885936","11.461515","4.228257","0.029151","720180","875424","967843","6.822799","2.362504","0.035684","5746","9059","11363","5150","7468","8954","4924","6861","8061","4745","6248","7126","4143","5015","5476","DualSpot on"
"MA200-0420","47014","76","1","1.10","1.6","2023-07-31T16:25:00","120","2023/07/31","16:25:00","-15.795653343200684","35.00279566645622","0.3","13","300","64","97","-25","-27066","-512","2","150","149.76","114.53","35.22","29.04","32.4","10.86","90388","29.25","DUALSPOT-UV-BLUE-GREEN-RED-IR","594340","628325","909661","27.214238","11.255619","0.018711","735660","835691","841580","18.390792","7.232844","0.023574","740548","822672","833475","15.437595","5.940798","0.025947","782582","838006","891380","12.004580","4.453072","0.029566","716778","873151","966568","7.164375","2.491585","0.036251","5759","9263","11734","5173","7575","9132","4934","6962","8231","4757","6403","7374","4166","5119","5627","DualSpot on"
"MA200-0420","47015","76","1","1.10","1.6","2023-07-31T16:30:00","120","2023/07/31","16:30:00","-15.795536994934082","35.00283066625707","0.3","13","300","64","98","-36","-27032","-568","2","150","149.96","114.29","35.67","28.92","32.2","10.67","90392","29.00","DUALSPOT-UV-BLUE-GREEN-RED-IR","585676","623018","907716","28.468236","11.889938","0.018125","726975","829750","839063","19.283166","7.647419","0.023204","733586","818390","831982","16.202354","6.283594","0.025682","775817","833649","889057","12.613874","4.712860","0.029249","713188","870816","965427","7.547838","2.637868","0.033749","6444","10445","13314","5788","8616","10475","5555","7979","9514","5348","7307","8475","4686","5729","6289","DualSpot on"
"MA200-0420","47016","76","1","1.10","1.6","2023-07-31T16:35:00","120","2023/07/31","16:35:00","-15.795611321926117","35.00283066625707","0.5","13","300","64","98","-56","-26975","-508","2","150","149.65","114.40","35.24","28.74","31.8","10.31","90404","28.75","DUALSPOT-UV-BLUE-GREEN-RED-IR","578378","618513","906150","29.553840","12.445896","0.018056","720508","825817","838158","20.071532","8.014492","0.022911","728051","815252","831295","16.881702","6.587462","0.025215","770439","830508","887733","13.160807","4.945139","0.028685","710857","869805","965608","7.894424","2.772138","0.035995","5573","9265","11951","5108","7721","9457","4930","7158","8583","4796","6612","7705","4232","5322","5911","DualSpot on"
"MA200-0420","47017","76","1","1.10","1.6","2023-07-31T16:40:00","120","2023/07/31","16:40:00","-15.795536160469055","35.00280149956234","0.1","13","300","64","98","-28","-27000","-760","2","150","150.20","114.35","35.85","28.57","31.5","10.01","90412","28.50","DUALSPOT-UV-BLUE-GREEN-RED-IR","573484","615669","905683","30.356942","12.857952","0.017286","715196","822361","837055","20.682326","8.301870","0.022021","724464","813595","831627","17.415572","6.829363","0.024275","767675","829574","888367","13.594752","5.129998","0.026888","709586","869747","966584","8.172298","2.880910","0.033940","4125","6750","8679","3959","5942","7271","3876","5601","6714","3807","5173","6000","3394","4238","4697","DualSpot on"
"MA200-0420","47018","76","1","1.10","1.6","2023-07-31T16:45:00","120","2023/07/31","16:45:00","-15.795455157756805","35.00284233316779","0.2","13","300","64","97","-48","-27063","-552","2","150","150.21","114.38","35.84","28.42","31.4","9.83","90416","28.50","DUALSPOT-UV-BLUE-GREEN-RED-IR","571547","615623","908896","31.048676","13.218666","0.017274","714620","824025","840890","21.221200","8.558139","0.021893","722891","813890","833738","17.889070","7.045728","0.024071","761094","824271","884174","13.981487","5.297683","0.027319","705842","866398","963806","8.417452","2.980240","0.037085","3552","5912","7661","3492","5301","6523","3437","5012","6036","3392","4694","5488","2994","3872","4353","DualSpot on"
"MA200-0420","47019","76","1","1.10","1.6","2023-07-31T16:50:00","120","2023/07/31","16:50:00","-15.795584857463837","35.00268316618167","0.2","13","300","64","98","-48","-27103","-520","2","150","149.95","114.22","35.73","28.27","31.4","9.71","90420","28.19","DUALSPOT-UV-BLUE-GREEN-RED-IR","564164","609951","904254","31.839196","13.637035","0.017195","706505","817226","836332","21.821242","8.846025","0.021673","717136","809697","831444","18.413498","7.288571","0.024047","760515","825657","887331","14.409937","5.485106","0.027158","701981","863102","961172","8.692783","3.090247","0.034586","4065","6876","8983","3894","5972","7389","3811","5642","6841","3763","5262","6183","3367","4300","4815","DualSpot on"
"MA200-0420","47020","76","1","1.10","1.6","2023-07-31T16:55:00","120","2023/07/31","16:55:00","-15.795534372329712","35.002749166218564","0.1","13","300","64","97","-125","-26875","-470","2","150","150.23","114.69","35.54","28.06","31.5","9.60","90428","28.00","DUALSPOT-UV-BLUE-GREEN-RED-IR","562260","610239","908581","32.648780","14.062496","0.016846","700595","813020","834535","22.441812","9.142106","0.021236","715621","810401","834266","18.961172","7.539735","0.023384","761093","828381","891988","14.861014","5.678001","0.025619","703748","866758","966374","8.982311","3.204935","0.033616","4146","7031","9213","4011","6175","7663","3964","5866","7122","3945","5445","6371","3526","4507","5052","DualSpot on"
"MA200-0420","47021","76","1","1.10","1.6","2023-07-31T17:00:00","120","2023/07/31","17:00:00","-15.79558914899826","35.00275866640732","0.1","14","300","64","98","-76","-26972","-720","2","150","149.85","114.32","35.53","27.91","31.7","9.55","90440","27.81","DUALSPOT-UV-BLUE-GREEN-RED-IR","554040","603838","903276","33.538448","14.532562","0.016480","696906","811714","835974","23.139896","9.477069","0.020725","708934","805507","831649","19.582030","7.826403","0.022843","753159","822155","887284","15.376293","5.904262","0.026105","698839","862571","963080","9.331982","3.344040","0.032571","4570","7771","10219","4526","6989","8698","4508","6699","8157","4521","6389","7554","4272","5469","6138","DualSpot on"
"MA200-0420","47022","76","1","1.10","1.6","2023-07-31T17:05:00","120","2023/07/31","17:05:00","-15.795628249645233","35.00278349989094","0.1","14","300","64","98","-45","-26970","-583","2","150","150.33","114.06","36.27","27.75","31.9","9.52","90436","27.69","DUALSPOT-UV-BLUE-GREEN-RED-IR","551694","603534","906734","34.344804","14.962952","0.015897","695106","812316","839291","23.795238","9.797023","0.020025","706912","805707","834108","20.168388","8.100789","0.021856","752942","824159","891386","15.870703","6.123352","0.024611","695245","859815","961250","9.663670","3.476797","0.029785","4152","6969","9145","4259","6539","8135","4267","6280","7632","4348","6060","7135","4062","5113","5703","DualSpot on"
"MA200-0420","47023","76","1","1.10","1.6","2023-07-31T17:10:00","120","2023/07/31","17:10:00","-15.79564654827118","35.00275933300145","0.1","14","300","64","97","36","-27144","-596","2","150","149.69","114.14","35.55","27.63","32.2","9.51","90436","27.50","DUALSPOT-UV-BLUE-GREEN-RED-IR","548163","602158","909230","35.256760","15.463848","0.016344","687049","805688","835278","24.481754","10.137736","0.020552","700403","800847","831442","20.771058","8.386857","0.022517","745485","818248","886919","16.362732","6.342743","0.025263","695040","861196","964023","9.984184","3.605472","0.031186","4692","8275","11074","4458","7104","8974","4383","6680","8235","4324","6191","7372","3922","5056","5696","DualSpot on"
"MA200-0420","47024","76","1","1.10","1.6","2023-07-31T17:15:00","120","2023/07/31","17:15:00","-15.795661330223083","35.00274533312768","0.1","14","300","64","97","-76","-26968","-580","2","150","150.21","113.95","36.26","27.49","32.3","9.47","90440","27.38","DUALSPOT-UV-BLUE-GREEN-RED-IR","540766","596401","904928","36.149032","15.956482","0.015720","684109","804936","837322","25.153798","10.472337","0.019550","697402","799884","832800","21.361858","8.670147","0.021554","744285","819128","889811","16.847758","6.559946","0.023753","694950","862737","967010","10.301342","3.733311","0.028637","4599","7980","10652","4372","6841","8602","4304","6486","7977","4270","6010","7119","3888","4925","5515","DualSpot on"
"MA200-0420","47025","76","1","1.10","1.6","2023-07-31T17:20:00","120","2023/07/31","17:20:00","-15.795612335205078","35.00278099975549","0.1","15","300","64","98","-64","-26960","-652","2","150","150.08","114.26","35.82","27.35","32.6","9.47","90440","27.25","DUALSPOT-UV-BLUE-GREEN-RED-IR","537147","594722","906885","37.026724","16.446663","0.015780","681494","804566","839745","25.825086","10.809790","0.019718","694816","799348","834635","21.951694","8.953581","0.021571","742939","819796","892530","17.334560","6.780583","0.024376","690614","858958","964035","10.621166","3.864952","0.031032","4511","8036","10853","4355","6983","8874","4285","6568","8140","4274","6178","7402","3910","5133","5832","DualSpot on"
"MA200-0420","47026","76","1","1.10","1.6","2023-07-31T17:25:00","120","2023/07/31","17:25:00","-15.795692026615143","35.00279733305797","0.1","15","300","64","97","-24","-26936","-928","2","150","150.21","114.26","35.95","27.20","32.8","9.44","90436","27.06","DUALSPOT-UV-BLUE-GREEN-RED-IR","531735","591904","908887","38.256216","17.142510","0.015456","672226","797139","835810","26.725722","11.265539","0.019175","686550","793048","831198","22.737770","9.333426","0.020935","733735","812463","887114","17.973846","7.071041","0.023507","689665","859915","966726","11.034504","4.032999","0.028559","6320","11367","15465","5843","9396","11985","5711","8770","10900","5613","8104","9720","5053","6529","7379","DualSpot on"
"MA200-0420","47027","76","1","1.10","1.6","2023-07-31T17:30:00","120","2023/07/31","17:30:00","-15.795675039291382","35.00280166626908","0.0","14","300","64","97","-20","-27037","-425","2","150","150.15","113.91","36.23","27.06","33.0","9.39","90456","26.94","DUALSPOT-UV-BLUE-GREEN-RED-IR","526067","588659","910446","39.495804","17.858966","0.015157","666807","794210","836728","27.638292","11.738115","0.018884","682555","791639","833005","23.535414","9.728103","0.020667","731649","813040","890444","18.623640","7.371993","0.023098","684648","855746","963714","11.454147","4.207945","0.028753","6391","11614","15924","5938","9668","12422","5813","9043","11319","5722","8333","10043","5146","6744","7673","DualSpot on"
"MA200-0420","47028","76","1","1.10","1.6","2023-07-31T17:35:00","120","2023/07/31","17:35:00","-15.795624375343323","35.00280016637407","0.2","14","300","64","98","-20","-27037","-29","2","150","150.33","113.95","36.38","26.87","33.3","9.38","90460","26.69","DUALSPOT-UV-BLUE-GREEN-RED-IR","518435","583714","910788","40.997472","18.742104","0.014830","659676","789930","837051","28.753848","12.321074","0.018328","676323","788285","833528","24.511964","10.214018","0.019954","726337","810580","891058","19.424606","7.744141","0.022181","682249","855367","965411","11.978230","4.425315","0.026857","7740","14257","19745","7257","11878","15343","7114","11088","13926","7052","10262","12390","6424","8346","9472","DualSpot on"
"MA200-0420","47029","76","1","1.10","1.6","2023-07-31T17:40:00","120","2023/07/31","17:40:00","-15.795664846897125","35.0027296661865","0.1","14","300","64","98","-58","-27095","-362","2","150","150.50","114.03","36.47","26.69","33.6","9.37","90460","26.50","DUALSPOT-UV-BLUE-GREEN-RED-IR","508387","575455","905171","42.339880","19.552250","0.014699","654226","787082","838558","29.764278","12.861355","0.018207","667433","781275","829886","25.403898","10.666976","0.019812","717476","803798","886692","20.164002","8.094837","0.022146","676385","850382","961731","12.466251","4.630915","0.026906","6914","13047","18308","6568","10981","14339","6493","10310","13073","6505","9647","11754","5978","7874","8995","DualSpot on"
"MA200-0420","47030","76","1","1.10","1.6","2023-07-31T17:45:00","120","2023/07/31","17:45:00","-15.795670509338379","35.002711166162044","0.1","14","300","64","98","-28","-26896","-1224","2","150","150.02","113.62","36.39","26.55","34.0","9.40","90464","26.44","DUALSPOT-UV-BLUE-GREEN-RED-IR","503805","572866","907573","43.510732","20.266502","0.014450","644890","779107","834138","30.671708","13.350331","0.017841","664217","780631","832605","26.211974","11.080996","0.019439","713963","802700","888385","20.840288","8.418518","0.021755","675226","851215","964549","12.925709","4.823526","0.025540","6052","11528","16302","5920","9960","13075","5904","9445","12038","5971","8923","10924","5648","7393","8432","DualSpot on"
"MA200-0420","47031","76","1","1.10","1.6","2023-07-31T17:50:00","120","2023/07/31","17:50:00","-15.795641720294952","35.00271916622296","0.1","13","300","64","97","-92","-26944","-584","2","150","150.15","114.37","35.78","26.41","34.2","9.39","90460","26.25","DUALSPOT-UV-BLUE-GREEN-RED-IR","496069","566755","904912","44.766104","21.046554","0.014531","641648","778570","837900","31.624020","13.870442","0.018040","656880","775125","830391","27.057516","11.518277","0.019665","706580","797305","885398","21.546826","8.757865","0.022006","674785","853016","968604","13.408310","5.030463","0.027767","6447","12805","18446","6172","10776","14372","6138","10146","13117","6198","9515","11787","5894","8079","9391","DualSpot on"
"MA200-0420","47032","76","1","1.10","1.6","2023-07-31T17:55:00","120","2023/07/31","17:55:00","-15.795565664768219","35.00278216623701","0.4","13","300","64","98","-45","-27045","-631","2","150","149.63","113.94","35.68","26.26","34.6","9.40","90472","26.13","DUALSPOT-UV-BLUE-GREEN-RED-IR","492282","564716","907884","45.859036","21.735672","0.014354","638448","777653","840815","32.472966","14.335581","0.017645","653841","774372","832829","27.813170","11.912189","0.019326","704073","797084","887874","22.182286","9.065045","0.021590","669820","848869","965643","13.841564","5.213132","0.025798","5634","11342","16486","5523","9662","12934","5506","9164","11905","5595","8636","10737","5311","7150","8262","DualSpot on"
"MA200-0420","47033","76","1","1.10","1.6","2023-07-31T18:00:00","120","2023/07/31","18:00:00","-15.795703530311584","35.00268283276819","0.2","13","300","64","98","-8","-26954","-625","2","150","150.08","113.70","36.38","26.16","34.8","9.41","90480","26.00","DUALSPOT-UV-BLUE-GREEN-RED-IR","487622","561512","908751","46.908740","22.399346","0.013886","629726","769813","836119","33.294632","14.791202","0.017085","649922","772433","833928","28.550596","12.296424","0.018380","701041","796215","889569","22.809558","9.366208","0.020137","664081","843765","961581","14.282124","5.396541","0.022843","5422","10715","15553","5357","9285","12424","5384","8769","11329","5534","8305","10236","5412","7043","8033","DualSpot on"
"MA200-0420","47034","76","1","1.10","1.6","2023-07-31T18:05:00","120","2023/07/31","18:05:00","-15.795663833618164","35.002697832882404","0.1","13","300","64","98","-107","-26912","-572","2","150","150.28","113.76","36.52","26.02","35.1","9.41","90484","25.88","DUALSPOT-UV-BLUE-GREEN-RED-IR","481849","556750","906458","47.850880","23.004066","0.013753","627431","769608","839530","34.066052","15.225461","0.016931","644305","768299","832594","29.252146","12.670965","0.018431","695491","792351","887902","23.411860","9.663433","0.020408","664694","846596","966581","14.707607","5.577881","0.023491","4864","9726","14227","5026","8815","11877","5119","8514","11109","5311","8165","10171","5224","6936","7982","DualSpot on"
"MA200-0420","47035","76","1","1.10","1.6","2023-07-31T18:10:00","120","2023/07/31","18:10:00","-15.795621693134308","35.00276383315213","0.1","13","300","64","98","-12","-26912","-575","2","150","150.08","114.14","35.94","25.95","35.4","9.47","90492","25.75","DUALSPOT-UV-BLUE-GREEN-RED-IR","478640","555029","909821","48.885004","23.680294","0.013832","619670","762858","836218","34.912660","15.708981","0.017090","641586","767733","835434","30.017836","13.085290","0.018660","694327","793638","892247","24.069122","9.993312","0.020932","660191","843076","964506","15.172787","5.780629","0.025235","5321","11050","16432","5498","9972","13632","5569","9570","12661","5777","9207","11643","5693","7879","9225","DualSpot on"
"MA200-0420","47036","76","1","1.10","1.6","2023-07-31T18:15:00","120","2023/07/31","18:15:00","-15.79564368724823","35.002760333009064","0.0","13","300","64","98","-44","-26796","-708","2","150","150.15","113.88","36.27","25.83","35.6","9.47","90500","25.75","DUALSPOT-UV-BLUE-GREEN-RED-IR","473071","550482","908392","49.895492","24.344692","0.013531","613403","757754","834511","35.728880","16.178164","0.016660","636339","764054","834780","30.759994","13.487245","0.018044","688562","789545","890486","24.705852","10.311469","0.019994","656946","841095","964107","15.628532","5.974294","0.022461","5212","10759","16044","5313","9589","13127","5410","9200","12159","5609","8800","11086","5590","7458","8614","DualSpot on"
"MA200-0420","47037","76","1","1.10","1.6","2023-07-31T18:20:00","120","2023/07/31","18:20:00","-15.795653641223907","35.00267683318816","0.2","13","300","64","98","-29","-27525","-287","2","150","150.46","113.95","36.51","25.72","35.7","9.41","90520","25.56","DUALSPOT-UV-BLUE-GREEN-RED-IR","466841","544948","904912","50.840836","24.976024","0.013389","611316","757623","838136","36.501180","16.628563","0.016468","629880","758679","832113","31.459584","13.871080","0.017812","681134","783345","886206","25.310462","10.618317","0.019817","656186","842189","967201","16.061153","6.162750","0.022947","4872","10157","15260","5024","9146","12594","5097","8729","11593","5323","8432","10680","5303","7211","8399","DualSpot on"
"MA200-0420","47038","76","1","1.10","1.6","2023-07-31T18:25:00","120","2023/07/31","18:25:00","-15.795733332633972","35.00268099969253","0.1","13","300","68","98","-104","-26947","-740","3","150","150.03","115.26","34.76","25.61","36.0","9.44","90528","25.50","DUALSPOT-UV-BLUE-GREEN-RED-IR","779569","704661","908828","0.000000","0.000000","0.000000","876957","894458","837594","0.000000","0.000000","0.000000","859226","871236","831997","0.000000","0.000000","0.000000","874055","871371","886341","0.000000","0.000000","0.000000","765245","890286","962456","0.000000","0.000000","0.000000","","","","","","","","","","","","","","","","Tape advance-DualSpot on"
"MA200-0420","47039","76","1","1.10","1.6","2023-07-31T18:30:00","120","2023/07/31","18:30:00","-15.795657694339752","35.00275949970819","0.2","13","300","68","98","-66","-26904","-741","3","150","150.15","115.76","34.39","25.51","36.2","9.43","90528","25.38","DUALSPOT-UV-BLUE-GREEN-RED-IR","757676","696334","905025","0.000000","0.000000","0.000000","866607","893156","840286","0.000000","0.000000","0.000000","851707","871117","834987","0.000000","0.000000","0.000000","869321","872372","889889","0.000000","0.000000","0.000000","763606","891755","965641","0.000000","0.000000","0.000000","","","","","","","","","","","","","","","","Tape advance-DualSpot on"
"MA200-0420","47040","76","1","1.10","1.6","2023-07-31T18:35:00","120","2023/07/31","18:35:00","-15.79564368724823","35.00280033308081","0.1","13","300","64","97","-76","-26952","-620","3","150","150.02","115.36","34.65","25.43","36.4","9.41","90528","25.31","DUALSPOT-UV-BLUE-GREEN-RED-IR","743762","693530","907725","2.157701","0.702821","0.000000","850476","885003","836209","1.394575","0.435620","0.000000","838673","864670","831803","1.160210","0.357026","0.000000","858296","866703","886469","0.892276","0.269140","0.000000","757685","888122","963202","0.525268","0.157810","0.000000","10985","11912","10985","8961","9318","8961","8349","8553","8349","7759","7791","7759","6360","6361","6360","DualSpot on"
"MA200-0420","47041","76","1","1.10","1.6","2023-07-31T18:40:00","120","2023/07/31","18:40:00","-15.795551359653473","35.00280366605148","0.2","13","300","64","97","-120","-26883","-675","3","150","150.09","115.59","34.50","25.35","36.5","9.41","90544","25.25","DUALSPOT-UV-BLUE-GREEN-RED-IR","728743","689066","908328","4.266998","1.413675","0.037953","839522","881733","836694","2.751636","0.861549","0.000000","829671","862083","832207","2.291388","0.707150","0.000000","857450","871165","893379","1.769446","0.533188","0.000000","754118","887173","963670","1.047475","0.313278","0.000000","10718","12103","12789","8703","9153","8703","8124","8426","8124","7613","7679","7613","6311","6295","6311","DualSpot on"
"MA200-0420","47042","76","1","1.10","1.6","2023-07-31T18:45:00","120","2023/07/31","18:45:00","-15.795635521411896","35.00277016637847","0.1","13","300","64","97","-148","-26916","-528","3","150","150.08","114.86","35.23","25.27","36.8","9.43","90552","25.19","DUALSPOT-UV-BLUE-GREEN-RED-IR","709042","680221","903648","6.493261","2.191343","0.026701","830513","880457","839225","4.131894","1.309269","0.018831","821876","860644","833813","3.428822","1.066655","0.012384","845370","864122","888548","2.646174","0.801380","0.000000","751873","887764","965787","1.567888","0.467703","0.000000","11384","12966","13772","8908","9422","9660","8221","8472","8586","7658","7638","7658","6329","6123","6329","DualSpot on"
"MA200-0420","47043","76","1","1.10","1.6","2023-07-31T18:50:00","120","2023/07/31","18:50:00","-15.79567402601242","35.00272166635841","0.2","13","300","64","98","-48","-26903","-580","3","150","149.90","114.97","34.93","25.19","36.9","9.41","90564","25.13","DUALSPOT-UV-BLUE-GREEN-RED-IR","700979","680099","909184","8.251041","2.822321","0.026220","819268","875371","837723","5.319104","1.707470","0.024993","813220","857325","833346","4.430308","1.396740","0.024917","838074","861245","887793","3.429809","1.051281","0.019520","748006","886104","965405","2.042188","0.615563","0.000000","8980","10611","11459","7655","8452","8828","7231","7846","8129","6838","7178","7328","5762","5913","5762","DualSpot on"
"MA200-0420","47044","76","1","1.10","1.6","2023-07-31T18:55:00","120","2023/07/31","18:55:00","-15.795644044876099","35.002702332800254","0.1","13","300","64","98","-80","-26840","-744","3","150","149.56","115.17","34.40","25.09","37.1","9.41","90564","24.94","DUALSPOT-UV-BLUE-GREEN-RED-IR","685555","671883","903471","9.845772","3.405424","0.025932","805275","866696","832478","6.415876","2.078712","0.025679","802386","851172","829915","5.360167","1.702636","0.024155","834469","861823","890453","4.162444","1.283333","0.019329","742050","881713","961974","2.485918","0.753496","0.000000","8133","9957","10922","7060","8001","8452","6703","7383","7700","6382","6768","6940","5382","5602","5382","DualSpot on"
"MA200-0420","47045","76","1","1.10","1.6","2023-07-31T19:00:00","120","2023/07/31","19:00:00","-15.795621573925018","35.00276899966411","0.1","13","300","64","98","51","-27077","-605","3","150","149.94","115.13","34.81","25.00","37.3","9.42","90560","24.88","DUALSPOT-UV-BLUE-GREEN-RED-IR","676764","672145","911143","11.909676","4.184707","0.023271","800454","869406","839080","7.763887","2.541041","0.021428","798069","853189","835061","6.489434","2.077591","0.019428","826643","859098","890224","5.050053","1.565045","0.013284","738388","880714","962488","3.024643","0.919834","0.009737","10529","13148","14566","8679","9845","10412","8143","8942","9318","7734","8118","8291","6536","6674","6735","DualSpot on"
"MA200-0420","47046","76","1","1.10","1.6","2023-07-31T19:05:00","120","2023/07/31","19:05:00","-15.795567393302917","35.00283166626468","0.2","13","300","64","97","-96","-26919","-784","3","150","150.15","115.05","35.10","24.90","37.5","9.42","90572","24.81","DUALSPOT-UV-BLUE-GREEN-RED-IR","659896","664217","908240","14.183279","5.077875","0.021814","786896","862908","837217","9.284519","3.081494","0.021325","785975","847176","832779","7.766063","2.517915","0.020843","815153","852702","886492","6.053165","1.897418","0.018397","736358","881923","965675","3.637897","1.117377","0.020494","11607","14946","16808","9798","11414","12217","9212","10415","10991","8747","9500","9843","7446","7862","8046","DualSpot on"
"MA200-0420","47047","76","1","1.10","1.6","2023-07-31T19:10:00","120","2023/07/31","19:10:00","-15.795626997947693","35.002856666455045","0.4","13","300","64","98","-66","-26641","-866","3","150","150.27","115.01","35.26","24.83","37.8","9.46","90572","24.75","DUALSPOT-UV-BLUE-GREEN-RED-IR","648154","658294","905471","15.676174","5.670170","0.020116","782040","863334","840801","10.334066","3.459179","0.020033","777938","843374","831643","8.660877","2.831268","0.020132","814539","856109","892127","6.766684","2.135369","0.016782","732403","879827","964727","4.079082","1.257914","0.013068","7624","9865","11135","6765","7940","8531","6459","7377","7823","6224","6770","7021","5358","5567","5660","DualSpot on"
"MA200-0420","47048","76","1","1.10","1.6","2023-07-31T19:15:00","120","2023/07/31","19:15:00","-15.795636355876923","35.00278099975549","0.1","14","300","64","97","-196","-26824","-780","3","150","149.95","115.09","34.87","24.76","38.1","9.50","90580","24.63","DUALSPOT-UV-BLUE-GREEN-RED-IR","639515","656486","909500","17.467476","6.391971","0.019600","769902","856759","838141","11.582477","3.909599","0.019318","768053","838467","829866","9.725932","3.201800","0.018624","805879","851866","890185","7.613826","2.413752","0.014495","727428","876952","963214","4.601574","1.423116","0.012926","9142","12159","13901","8041","9577","10359","7683","8823","9382","7385","8010","8301","6342","6619","6743","DualSpot on"
"MA200-0420","47049","76","1","1.10","1.6","2023-07-31T19:20:00","120","2023/07/31","19:20:00","-15.795661985874176","35.00273733283393","0.1","14","300","64","97","-79","-27004","-433","3","150","150.22","114.91","35.31","24.66","38.3","9.52","90580","24.56","DUALSPOT-UV-BLUE-GREEN-RED-IR","626738","650693","908480","19.362140","7.160709","0.017405","758660","851511","837078","12.923384","4.394573","0.016358","762569","838776","833511","10.878868","3.602010","0.014915","795877","846607","887384","8.542092","2.719135","0.010977","726594","879544","967790","5.189440","1.603594","-0.000274","9684","12786","14607","8650","10181","10969","8330","9409","9943","8104","8676","8943","7146","7139","7136","DualSpot on"
"MA200-0420","47050","76","1","1.10","1.6","2023-07-31T19:25:00","120","2023/07/31","19:25:00","-15.7956023812294","35.00283983303234","0.1","14","300","64","98","44","-26956","-904","3","150","149.41","114.47","34.94","24.59","38.6","9.56","90588","24.50","DUALSPOT-UV-BLUE-GREEN-RED-IR","614418","643996","905322","21.014316","7.852363","0.017719","753627","852247","841504","14.118356","4.837757","0.017463","753410","834210","832035","11.911414","3.968447","0.016468","794070","849334","892762","9.377789","2.999188","0.013421","721406","876412","965958","5.720892","1.772221","0.009474","8477","11627","13507","7739","9403","10271","7489","8707","9316","7324","8041","8379","6485","6742","6857","DualSpot on"
"MA200-0420","47051","76","1","1.10","1.6","2023-07-31T19:30:00","120","2023/07/31","19:30:00","-15.795597791671753","35.00277966633439","0.2","13","300","64","98","-520","-26844","-2084","3","150","149.71","114.71","35.00","24.56","38.9","9.64","90596","24.44","DUALSPOT-UV-BLUE-GREEN-RED-IR","609474","643906","910708","22.405872","8.457226","0.018092","744400","847019","839619","15.126791","5.228185","0.019244","745991","830489","830997","12.779982","4.291745","0.019453","787817","846465","891950","10.078982","3.244576","0.017657","717340","874129","964840","6.169401","1.917840","0.013762","7125","10149","11982","6517","8268","9193","6286","7668","8366","6132","7033","7460","5462","5811","5968","DualSpot on"
"MA200-0420","47052","76","1","1.10","1.6","2023-07-31T19:35:00","120","2023/07/31","19:35:00","-15.79560112953186","35.002749666105956","0.1","13","300","64","98","-72","-26980","-244","3","150","150.00","114.87","35.13","24.49","39.2","9.70","90604","24.38","DUALSPOT-UV-BLUE-GREEN-RED-IR","599465","638685","909259","23.908844","9.113209","0.017081","734693","841492","837652","16.206470","5.645406","0.017771","738184","826647","830008","13.712646","4.637448","0.017694","780104","842318","889912","10.833084","3.507441","0.015817","713349","872051","964087","6.652441","2.074951","0.012710","7684","10967","12989","6967","8804","9786","6740","8169","8900","6586","7507","7948","5874","6247","6416","DualSpot on"
"MA200-0420","47053","76","1","1.10","1.6","2023-07-31T19:40:00","120","2023/07/31","19:40:00","-15.795635044574738","35.002704665996134","0.2","13","300","64","98","-179","-26733","-958","3","150","150.02","114.78","35.24","24.42","39.5","9.77","90608","24.31","DUALSPOT-UV-BLUE-GREEN-RED-IR","590115","633538","907467","25.285660","9.722984","0.016543","726146","836831","836347","17.219600","6.046033","0.017852","734618","827186","833328","14.593325","4.971499","0.018033","772284","837704","887291","11.552835","3.765229","0.017154","708749","869167","962404","7.121803","2.233204","0.017576","7045","10163","12111","6543","8427","9447","6370","7870","8645","6291","7339","7845","5712","6273","6529","DualSpot on"
"MA200-0420","47054","76","1","1.10","1.6","2023-07-31T19:45:00","120","2023/07/31","19:45:00","-15.795653343200684","35.00272183283232","0.3","13","300","64","98","-16","-26708","-948","3","150","149.38","114.97","34.41","24.38","39.8","9.82","90616","24.25","DUALSPOT-UV-BLUE-GREEN-RED-IR","581137","628350","905179","26.563056","10.296936","0.016945","723020","838095","840774","18.181540","6.425575","0.018144","727721","823715","832437","15.434205","5.289068","0.018458","765680","834302","885843","12.245009","4.010507","0.017544","704728","866891","961351","7.580074","2.384374","0.017113","6526","9797","11868","6202","8177","9256","6072","7662","8491","6040","7151","7692","5568","6137","6398","DualSpot on"
"MA200-0420","47055","76","1","1.10","1.6","2023-07-31T19:50:00","120","2023/07/31","19:50:00","-15.7956383228302","35.002736166119576","0.1","13","300","64","98","-192","-26691","1460","3","150","150.08","114.63","35.45","24.31","40.1","9.86","90620","24.25","DUALSPOT-UV-BLUE-GREEN-RED-IR","577557","628535","910514","27.770740","10.852509","0.016005","714990","833194","838947","19.081320","6.792713","0.017371","721329","820413","831656","16.222239","5.594634","0.017210","765626","837639","891494","12.890082","4.247342","0.016925","705817","870626","966930","8.003496","2.530252","0.017845","6188","9204","11139","5818","7676","8703","5707","7155","7918","5645","6702","7221","5160","5747","6019","DualSpot on"
"MA200-0420","47056","76","1","1.10","1.6","2023-07-31T19:55:00","120","2023/07/31","19:55:00","-15.795679986476898","35.002731333021075","0.1","13","300","64","98","-62","-26937","-770","3","150","149.47","114.56","34.91","24.27","40.3","9.92","90624","24.19","DUALSPOT-UV-BLUE-GREEN-RED-IR","569850","624204","909368","28.991650","11.417088","0.015883","707775","829272","838196","20.003072","7.172806","0.017750","714183","816249","830092","17.027822","5.915040","0.018709","758540","833401","889201","13.556099","4.494697","0.018185","701541","867889","965308","8.443590","2.680665","0.017896","6259","9498","11602","5964","8071","9248","5838","7619","8567","5832","7108","7741","5366","6018","6322","DualSpot on"
"MA200-0420","47057","76","1","1.10","1.6","2023-07-31T20:00:00","120","2023/07/31","20:00:00","-15.795637369155884","35.00268133310601","0.1","12","300","64","98","-12","-27000","-891","3","150","150.08","114.86","35.23","24.21","40.5","9.95","90620","24.13","DUALSPOT-UV-BLUE-GREEN-RED-IR","561932","619539","907776","30.212090","11.994194","0.015665","699931","824611","836733","20.941150","7.565707","0.017384","712156","817953","834582","17.853494","6.245902","0.017948","753040","830848","888791","14.241180","4.752496","0.017841","697985","866059","964791","8.899124","2.838448","0.017936","6241","9622","11848","6054","8268","9520","5968","7797","8782","5984","7342","8022","5540","6257","6592","DualSpot on"
"MA200-0420","47058","76","1","1.10","1.6","2023-07-31T20:05:00","120","2023/07/31","20:05:00","-15.795627236366272","35.00276333326474","0.1","12","300","64","98","-304","-26863","-1132","3","150","149.90","114.78","35.12","24.15","40.8","9.99","90620","24.06","DUALSPOT-UV-BLUE-GREEN-RED-IR","553543","614059","904867","31.396390","12.561207","0.015448","696800","825203","840584","21.851498","7.951050","0.017216","705378","814076","833313","18.656750","6.570235","0.017715","746111","826632","886471","14.906694","5.005003","0.017817","693971","863565","963508","9.341473","2.992476","0.018088","6060","9484","11767","5879","8135","9425","5810","7668","8678","5817","7214","7920","5383","6127","6478","DualSpot on"
"MA200-0420","47059","76","1","1.10","1.6","2023-07-31T20:10:00","120","2023/07/31","20:10:00","-15.79560649394989","35.00286233308725","0.3","12","300","64","97","-29","-26929","-912","3","150","150.15","114.63","35.51","24.08","41.0","10.00","90628","24.00","DUALSPOT-UV-BLUE-GREEN-RED-IR","550393","614099","909921","32.520984","13.109184","0.015058","689657","820774","839183","22.715590","8.321832","0.016640","698312","809534","831246","19.417602","6.882342","0.017213","745255","828910","891076","15.537613","5.245990","0.016744","693782","865657","967246","9.759514","3.140549","0.017876","5762","9062","11292","5588","7739","8983","5510","7296","8276","5521","6807","7463","5094","5824","6171","DualSpot on"
"MA200-0420","47060","76","1","1.10","1.6","2023-07-31T20:15:00","120","2023/07/31","20:15:00","-15.795645534992218","35.00278216623701","0.1","12","300","64","98","-28","-27040","-444","3","150","149.90","114.97","34.93","24.02","41.2","10.01","90640","23.94","DUALSPOT-UV-BLUE-GREEN-RED-IR","543298","609537","908083","33.620828","13.653793","0.015311","682232","815786","837182","23.564774","8.694275","0.017521","692225","805986","830208","20.169066","7.195033","0.018097","739540","825694","889772","16.161839","5.487300","0.018074","689983","863212","965958","10.176735","3.290484","0.020914","5618","9158","11579","5475","7905","9325","5426","7432","8545","5447","6931","7694","5069","5996","6440","DualSpot on"
"MA200-0420","47061","76","1","1.10","1.6","2023-07-31T20:20:00","120","2023/07/31","20:20:00","-15.795580267906189","35.0027618331369","0.2","12","300","64","97","5","-26977","-940","3","150","150.02","114.73","35.29","23.97","41.3","10.00","90636","23.88","DUALSPOT-UV-BLUE-GREEN-RED-IR","537401","605954","907328","34.631080","14.162437","0.014979","676131","812058","836250","24.347246","9.039726","0.016807","687411","803592","830180","20.860248","7.486179","0.017530","734909","823408","889318","16.737209","5.714504","0.018000","687367","862062","966058","10.561661","3.428900","0.018970","5171","8466","10746","5055","7257","8557","5001","6850","7885","5031","6460","7200","4686","5479","5861","DualSpot on"
"MA200-0420","47062","76","1","1.10","1.6","2023-07-31T20:25:00","120","2023/07/31","20:25:00","-15.795623183250427","35.002715832786635","0.2","12","300","64","98","-68","-26960","-644","3","150","150.28","114.49","35.78","23.92","41.4","10.00","90644","23.88","DUALSPOT-UV-BLUE-GREEN-RED-IR","530294","601057","904673","35.669508","14.682484","0.014183","669036","807181","834178","25.153986","9.396070","0.015803","684773","803857","832923","21.573076","7.785795","0.016247","727611","818168","885704","17.332434","5.948201","0.016192","682694","858422","963328","10.963005","3.572123","0.015854","5327","8536","10781","5223","7382","8669","5168","6951","7958","5215","6552","7250","4896","5591","5927","DualSpot on"
"MA200-0420","47063","76","1","1.10","1.6","2023-07-31T20:30:00","120","2023/07/31","20:30:00","-15.795618891716003","35.002724666148424","0.2","12","300","64","98","-36","-27040","-475","3","150","149.89","114.49","35.39","23.89","41.4","9.98","90644","23.81","DUALSPOT-UV-BLUE-GREEN-RED-IR","524802","597906","904651","36.710188","15.207500","0.014138","668583","810307","840487","25.973636","9.759659","0.015811","680093","801706","833263","22.301898","8.094106","0.016431","723964","817078","886661","17.941240","6.189364","0.016752","680581","857991","964297","11.376003","3.722236","0.018213","5338","8713","11099","5307","7615","9005","5284","7232","8341","5334","6836","7627","5039","5925","6355","DualSpot on"
"MA200-0420","47064","76","1","1.10","1.6","2023-07-31T20:35:00","120","2023/07/31","20:35:00","-15.795573592185974","35.002760666422546","0.3","12","300","64","97","-50","-26837","-675","3","150","149.96","114.78","35.18","23.87","41.5","10.00","90640","23.81","DUALSPOT-UV-BLUE-GREEN-RED-IR","520023","595162","904995","37.660020","15.700703","0.014432","663322","807153","840061","26.717070","10.099872","0.016554","675946","799787","833646","22.960850","8.381126","0.017369","719927","815161","886603","18.492500","6.413894","0.018114","678043","856806","964317","11.749897","3.862299","0.021173","4860","8235","10647","4801","7169","8608","4766","6774","7928","4818","6403","7245","4550","5562","6057","DualSpot on"
"MA200-0420","47065","76","1","1.10","1.6","2023-07-31T20:40:00","120","2023/07/31","20:40:00","-15.795556008815765","35.002802999224514","0.1","12","300","64","97","-52","-26960","-572","3","150","150.24","114.18","36.06","23.83","41.6","10.00","90640","23.75","DUALSPOT-UV-BLUE-GREEN-RED-IR","516786","594012","907578","38.572840","16.179173","0.013790","656476","801941","837394","27.436252","10.431499","0.015530","669119","794502","830495","23.597522","8.661695","0.016294","718327","815916","889330","19.026124","6.631533","0.016246","673376","852836","961153","12.113297","3.996094","0.016377","4695","7793","10032","4669","6818","8136","4629","6459","7521","4688","6055","6786","4446","5183","5546","DualSpot on"
"MA200-0420","47066","76","1","1.10","1.6","2023-07-31T20:45:00","120","2023/07/31","20:45:00","-15.795608222484589","35.002762499731034","0.3","12","300","64","98","-32","-26975","-412","3","150","149.95","114.57","35.38","23.77","41.7","9.99","90660","23.69","DUALSPOT-UV-BLUE-GREEN-RED-IR","511569","590476","906486","39.469824","16.659027","0.014162","650617","797736","835811","28.144396","10.765829","0.016394","664624","791908","830123","24.228214","8.944840","0.017271","714386","813946","889167","19.555102","6.853698","0.018240","674467","856148","966214","12.472931","4.133474","0.020988","4598","7966","10426","4581","7005","8507","4570","6644","7858","4632","6300","7200","4384","5424","5939","DualSpot on"
"MA200-0420","47067","76","1","1.10","1.6","2023-07-31T20:50:00","120","2023/07/31","20:50:00","-15.795598268508911","35.00276666646823","0.0","11","300","64","97","-68","-26875","-832","3","150","150.28","114.57","35.70","23.74","41.8","10.00","90652","23.69","DUALSPOT-UV-BLUE-GREEN-RED-IR","506807","587311","905896","40.333716","17.128434","0.013978","645724","794592","835227","28.829010","11.091819","0.016020","663875","793707","834305","24.838818","9.221059","0.016829","709166","810420","887224","20.067790","7.069363","0.017476","671612","854341","965441","12.820202","4.268360","0.021041","4428","7722","10152","4429","6768","8231","4424","6422","7602","4489","6060","6914","4234","5277","5798","DualSpot on"
"MA200-0420","47068","76","1","1.10","1.6","2023-07-31T20:55:00","120","2023/07/31","20:55:00","-15.795493483543396","35.002870332915336","0.4","11","300","64","98","-116","-27008","-796","3","150","150.34","114.22","36.12","23.75","41.9","10.02","90664","23.69","DUALSPOT-UV-BLUE-GREEN-RED-IR","503330","585594","907456","41.195660","17.594906","0.013444","642430","793374","836652","29.513042","11.414515","0.015076","657162","788283","830883","25.446588","9.494535","0.015826","707547","810954","889722","20.579772","7.283453","0.016166","670533","854851","967293","13.171265","4.400773","0.017029","4432","7584","9934","4439","6622","7998","4417","6285","7396","4497","5945","6739","4293","5120","5535","DualSpot on"
"MA200-0420","47069","76","1","1.10","1.6","2023-07-31T21:00:00","120","2023/07/31","21:00:00","-15.795633018016815","35.002751666354015","0.0","12","300","64","98","-156","-26944","-948","3","150","150.34","114.69","35.65","23.70","42.0","10.04","90656","23.63","DUALSPOT-UV-BLUE-GREEN-RED-IR","496395","579924","903125","42.104036","18.092392","0.013583","639825","793151","839328","30.234438","11.762986","0.015729","654503","787877","832897","26.089814","9.789150","0.016525","700625","805531","885790","21.121020","7.514452","0.017362","665955","850951","964261","13.540909","4.543208","0.019574","4651","8196","10866","4662","7246","8891","4656","6860","8184","4734","6500","7476","4502","5581","6126","DualSpot on"
"MA200-0420","47070","76","1","1.10","1.6","2023-07-31T21:05:00","120","2023/07/31","21:05:00","-15.795617759227753","35.002758332993835","0.1","12","300","64","98","-48","-27040","-420","3","150","149.77","114.10","35.67","23.65","42.2","10.03","90660","23.56","DUALSPOT-UV-BLUE-GREEN-RED-IR","492598","577725","904235","42.996256","18.590404","0.013501","635904","791146","840106","30.944152","12.109855","0.015534","650852","786113","833481","26.723420","10.082639","0.016321","702545","810195","893003","21.657694","7.745407","0.017064","663747","850042","964595","13.909996","4.685844","0.018881","4592","8200","10948","4611","7208","8879","4610","6830","8176","4718","6495","7485","4518","5586","6128","DualSpot on"
"MA200-0420","47071","76","1","1.10","1.6","2023-07-31T21:10:00","120","2023/07/31","21:10:00","-15.795639872550964","35.00276549952105","0.3","13","300","64","98","-136","-26912","-971","3","150","149.59","114.48","35.11","23.59","42.3","10.01","90664","23.50","DUALSPOT-UV-BLUE-GREEN-RED-IR","491005","577961","908856","43.832684","19.062240","0.013636","629946","786391","837835","31.616854","12.442207","0.015875","645793","782497","831995","27.325420","10.365203","0.016867","697656","806885","891312","22.165984","7.966088","0.017757","660472","847609","963172","14.258556","4.823674","0.021344","4291","7894","10666","4356","7018","8745","4365","6682","8098","4454","6306","7345","4253","5484","6114","DualSpot on"
"MA200-0420","47072","76","1","1.10","1.6","2023-07-31T21:15:00","120","2023/07/31","21:15:00","-15.795695662498474","35.00262216641568","0.0","13","300","64","98","-16","-26970","-500","3","150","150.21","114.38","35.83","23.55","42.4","10.01","90668","23.50","DUALSPOT-UV-BLUE-GREEN-RED-IR","486578","574823","908279","44.670432","19.540546","0.013295","624912","782718","836722","32.285518","12.776075","0.015354","641886","780223","831923","27.924244","10.648796","0.016214","693753","804675","890855","22.674252","8.189907","0.017133","658153","846432","963146","14.609257","4.961462","0.019029","4301","7840","10592","4333","6907","8593","4346","6571","7942","4458","6267","7290","4283","5372","5932","DualSpot on"
"MA200-0420","47073","76","1","1.10","1.6","2023-07-31T21:20:00","120","2023/07/31","21:20:00","-15.795762658119202","35.002587166382","0.1","13","300","64","97","-144","-26988","-808","3","150","150.02","114.14","35.88","23.49","42.6","10.03","90668","23.44","DUALSPOT-UV-BLUE-GREEN-RED-IR","481058","570371","905687","45.529464","20.035260","0.013129","619984","779218","835854","32.973922","13.120945","0.015058","636340","775989","829790","28.539104","10.940794","0.015875","688293","800642","888443","23.196468","8.418264","0.016399","658385","848560","967009","14.969414","5.104549","0.019102","4420","8098","10989","4471","7125","8880","4472","6756","8177","4590","6385","7408","4408","5571","6173","DualSpot on"
"MA200-0420","47074","76","1","1.10","1.6","2023-07-31T21:25:00","120","2023/07/31","21:25:00","-15.795687139034271","35.002592999720946","0.1","13","300","64","98","-59","-26888","-656","3","150","150.08","114.33","35.76","23.43","42.7","10.04","90656","23.31","DUALSPOT-UV-BLUE-GREEN-RED-IR","479304","570376","910319","46.404008","20.544190","0.013081","618293","779808","839451","33.678188","13.478646","0.015141","635401","777386","833855","29.172624","11.244898","0.015952","683441","797379","886944","23.734070","8.658771","0.017020","655436","846653","966276","15.343178","5.255731","0.020109","4492","8360","11432","4566","7416","9317","4600","7061","8604","4717","6748","7914","4566","5906","6604","DualSpot on"
"MA200-0420","47075","76","1","1.10","1.6","2023-07-31T21:30:00","120","2023/07/31","21:30:00","-15.795650243759155","35.002673499751836","0.1","13","300","64","98","-36","-26908","-700","3","150","149.89","114.65","35.23","23.37","42.9","10.05","90656","23.25","DUALSPOT-UV-BLUE-GREEN-RED-IR","474209","566387","908599","47.283272","21.059166","0.013118","613008","775850","838233","34.387260","13.839395","0.015213","630263","773692","832468","29.812162","11.553072","0.016140","682943","799220","891131","24.278766","8.899909","0.016895","651322","843242","963821","15.720493","5.406107","0.019815","4504","8584","11861","4584","7590","9614","4631","7261","8925","4766","6866","8081","4597","5962","6677","DualSpot on"
"MA200-0420","47076","76","1","1.10","1.6","2023-07-31T21:35:00","120","2023/07/31","21:35:00","-15.795706331729889","35.002691166009754","0.1","13","300","64","98","-129","-26829","-741","3","150","150.21","113.86","36.35","23.27","43.2","10.04","90656","23.19","DUALSPOT-UV-BLUE-GREEN-RED-IR","468231","561218","904979","48.150536","21.575242","0.012673","610697","775588","840999","35.095936","14.204643","0.014472","628430","773960","835299","30.447440","11.862842","0.015224","677124","794810","888380","24.823548","9.145242","0.015872","651608","845537","967913","16.100410","5.559915","0.018047","4473","8339","11477","4614","7449","9376","4632","7075","8634","4800","6771","7921","4661","5910","6570","DualSpot on"
"MA200-0420","47077","76","1","1.10","1.6","2023-07-31T21:40:00","120","2023/07/31","21:40:00","-15.795611023902893","35.00273033301346","0.0","12","300","64","98","-128","-26919","-540","3","150","150.33","114.36","35.97","23.22","43.3","10.05","90656","23.13","DUALSPOT-UV-BLUE-GREEN-RED-IR","463869","557909","904306","49.016588","22.093636","0.012686","605676","771791","839977","35.797388","14.569428","0.014645","624234","771238","835006","31.082796","12.175226","0.015468","672993","792284","887772","25.368212","9.392820","0.016328","648768","843777","967431","16.483868","5.716131","0.018887","4448","8465","11762","4547","7518","9558","4612","7210","8883","4778","6906","8157","4684","6067","6801","DualSpot on"
"MA200-0420","47078","76","1","1.10","1.6","2023-07-31T21:45:00","120","2023/07/31","21:45:00","-15.795560836791992","35.002791999839246","0.2","12","300","64","98","-28","-26980","-548","3","150","149.47","113.95","35.52","23.17","43.5","10.06","90644","23.06","DUALSPOT-UV-BLUE-GREEN-RED-IR","462606","558275","909737","49.882752","22.621372","0.012750","600605","767871","838847","36.505192","14.945433","0.014901","618961","767204","833288","31.722086","12.494582","0.015719","667437","788096","885316","25.919778","9.645608","0.016526","645219","841123","965870","16.873676","5.874471","0.018819","4464","8727","12265","4604","7848","10097","4657","7465","9290","4856","7141","8495","4778","6228","7002","DualSpot on"
"MA200-0420","47079","76","1","1.10","1.6","2023-07-31T21:50:00","120","2023/07/31","21:50:00","-15.795572996139526","35.002766833174974","0.2","12","300","64","98","-164","-26772","-440","3","150","149.44","114.29","35.15","23.08","43.7","10.04","90660","23.00","DUALSPOT-UV-BLUE-GREEN-RED-IR","457239","553584","906728","50.720344","23.137112","0.012780","593980","761823","835315","37.195616","15.313758","0.014928","613694","763011","831331","32.346946","12.810818","0.015971","667834","790846","890628","26.458750","9.894538","0.016813","641630","838288","964192","17.255840","6.033582","0.020413","4304","8617","12235","4478","7767","10070","4539","7469","9390","4731","7104","8522","4671","6323","7211","DualSpot on"
"MA200-0420","47080","76","1","1.10","1.6","2023-07-31T21:55:00","120","2023/07/31","21:55:00","-15.795595288276672","35.002764999633655","0.4","12","300","68","98","-66","-27041","-637","4","150","150.03","116.28","33.75","23.02","43.8","10.05","90668","22.94","DUALSPOT-UV-BLUE-GREEN-RED-IR","782403","704708","909571","0.000000","0.000000","0.000000","878449","891409","835977","0.000000","0.000000","0.000000","862670","870565","832486","0.000000","0.000000","0.000000","879394","872974","888490","0.000000","0.000000","0.000000","770674","894108","964207","0.000000","0.000000","0.000000","","","","","","","","","","","","","","","","Tape advance-DualSpot on"
"MA200-0420","47081","76","1","1.10","1.6","2023-07-31T22:00:00","120","2023/07/31","22:00:00","-15.795632481575012","35.002733333269134","0.3","12","300","68","98","-79","-26941","-870","4","150","150.33","116.41","33.93","22.96","44.0","10.06","90664","22.88","DUALSPOT-UV-BLUE-GREEN-RED-IR","762099","696534","904502","0.000000","0.000000","0.000000","868813","890049","837919","0.000000","0.000000","0.000000","855351","869979","834614","0.000000","0.000000","0.000000","867920","866783","884325","0.000000","0.000000","0.000000","768615","894899","966332","0.000000","0.000000","0.000000","","","","","","","","","","","","","","","","Tape advance-DualSpot on"
"MA200-0420","47082","76","1","1.10","1.6","2023-07-31T22:05:00","120","2023/07/31","22:05:00","-15.7955082654953","35.002838999731466","0.3","13","300","64","98","-37","-26837","-583","4","150","150.08","116.52","33.56","22.90","44.2","10.07","90672","22.81","DUALSPOT-UV-BLUE-GREEN-RED-IR","747282","692818","905419","2.063020","0.634641","0.000000","857805","887143","838628","1.361781","0.408923","0.000000","841435","862657","830351","1.134789","0.338191","0.000000","867229","871474","891398","0.874371","0.256655","0.000000","761031","889342","961751","0.517030","0.145732","0.000000","10399","11105","10399","8664","9031","8664","8085","8365","8085","7528","7671","7528","6198","6065","6198","DualSpot on"
"MA200-0420","47083","76","1","1.10","1.6","2023-07-31T22:10:00","120","2023/07/31","22:10:00","-15.795628249645233","35.002749666105956","0.1","13","300","64","98","-32","-26944","-500","4","150","149.77","116.22","33.56","22.83","44.5","10.11","90664","22.75","DUALSPOT-UV-BLUE-GREEN-RED-IR","737523","692794","910894","3.982214","1.241725","0.030622","844826","881507","836545","2.635836","0.796020","0.000000","835996","863565","833867","2.201521","0.655573","0.000000","858487","867769","889768","1.701839","0.498521","0.000000","760703","892098","966069","1.007108","0.283441","0.000000","9699","10626","11046","8126","8552","8126","7620","7852","7620","7143","7231","7143","5890","5733","5890","DualSpot on"
"MA200-0420","47084","76","1","1.10","1.6","2023-07-31T22:15:00","120","2023/07/31","22:15:00","-15.795594155788422","35.00278999982402","0.1","13","300","64","98","-48","-26996","-928","4","150","150.08","116.08","34.00","22.79","44.8","10.15","90672","22.75","DUALSPOT-UV-BLUE-GREEN-RED-IR","722190","686826","908475","5.818695","1.839590","0.024103","831700","875240","833789","3.870427","1.180321","0.021420","825841","859207","832281","3.235999","0.970363","0.016304","849707","863763","887736","2.506122","0.736232","0.000000","755556","889151","964184","1.489086","0.418704","0.000000","9292","10329","10808","7884","8379","8597","7398","7687","7810","6951","7014","6951","5800","5557","5800","DualSpot on"
"MA200-0420","47085","76","1","1.10","1.6","2023-07-31T22:20:00","120","2023/07/31","22:20:00","-15.795665502548218","35.0027679996565","0.1","13","300","64","98","-84","-26900","-644","4","150","149.94","116.37","33.57","22.73","45.1","10.23","90664","22.69","DUALSPOT-UV-BLUE-GREEN-RED-IR","708948","682226","907799","7.594766","2.437231","0.025916","828281","878817","840386","5.075801","1.562863","0.024894","817082","856067","831874","4.251751","1.286387","0.023785","842017","860693","886746","3.300494","0.977076","0.020452","751650","887595","963842","1.968919","0.556855","0.000000","8964","10456","11161","7678","8447","8789","7246","7815","8062","6848","7197","7344","5760","5748","5760","DualSpot on"
"MA200-0420","47086","76","1","1.10","1.6","2023-07-31T22:25:00","120","2023/07/31","22:25:00","-15.795673489570618","35.002740832977","0.1","13","300","64","98","-36","-27000","-472","4","150","150.03","116.10","33.93","22.65","45.5","10.27","90668","22.56","DUALSPOT-UV-BLUE-GREEN-RED-IR","692662","674318","902660","9.352707","3.038272","0.021490","813372","870074","835306","6.282515","1.952666","0.021090","810865","855513","833988","5.271944","1.606911","0.018468","838328","861733","889977","4.105225","1.220582","0.011665","750184","888957","966669","2.457718","0.697037","0.000000","8893","10404","11131","7705","8516","8882","7295","7842","8082","6954","7200","7304","5881","5771","5881","DualSpot on"
"MA200-0420","47087","76","1","1.10","1.6","2023-07-31T22:30:00","120","2023/07/31","22:30:00","-15.79564779996872","35.00275433296338","0.1","13","300","64","98","-48","-26900","-768","4","150","149.71","115.99","33.72","22.57","45.8","10.31","90668","22.50","DUALSPOT-UV-BLUE-GREEN-RED-IR","687110","676138","910413","11.014988","3.622755","0.021599","805024","867802","836283","7.432167","2.330619","0.021546","802734","852564","833723","6.246633","1.918500","0.020131","831140","858916","889164","4.875365","1.457340","0.015546","746551","887636","966517","2.929256","0.832353","0.000000","8417","10181","11045","7347","8309","8748","6976","7671","7980","6661","7044","7207","5679","5605","5679","DualSpot on"
"MA200-0420","47088","76","1","1.10","1.6","2023-07-31T22:35:00","120","2023/07/31","22:35:00","-15.79561561346054","35.00275716627948","0.1","13","300","64","98","-83","-26845","-687","4","150","149.90","116.22","33.68","22.52","46.1","10.35","90684","22.44","DUALSPOT-UV-BLUE-GREEN-RED-IR","674098","670442","908175","12.676107","4.218694","0.020739","799500","868584","840255","8.596504","2.718121","0.020745","793684","848622","832536","7.240342","2.240139","0.019993","823588","855780","888126","5.667945","1.702699","0.015677","742220","885572","965647","3.423212","0.974547","-0.002748","8395","10392","11389","7427","8529","9039","7098","7928","8300","6842","7308","7509","5937","5897","5882","DualSpot on"
"MA200-0420","47089","76","1","1.10","1.6","2023-07-31T22:40:00","120","2023/07/31","22:40:00","-15.795611321926117","35.00269699958153","0.1","13","300","64","98","-16","-27050","-483","4","150","149.96","116.07","33.89","22.46","46.3","10.37","90672","22.38","DUALSPOT-UV-BLUE-GREEN-RED-IR","662484","665590","906852","14.275248","4.806701","0.019682","789295","863938","839021","9.730675","3.103775","0.019987","784642","844469","831115","8.213254","2.560114","0.018872","821232","857903","892458","6.445665","1.946815","0.015035","737179","882651","963819","3.913513","1.116750","-0.002451","8092","10190","11254","7244","8435","8993","6959","7837","8235","6722","7226","7443","5901","5861","5845","DualSpot on"
