"Serial number","Datum ID","Session ID","Data format version","Firmware version","App version","Date / time local","Timezone offset (mins)","Date local (yyyy/MM/dd)","Time local (hh:mm:ss)","GPS lat (ddmm.mmmmm)","GPS long (dddmm.mmmmm)","GPS speed (km/h)","GPS sat count","Timebase (s)","Status","Battery remaining (%)","Accel X","Accel Y","Accel Z","Tape position","Flow setpoint (mL/min)","Flow total (mL/min)","Flow1 (mL/min)","Flow2 (mL/min)","Sample temp (C)","Sample RH (%)","Sample dewpoint (C)","Internal pressure (Pa)","Internal temp (C)","Optical config","UV Sen1","UV Sen2","UV Ref","UV ATN1","UV ATN2","UV K","Blue Sen1","Blue Sen2","Blue Ref","Blue ATN1","Blue ATN2","Blue K","Green Sen1","Green Sen2","Green Ref","Green ATN1","Green ATN2","Green K","Red Sen1","Red Sen2","Red Ref","Red ATN1","Red ATN2","Red K","IR Sen1","IR Sen2","IR Ref","IR ATN1","IR ATN2","IR K","UV BC1","UV BC2","UV BCc","Blue BC1","Blue BC2","Blue BCc","Green BC1","Green BC2","Green BCc","Red BC1","Red BC2","Red BCc","IR BC1","IR BC2","IR BCc","Readable status"
"MA200-0416","23153","64","1","1.10","1.4","2023-05-11T14:25:30","120","2023/05/11","14:25:30","-15.796197712421417","35.00355933280662","3.5","17","30","66","65","-22182","8351","-9158","11","150","149.40","115.34","34.06","29.68","46.9","17.14","0","0.00","DUALSPOT-UV-BLUE-GREEN-RED-IR","931228","797172","977685","0.000000","0.000000","0.000000","810296","918583","760673","0.000000","0.000000","0.000000","905827","922185","813398","0.000000","0.000000","0.000000","887916","939849","863070","0.000000","0.000000","0.000000","746857","855427","948626","0.000000","0.000000","0.000000","","","","","","","","","","","","","","","","Start up"
"MA200-0416","23154","64","1","1.10","1.4","2023-05-11T14:26:00","120","2023/05/11","14:26:00","-15.795873522758484","35.00421949941665","1.1","16","30","66","65","-22948","6436","-8628","11","150","149.39","115.67","33.71","29.73","46.3","16.97","90368","29.13","DUALSPOT-UV-BLUE-GREEN-RED-IR","870294","745879","915128","0.000000","0.000000","0.000000","814038","923544","765079","0.000000","0.000000","0.000000","907699","924699","815963","0.000000","0.000000","0.000000","885903","938267","861893","0.000000","0.000000","0.000000","748613","857990","951670","0.000000","0.000000","0.000000","","","","","","","","","","","","","","","","Start up"
"MA200-0416","23155","64","1","1.10","1.4","2023-05-11T14:26:30","120","2023/05/11","14:26:30","-15.793844938278198","35.00421949941665","11.2","16","30","66","65","-23172","8240","-6400","11","150","149.58","115.70","33.88","29.75","45.9","16.87","90452","29.25","DUALSPOT-UV-BLUE-GREEN-RED-IR","862370","740419","908931","0.000000","0.000000","0.000000","809393","919369","761948","0.000000","0.000000","0.000000","907513","925403","816848","0.000000","0.000000","0.000000","889326","942656","866159","0.000000","0.000000","0.000000","749502","859512","953558","0.000000","0.000000","0.000000","","","","","","","","","","","","","","","","Start up"
"MA200-0416","23156","64","1","1.10","1.4","2023-05-11T14:27:00","120","2023/05/11","14:27:00","-15.791345357894897","35.004241498652846","8.4","16","30","66","65","-22900","8312","-4928","11","150","150.36","115.68","34.69","29.77","45.6","16.77","90292","29.31","DUALSPOT-UV-BLUE-GREEN-RED-IR","855421","735727","903667","0.000000","0.000000","0.000000","809301","920414","763126","0.000000","0.000000","0.000000","903561","922336","814424","0.000000","0.000000","0.000000","883449","937145","861349","0.000000","0.000000","0.000000","750298","860902","955295","0.000000","0.000000","0.000000","","","","","","","","","","","","","","","","Start up"
"MA200-0416","23157","64","1","1.10","1.4","2023-05-11T14:27:30","120","2023/05/11","14:27:30","-15.789719223976135","35.00460433261469","9.0","16","30","66","65","-23308","7592","-5160","11","150","150.08","115.92","34.16","29.79","45.3","16.68","90208","29.38","DUALSPOT-UV-BLUE-GREEN-RED-IR","855189","736060","904308","0.000000","0.000000","0.000000","810342","922023","764578","0.000000","0.000000","0.000000","902692","921776","814028","0.000000","0.000000","0.000000","883615","937608","861852","0.000000","0.000000","0.000000","750041","860787","955186","0.000000","0.000000","0.000000","","","","","","","","","","","","","","","","Start up"
"MA200-0416","23158","64","1","1.10","1.4","2023-05-11T14:28:00","120","2023/05/11","14:28:00","-15.788947343826294","35.004815666005015","0.0","16","30","64","64","-22800","8358","-6091","11","150","150.09","115.87","34.22","29.81","45.0","16.60","90208","29.44","DUALSPOT-UV-BLUE-GREEN-RED-IR","856672","737769","906575","0.000000","0.000000","0.000000","810622","922662","765200","0.000000","0.000000","0.000000","903559","922918","815102","0.000000","0.000000","0.000000","885611","939902","864045","0.000000","0.000000","0.000000","746389","856716","950746","0.000000","0.000000","0.000000","","","","","","","","","","","","","","","",""
"MA200-0416","23159","64","1","1.10","1.4","2023-05-11T14:28:30","120","2023/05/11","14:28:30","-15.788714468479156","35.004697165917605","5.4","16","30","64","64","-23204","7964","-5816","11","150","149.32","116.02","33.30","29.83","44.8","16.55","90204","29.50","DUALSPOT-UV-BLUE-GREEN-RED-IR","854052","735938","904516","0.079297","0.019117","0.000000","809012","921161","764080","0.050240","0.013441","0.000000","902051","921690","814089","0.041491","0.010180","0.000000","883298","937680","862077","0.031691","0.008058","0.000000","745083","855380","949267","0.022445","0.004763","0.000000","4014","3372","4014","3210","2992","3210","2969","2538","2969","2740","2428","2740","2702","1998","2702",""
"MA200-0416","23160","64","1","1.10","1.4","2023-05-11T14:29:00","120","2023/05/11","14:29:00","-15.788190960884094","35.002378166187555","7.3","16","30","64","64","-24572","5720","-6904","11","150","149.57","116.07","33.50","29.86","44.7","16.53","90380","29.50","DUALSPOT-UV-BLUE-GREEN-RED-IR","857575","739536","909150","0.179139","0.043807","0.000000","806840","919203","762545","0.116288","0.027841","0.000000","904323","924380","816555","0.093054","0.021344","0.000000","886542","941413","865577","0.071001","0.016098","0.000000","746793","857540","951759","0.050548","0.011325","0.000000","5052","4329","5052","4218","3187","4218","3688","2767","3688","3397","2408","3397","3382","2736","3382",""
"MA200-0416","23161","64","1","1.10","1.4","2023-05-11T14:29:30","120","2023/05/11","14:29:30","-15.78802216053009","35.00148183305282","7.6","17","30","64","64","-22552","9228","-5608","11","150","149.83","116.27","33.56","29.89","44.6","16.54","90320","29.56","DUALSPOT-UV-BLUE-GREEN-RED-IR","845537","732818","902313","0.500280","0.122343","0.000000","803536","919217","763597","0.379776","0.092655","0.000000","900397","923701","816947","0.316060","0.076735","0.000000","884405","942034","867023","0.254899","0.061326","0.000000","745116","857645","952644","0.191747","0.047728","0.000000","16223","13744","16223","16799","14316","16799","15923","13702","15923","15868","13520","15868","16964","15152","16964",""
"MA200-0416","23162","64","1","1.10","1.4","2023-05-11T14:30:00","120","2023/05/11","14:30:00","-15.78739047050476","35.00087483326206","5.8","17","30","64","64","-22332","10000","-5308","11","150","149.60","117.03","32.57","29.91","44.5","16.51","90276","29.56","DUALSPOT-UV-BLUE-GREEN-RED-IR","841750","731568","901586","1.205829","0.293111","0.000000","800489","917561","762759","0.934678","0.230878","0.000000","897334","922150","816050","0.806397","0.198584","0.000000","881102","939884","865442","0.671654","0.163358","0.000000","743314","856448","951605","0.503623","0.124642","0.000000","35410","30800","35410","35150","31465","35150","34785","31064","34785","35727","31434","35727","37227","32993","37227",""
"MA200-0416","23163","64","1","1.10","1.4","2023-05-11T14:30:30","120","2023/05/11","14:30:30","-15.786637365818024","35.00038349995157","6.1","17","30","64","64","-23720","6300","-6447","11","150","150.03","116.55","33.48","29.93","44.3","16.47","90264","29.63","DUALSPOT-UV-BLUE-GREEN-RED-IR","843980","733808","904456","1.260717","0.307334","0.000000","801993","919540","764443","0.968658","0.238830","0.000000","894380","919314","813555","0.832850","0.203484","0.000000","877686","936401","862285","0.693106","0.168639","0.000000","745165","858668","954135","0.518659","0.128656","0.000000","2766","2495","2766","2161","1760","2161","1884","1215","1884","1846","1582","1846","1802","1674","1802",""
"MA200-0416","23164","64","1","1.10","1.4","2023-05-11T14:31:00","120","2023/05/11","14:31:00","-15.786410212516785","34.99884086847305","5.3","17","30","64","64","-22164","9492","-5772","11","150","149.57","116.51","33.06","29.95","44.2","16.45","90312","29.63","DUALSPOT-UV-BLUE-GREEN-RED-IR","844457","734422","905337","1.303647","0.318855","0.000000","802526","920318","765126","0.994753","0.244813","0.000000","895382","920446","814616","0.854999","0.209116","0.000000","879133","938047","863823","0.707340","0.171721","0.000000","746286","860008","955629","0.529710","0.132033","0.000000","2164","2046","2164","1660","1341","1660","1578","1414","1578","1225","935","1225","1325","1427","1325",""
"MA200-0416","23165","64","1","1.10","1.4","2023-05-11T14:31:30","120","2023/05/11","14:31:30","-15.786179423332214","34.99741595983505","4.1","16","30","64","64","-22900","7743","-6240","11","150","150.10","116.80","33.30","29.98","44.1","16.43","90204","29.69","DUALSPOT-UV-BLUE-GREEN-RED-IR","842678","733369","904235","1.380493","0.337663","0.000000","801101","919080","764210","1.047420","0.258476","0.000000","893759","919169","813581","0.896943","0.218361","0.000000","877676","936757","862712","0.740683","0.179553","0.000000","744959","858653","954208","0.553329","0.137213","0.000000","3864","3317","3864","3342","3041","3342","2981","2304","2981","2863","2359","2863","2824","2173","2824",""
"MA200-0416","23166","64","1","1.10","1.4","2023-05-11T14:32:00","120","2023/05/11","14:32:00","-15.787035286426544","34.99756723642349","3.4","16","30","64","64","-24028","5036","-7479","11","150","149.94","116.38","33.56","30.01","43.9","16.40","90244","29.75","DUALSPOT-UV-BLUE-GREEN-RED-IR","837227","734153","907607","1.678941","0.415372","0.000000","791959","914338","761952","1.292026","0.320386","0.000000","889396","919375","815213","1.091933","0.267452","0.000000","875162","937942","865031","0.895130","0.217419","0.000000","738985","854327","950442","0.667449","0.167077","0.000000","15062","13600","15062","15581","13675","15581","13910","12144","13910","13314","11320","13314","13698","12430","13698",""
"MA200-0416","23167","64","1","1.10","1.4","2023-05-11T14:32:30","120","2023/05/11","14:32:30","-15.787225544452667","34.99727135896683","3.9","16","30","64","64","-22988","7115","-6284","11","150","150.09","116.43","33.67","30.03","43.9","16.40","90248","29.75","DUALSPOT-UV-BLUE-GREEN-RED-IR","833779","734519","909466","2.994253","0.751775","0.000000","789308","914434","762900","2.336609","0.588674","0.000000","886160","919011","815774","2.004564","0.500166","0.000000","872810","938050","865961","1.658058","0.412029","0.000000","737417","854228","950929","1.216650","0.307689","0.000000","66355","58690","66355","66511","59076","66511","65078","57388","65078","65742","57994","65742","65895","58345","65895",""
"MA200-0416","23168","64","1","1.10","1.4","2023-05-11T14:33:00","120","2023/05/11","14:33:00","-15.786922991275787","34.99650156497955","4.0","16","30","64","64","-22856","8860","-3168","11","150","149.86","116.47","33.38","30.05","43.8","16.40","90268","29.75","DUALSPOT-UV-BLUE-GREEN-RED-IR","832908","734512","909782","3.159065","0.793226","-0.061917","789236","915018","763590","2.454620","0.617795","0.000000","885304","918719","815675","2.103633","0.523835","0.000000","872920","938662","866651","1.737606","0.431067","0.000000","737147","854212","951041","1.274091","0.322659","0.000000","8311","7292","6951","7511","6466","7511","7061","5886","7061","6852","5721","6852","6889","6264","6889",""
"MA200-0416","23169","64","1","1.10","1.4","2023-05-11T14:33:30","120","2023/05/11","14:33:30","-15.786012411117554","34.99619048833847","4.8","16","30","64","64","-22392","8716","-5556","11","150","150.36","116.32","34.04","30.08","43.8","16.40","90228","29.81","DUALSPOT-UV-BLUE-GREEN-RED-IR","824171","728216","902555","3.396497","0.852151","-0.074925","787829","914679","763664","2.627838","0.659734","0.000000","880645","914914","812635","2.244580","0.559294","0.000000","865125","931136","859962","1.848244","0.457281","0.000000","737776","855520","952673","1.353157","0.340790","0.000000","11988","10167","9556","11039","9133","11039","10059","8648","10059","9542","7725","9542","9495","7440","9495",""
"MA200-0416","23170","64","1","1.10","1.4","2023-05-11T14:34:00","120","2023/05/11","14:34:00","-15.784659445285797","34.9957737326622","5.5","16","30","64","64","-23900","7612","-3962","11","150","149.84","115.95","33.90","30.10","43.7","16.41","90204","29.81","DUALSPOT-UV-BLUE-GREEN-RED-IR","822038","726837","901078","3.519200","0.884483","-0.043166","786377","913433","762770","2.713460","0.683946","0.000000","883615","918407","815833","2.315748","0.578337","0.000000","863599","929806","858797","1.903045","0.471663","0.000000","736378","854108","951155","1.390703","0.350428","0.000000","6215","5602","5396","5474","5294","5474","5095","4663","5095","4741","4256","4741","4523","3971","4523",""
"MA200-0416","23171","64","1","1.10","1.4","2023-05-11T14:34:30","120","2023/05/11","14:34:30","-15.783261597156525","34.99552571773529","6.0","17","30","64","64","-22812","8580","-4456","11","150","149.76","115.87","33.89","30.12","43.7","16.42","90172","29.88","DUALSPOT-UV-BLUE-GREEN-RED-IR","824419","729409","904497","3.602870","0.905542","-0.063568","788268","915992","765017","2.766591","0.697225","0.000000","880820","915758","813546","2.356607","0.587666","0.000000","866391","932976","861804","1.933431","0.477630","0.000000","738064","856164","953498","1.410137","0.354238","0.000000","4241","3649","3450","3399","2904","3399","2927","2285","2927","2631","1766","2631","2342","1570","2342",""
"MA200-0416","23172","64","1","1.10","1.4","2023-05-11T14:35:00","120","2023/05/11","14:35:00","-15.78206318616867","34.99559199810028","1.7","17","30","64","64","-22948","7072","-7960","11","150","149.87","116.38","33.49","30.15","43.6","16.41","90180","29.88","DUALSPOT-UV-BLUE-GREEN-RED-IR","825402","730616","906096","3.668471","0.922929","-0.032164","784221","911565","761373","2.807951","0.705945","0.000000","881156","916325","814108","2.388406","0.593686","0.000000","866853","933650","862474","1.958346","0.483989","0.000000","738585","856896","954336","1.428434","0.358659","0.000000","3310","3049","2961","2634","1930","2634","2268","1492","2268","2147","1905","2147","2196","1844","2196",""
"MA200-0416","23173","64","1","1.10","1.4","2023-05-11T14:35:30","120","2023/05/11","14:35:30","-15.781714677810669","34.9946945309639","4.9","17","30","64","64","-22672","8660","-7508","11","150","149.59","116.25","33.34","30.18","43.5","16.39","90192","29.94","DUALSPOT-UV-BLUE-GREEN-RED-IR","824158","730447","906264","3.818997","0.960458","-0.055355","784273","912377","762251","2.908903","0.730926","0.000000","880073","915786","813830","2.470458","0.614870","0.000000","867101","934426","863316","2.020937","0.497925","0.000000","738113","856662","954201","1.471431","0.369307","0.000000","7605","6611","6278","6437","5554","6437","5859","5275","5859","5401","4193","5401","5166","4461","5166",""
"MA200-0416","23174","64","1","1.10","1.4","2023-05-11T14:36:00","120","2023/05/11","14:36:00","-15.781362533569336","34.99330872297287","6.1","17","30","64","64","-23541","6337","-5554","11","150","149.91","116.39","33.52","30.20","43.5","16.41","90236","29.94","DUALSPOT-UV-BLUE-GREEN-RED-IR","824123","731292","907712","3.984232","1.004287","-0.029567","783857","912489","762505","2.991974","0.751722","0.000000","880278","916486","814513","2.532399","0.627732","0.000000","867350","935006","863928","2.065974","0.506967","0.000000","738623","857426","955134","1.502672","0.376598","0.000000","8338","7681","7459","5290","4599","5290","4418","3186","4418","3882","2706","3882","3749","3038","3749",""
"MA200-0416","23175","64","1","1.10","1.4","2023-05-11T14:36:30","120","2023/05/11","14:36:30","-15.78130704164505","34.99161458015442","5.9","17","30","64","64","-22628","7900","-5924","11","150","149.90","116.03","33.87","30.23","43.4","16.41","90284","30.00","DUALSPOT-UV-BLUE-GREEN-RED-IR","824308","732352","909434","4.158442","1.049886","-0.038517","783891","913236","763322","3.099507","0.777465","-0.101855","879959","916726","814907","2.616722","0.647056","0.000000","867520","935644","864643","2.129012","0.520909","0.000000","738454","857532","955329","1.545665","0.385495","0.000000","8818","7908","7601","6870","5635","5221","6033","4737","6033","5450","4130","5450","5176","3669","5176",""
"MA200-0416","23176","64","1","1.10","1.4","2023-05-11T14:37:00","120","2023/05/11","14:37:00","-15.780561208724976","34.99099785089493","6.1","17","30","64","63","-23532","7543","-6711","11","150","150.03","116.07","33.96","30.25","43.4","16.41","90288","30.00","DUALSPOT-UV-BLUE-GREEN-RED-IR","821982","730732","907612","4.249294","1.070194","-0.108433","782687","912240","762563","3.160787","0.789981","-0.213100","878569","915567","813957","2.665073","0.656909","0.000000","866239","934544","863678","2.169019","0.529415","0.000000","737563","856649","954381","1.571256","0.390728","0.000000","4597","3512","3147","3913","2732","2338","3458","2408","3458","3458","2513","3458","3079","2152","3079",""
"MA200-0416","23177","64","1","1.10","1.4","2023-05-11T14:37:30","120","2023/05/11","14:37:30","-15.779106259346008","34.99099636077881","5.8","17","30","64","63","-22772","6760","-6164","11","150","149.63","115.95","33.68","30.27","43.3","16.42","90336","30.00","DUALSPOT-UV-BLUE-GREEN-RED-IR","823728","732601","910021","4.300096","1.082883","-0.053569","784354","914417","764416","3.191614","0.796491","-0.179177","879649","916902","815178","2.688653","0.661283","0.000000","868545","937143","866084","2.184528","0.531518","0.000000","733949","852508","949803","1.583272","0.393530","0.000000","2573","2212","2091","1970","1432","1253","1688","1078","1688","1341","626","1341","1447","1162","1447",""
"MA200-0416","23178","64","1","1.10","1.4","2023-05-11T14:38:00","120","2023/05/11","14:38:00","-15.778177678585052","34.99106800556183","4.3","17","30","64","63","-22972","7400","-5632","11","150","150.43","115.99","34.43","30.30","43.2","16.40","0","0.00","DUALSPOT-UV-BLUE-GREEN-RED-IR","816018","726016","901959","4.354630","1.095827","-0.084053","784187","914445","764496","3.222972","0.803125","-0.192431","880009","917433","815685","2.713043","0.665598","0.000000","861606","929778","859298","2.201897","0.534242","0.000000","734458","853187","950592","1.594690","0.395522","0.000000","2761","2207","2021","2004","1428","1236","1745","1040","1745","1502","793","1502","1375","807","1375",""
"MA200-0416","23179","64","1","1.10","1.4","2023-05-11T14:38:30","120","2023/05/11","14:38:30","-15.776592493057251","34.991216599941254","6.3","17","30","64","63","-23460","6611","-6368","11","150","150.29","116.31","33.98","30.32","43.1","16.38","0","0.00","DUALSPOT-UV-BLUE-GREEN-RED-IR","816591","726744","902936","4.394558","1.106416","-0.032016","784592","915071","765059","3.248906","0.809610","-0.073159","880951","918566","816720","2.732188","0.669372","0.000000","862098","930442","859929","2.214205","0.535655","0.000000","734864","853779","951236","1.605320","0.396823","0.000000","2016","1830","1767","1652","1414","1335","1366","921","1366","1061","416","1061","1276","535","1276",""
"MA200-0416","23180","64","1","1.10","1.4","2023-05-11T14:39:00","120","2023/05/11","14:39:00","-15.775032222270966","34.99152249097824","6.0","17","30","64","63","-23800","5476","-6904","11","150","150.43","116.27","34.16","30.34","43.0","16.38","90512","30.06","DUALSPOT-UV-BLUE-GREEN-RED-IR","817964","728137","904780","4.432118","1.115184","-0.085325","780717","910725","761467","3.270519","0.813980","-0.216952","881079","918850","816997","2.749277","0.673174","0.000000","862740","931260","860706","2.227085","0.537527","0.000000","735075","854046","951566","1.612905","0.398881","0.000000","1897","1507","1376","1378","948","806","1220","924","1220","1111","549","1111","911","841","911",""
"MA200-0416","23181","64","1","1.10","1.4","2023-05-11T14:39:30","120","2023/05/11","14:39:30","-15.774360358715057","34.99236088991165","3.7","17","30","64","63","-23080","7779","-5912","11","150","150.01","115.84","34.17","30.37","43.0","16.39","90612","30.13","DUALSPOT-UV-BLUE-GREEN-RED-IR","818132","728593","905437","4.476801","1.126474","-0.052994","780926","911185","761926","3.297597","0.820041","-0.143356","881420","919324","817473","2.767885","0.677097","0.000000","863271","931966","861358","2.241438","0.539118","0.000000","735478","854603","952184","1.622606","0.400701","0.000000","2265","1940","1831","1732","1315","1176","1333","953","1333","1243","467","1243","1169","743","1169",""
"MA200-0416","23182","64","1","1.10","1.4","2023-05-11T14:40:00","120","2023/05/11","14:40:00","-15.773105680942535","34.99287956953049","6.7","17","30","64","63","-23568","7796","-6811","11","150","150.29","116.11","34.18","30.39","43.0","16.42","90684","30.13","DUALSPOT-UV-BLUE-GREEN-RED-IR","817183","728070","904945","4.540601","1.142753","-0.047732","780539","910963","761807","3.335214","0.827617","-0.217254","876025","913899","812645","2.795571","0.680864","0.000000","863719","932555","861973","2.260071","0.542796","0.000000","735250","854442","952028","1.636785","0.403014","0.000000","3227","2797","2652","2401","1643","1392","1979","914","1979","1609","1079","1609","1705","945","1705",""
"MA200-0416","23183","64","1","1.10","1.4","2023-05-11T14:40:30","120","2023/05/11","14:40:30","-15.771562159061432","34.992899954319","5.0","17","30","64","63","-23580","5976","-6711","11","150","149.53","115.75","33.77","30.41","43.1","16.45","90744","30.19","DUALSPOT-UV-BLUE-GREEN-RED-IR","818614","729581","906933","4.589465","1.154874","-0.054534","780915","911600","762344","3.363514","0.834585","-0.077956","876982","915086","813736","2.818710","0.685400","0.000000","865369","934449","863724","2.275908","0.544118","0.000000","736190","855597","953369","1.646879","0.405922","0.000000","2479","2108","1983","1812","1529","1435","1659","1114","1659","1372","393","1372","1218","1203","1218",""
"MA200-0416","23184","64","1","1.10","1.4","2023-05-11T14:41:00","120","2023/05/11","14:41:00","-15.771347999572754","34.99356597661972","3.8","17","30","64","63","-23608","9584","-4996","11","150","150.40","116.35","34.05","30.45","43.1","16.49","90820","30.19","DUALSPOT-UV-BLUE-GREEN-RED-IR","818952","730200","907810","4.637469","1.167841","-0.024711","782013","913069","763674","3.392732","0.841617","-0.091052","877173","915426","814089","2.840197","0.689578","0.000000","865522","934748","864036","2.291602","0.547546","0.000000","736033","855456","953225","1.657451","0.407543","0.000000","2423","2236","2174","1861","1531","1422","1533","1018","1533","1353","1010","1353","1269","664","1269",""
"MA200-0416","23185","64","1","1.10","1.4","2023-05-11T14:41:30","120","2023/05/11","14:41:30","-15.771133363246918","34.99469584226608","2.0","17","30","64","63","-22784","7311","-6400","11","150","150.34","115.94","34.40","30.47","43.1","16.51","90712","30.25","DUALSPOT-UV-BLUE-GREEN-RED-IR","819671","731064","909006","4.684664","1.181150","-0.015161","782476","913802","764308","3.419209","0.848186","-0.081498","877481","915905","814550","2.860916","0.694501","0.000000","865874","935268","864519","2.306997","0.550234","0.000000","736129","855664","953459","1.668325","0.408896","0.000000","2390","2272","2232","1692","1415","1324","1483","1188","1483","1332","783","1332","1310","549","1310",""
"MA200-0416","23186","64","1","1.10","1.4","2023-05-11T14:42:00","120","2023/05/11","14:42:00","-15.772241711616516","34.99521577358246","5.9","17","30","72","63","-22416","9396","-4936","11","150","149.96","115.95","34.01","30.49","43.0","16.51","90640","30.25","DUALSPOT-UV-BLUE-GREEN-RED-IR","812529","725100","901788","4.752722","1.200304","-0.012073","782204","913864","764443","3.462529","0.858831","-0.079479","877729","916434","815094","2.893561","0.702529","0.000000","751731","812128","750761","2.331239","0.556266","0.000000","737089","856927","954923","1.686359","0.415207","0.000000","3447","3307","3260","2769","2320","2171","2337","1959","2337","2097","1779","2097","2172","2592","2172",""
"MA200-0416","23187","64","1","1.10","1.4","2023-05-11T14:42:30","120","2023/05/11","14:42:30","-15.773198008537292","34.99656963348389","5.9","17","30","64","63","-22380","10064","-5688","11","150","149.57","115.83","33.73","30.51","42.9","16.49","90540","30.31","DUALSPOT-UV-BLUE-GREEN-RED-IR","812594","725664","902710","4.855386","1.227256","-0.031282","783143","915385","765870","3.535998","0.876832","-0.075621","877692","916776","815549","2.956283","0.718432","0.000000","867135","937164","866417","2.382195","0.567287","0.000000","737220","857281","955419","1.722751","0.423934","0.000000","5205","4692","4519","4702","3956","3710","4495","3913","4495","4413","3277","4413","4388","3613","4388",""
"MA200-0416","23188","64","1","1.10","1.4","2023-05-11T14:43:00","120","2023/05/11","14:43:00","-15.774555027484894","34.99732577800751","6.1","17","30","64","63","-22504","7884","-7052","11","150","149.63","115.91","33.72","30.54","42.8","16.48","90412","30.31","DUALSPOT-UV-BLUE-GREEN-RED-IR","810684","724257","901065","4.910140","1.240934","-0.047503","776868","908326","760031","3.570443","0.885749","-0.048076","876711","915969","814820","2.981073","0.722742","0.000000","865711","935767","865170","2.400601","0.570524","0.000000","736111","856081","954092","1.736450","0.426206","0.000000","2774","2382","2249","2203","1960","1880","1775","1061","1775","1593","962","1593","1650","941","1650",""
"MA200-0416","23189","64","1","1.10","1.4","2023-05-11T14:43:30","120","2023/05/11","14:43:30","-15.776078045368195","34.99760240316391","5.3","17","30","64","63","-23000","8587","-4633","11","150","150.03","116.03","34.00","30.56","42.7","16.46","90368","30.31","DUALSPOT-UV-BLUE-GREEN-RED-IR","813003","726672","904255","4.975956","1.258241","-0.031966","778498","910433","761857","3.605831","0.895101","-0.041613","877800","917290","816084","3.008443","0.729406","-0.095460","860653","930444","860275","2.420055","0.573796","0.000000","737692","857999","956252","1.750543","0.429433","0.000000","3331","2990","2874","2260","2039","1965","1958","1627","1521","1682","965","1682","1696","1326","1696",""
"MA200-0416","23190","64","1","1.10","1.4","2023-05-11T14:44:00","120","2023/05/11","14:44:00","-15.777234494686127","34.997910380363464","4.2","17","30","64","63","-22520","9004","-4572","11","150","150.36","116.27","34.09","30.60","42.6","16.45","90320","30.31","DUALSPOT-UV-BLUE-GREEN-RED-IR","811897","726455","904356","5.103360","1.292955","-0.020494","777757","910200","761838","3.684497","0.913440","-0.101620","878425","918444","817229","3.070027","0.743007","-0.157189","861787","932077","861880","2.465713","0.583375","0.000000","733483","853335","951140","1.781089","0.436821","0.000000","6436","5981","5826","5015","3988","3649","4397","3312","2966","3939","2818","3939","3670","3027","3670",""
"MA200-0416","23191","64","1","1.10","1.4","2023-05-11T14:44:30","120","2023/05/11","14:44:30","-15.778511345386505","34.99832999706268","5.6","17","30","64","63","-23020","8460","-5096","11","150","150.16","116.35","33.81","30.61","42.6","16.45","90268","30.38","DUALSPOT-UV-BLUE-GREEN-RED-IR","810919","726582","904917","5.269137","1.336530","-0.027848","777148","910451","762320","3.801692","0.942140","-0.069564","876338","917073","816220","3.167153","0.765848","-0.106168","861199","932105","862123","2.543603","0.601381","0.000000","732767","852950","950859","1.837192","0.449525","0.000000","8368","7569","7298","7467","6292","5905","6930","5608","5186","6716","5343","6716","6736","5248","6736",""
"MA200-0416","23192","64","1","1.10","1.4","2023-05-11T14:45:00","120","2023/05/11","14:45:00","-15.78000259399414","34.99843716621399","5.1","17","30","64","63","-22404","10004","-5248","11","150","149.40","115.55","33.85","30.64","42.5","16.43","90132","30.38","DUALSPOT-UV-BLUE-GREEN-RED-IR","809559","727020","906238","5.563087","1.416252","-0.019884","775868","910616","762951","4.036212","1.005369","-0.029420","875483","917631","817213","3.369624","0.820189","-0.036993","860629","932693","863055","2.709079","0.644791","0.000000","732414","853354","951594","1.955703","0.480373","0.000000","14942","13833","13454","15046","13847","13449","14548","13328","12935","14368","12866","14368","14327","12730","14327",""
"MA200-0416","23193","64","1","1.10","1.4","2023-05-11T14:45:30","120","2023/05/11","14:45:30","-15.781392395496368","34.998858869075775","6.1","17","30","64","62","-22564","9316","-6904","11","150","149.09","116.63","32.46","30.66","42.3","16.41","90020","30.44","DUALSPOT-UV-BLUE-GREEN-RED-IR","806421","725526","904958","5.859748","1.493124","-0.017405","773692","909280","762198","4.266578","1.064373","-0.027855","873327","916463","816482","3.565384","0.868523","-0.049194","856982","929670","860515","2.871034","0.683296","0.000000","730356","851522","949790","2.070365","0.508836","0.000000","14940","13910","13557","14643","13475","13087","13935","12362","11856","13932","11901","13932","13734","12249","13734",""
"MA200-0416","23194","64","1","1.10","1.4","2023-05-11T14:46:00","120","2023/05/11","14:46:00","-15.782105147838593","35.00033083328162","5.9","17","30","64","63","-22080","8948","-6396","11","150","150.16","116.03","34.13","30.69","42.3","16.44","89900","30.44","DUALSPOT-UV-BLUE-GREEN-RED-IR","807873","727533","907819","5.999014","1.531744","-0.013879","775074","911450","764144","4.341835","1.081144","-0.109752","869254","912571","813121","3.625399","0.880813","-0.184903","859450","932671","863350","2.915007","0.692570","0.000000","731343","852884","951374","2.098755","0.514062","0.000000","7049","6646","6507","4808","3642","3256","4294","2989","2570","3802","2726","3802","3417","2139","3417",""
"MA200-0416","23195","64","1","1.10","1.4","2023-05-11T14:46:30","120","2023/05/11","14:46:30","-15.782701194286346","35.00155583326705","4.9","17","30","64","63","-23212","7096","-5676","11","150","149.96","115.87","34.09","30.72","42.3","16.45","89912","30.50","DUALSPOT-UV-BLUE-GREEN-RED-IR","807601","727627","908092","6.061099","1.548803","-0.016069","774917","911591","764360","4.384881","1.093608","-0.004908","870347","913991","814450","3.660101","0.890481","-0.020587","860585","934098","864735","2.941187","0.698250","0.000000","732490","854341","953029","2.117565","0.518584","0.000000","3147","2939","2867","2754","2710","2696","2486","2354","2312","2266","1671","2266","2267","1852","2267",""
"MA200-0416","23196","64","1","1.10","1.4","2023-05-11T14:47:00","120","2023/05/11","14:47:00","-15.783740282058716","35.001379666500725","1.9","17","30","64","62","-23892","4488","-8004","11","150","150.43","116.63","33.80","30.72","42.2","16.40","90004","30.44","DUALSPOT-UV-BLUE-GREEN-RED-IR","805490","725977","906142","6.116907","1.564651","-0.004533","773540","910184","763256","4.423219","1.102758","-0.069476","868421","912124","812804","3.689361","0.895768","-0.268179","857699","931135","862029","2.966091","0.702363","0.000000","730494","852159","950602","2.135742","0.522533","0.000000","2810","2754","2734","2436","2006","1864","2082","1298","1047","2142","1220","2142","2177","1632","2177",""
"MA200-0416","23197","64","1","1.10","1.4","2023-05-11T14:47:30","120","2023/05/11","14:47:30","-15.783682823181152","35.00274349981919","7.0","16","30","64","63","-23368","7028","-6952","11","150","149.51","115.67","33.83","30.72","42.0","16.34","90000","30.44","DUALSPOT-UV-BLUE-GREEN-RED-IR","806382","727539","908392","6.236821","1.592926","-0.056435","774605","912048","764959","4.503101","1.121627","-0.076496","868572","912773","813565","3.751970","0.910580","-0.089969","859549","933485","864290","3.010033","0.712568","-0.122855","731350","853351","952039","2.166942","0.530140","0.000000","6088","4908","4503","5119","4134","3807","4493","3634","3359","3811","3025","2782","3768","3141","3768",""
"MA200-0416","23198","64","1","1.10","1.4","2023-05-11T14:48:00","120","2023/05/11","14:48:00","-15.783834993839264","35.00428649922833","5.2","16","30","64","63","-23064","6947","-8192","11","150","150.33","116.58","33.75","30.72","41.9","16.29","90016","30.50","DUALSPOT-UV-BLUE-GREEN-RED-IR","805987","727592","908636","6.328775","1.616161","-0.032557","774046","911751","764801","4.566348","1.138002","-0.035899","868744","913259","814053","3.802812","0.923574","-0.048185","860435","934652","865482","3.049139","0.722486","-0.063608","731818","854035","952863","2.195099","0.535060","0.000000","4632","4043","3841","4021","3596","3455","3620","3196","3060","3365","2948","2818","3373","2036","3373",""
"MA200-0416","23199","64","1","1.10","1.4","2023-05-11T14:48:30","120","2023/05/11","14:48:30","-15.784643590450287","35.00443666568026","5.9","16","30","64","61","-23380","5616","-7660","11","150","150.68","116.28","34.40","30.74","41.7","16.22","90064","30.50","DUALSPOT-UV-BLUE-GREEN-RED-IR","803194","725957","907003","6.498912","1.663276","-0.014427","772217","910356","763874","4.680217","1.168245","-0.033649","866968","912004","813159","3.892708","0.946319","-0.060676","857339","931814","862952","3.114700","0.737870","-0.119293","730186","852447","951159","2.237375","0.547032","0.000000","8593","8045","7857","7259","6518","6271","6418","5490","5191","5656","4487","4124","5078","4862","5078",""
"MA200-0416","23200","64","1","1.10","1.4","2023-05-11T14:49:00","120","2023/05/11","14:49:00","-15.785910546779633","35.00428483309224","5.5","16","30","64","62","-23432","5996","-7560","11","150","150.09","116.11","33.98","30.74","41.5","16.15","90172","30.50","DUALSPOT-UV-BLUE-GREEN-RED-IR","805023","727773","909367","6.531977","1.673488","0.010570","773288","911761","765098","4.700196","1.173210","-0.053596","868037","913238","814250","3.907889","0.949502","-0.153448","860273","935075","865993","3.126855","0.739485","-0.802327","731516","853996","952938","2.247215","0.548721","0.000000","1672","1764","1796","1275","1083","1018","1085","777","678","1050","476","299","1183","694","1183",""
"MA200-0416","23201","64","1","1.10","1.4","2023-05-11T14:49:30","120","2023/05/11","14:49:30","-15.787233531475067","35.00406566634774","4.6","16","30","64","62","-22508","8248","-7315","11","150","150.36","116.67","33.69","30.75","41.4","16.11","90224","30.50","DUALSPOT-UV-BLUE-GREEN-RED-IR","804679","727689","909333","6.570954","1.681709","-0.086506","773652","912345","765625","4.726571","1.178915","-0.106308","867350","912658","813779","3.929079","0.954580","-0.073771","859377","934198","865211","3.142637","0.742757","-0.186344","731014","853535","952389","2.255399","0.549319","0.000000","1962","1433","1251","1675","1255","1115","1507","1251","1169","1357","974","855","979","247","979",""
"MA200-0416","23202","64","1","1.10","1.4","2023-05-11T14:50:00","120","2023/05/11","14:50:00","-15.788354933261871","35.003914166241884","5.1","14","30","64","62","-23508","4816","-7904","11","150","149.53","115.84","33.69","30.76","41.3","16.09","90248","30.50","DUALSPOT-UV-BLUE-GREEN-RED-IR","802410","725854","907153","6.614122","1.694019","-0.004075","771802","910363","764038","4.754806","1.185436","-0.079476","866487","911910","813153","3.951556","0.960010","-0.072913","857177","931945","863125","3.158612","0.746297","-0.143327","729839","852217","950996","2.267465","0.552484","0.000000","2188","2146","2131","1806","1434","1311","1610","1338","1250","1383","1054","952","1455","1312","1455",""
"MA200-0416","23203","64","1","1.10","1.4","2023-05-11T14:50:30","120","2023/05/11","14:50:30","-15.787956535816193","35.00103949976619","8.2","14","30","64","62","-23632","5088","-7611","11","150","149.95","116.19","33.76","30.75","41.2","16.05","90312","30.44","DUALSPOT-UV-BLUE-GREEN-RED-IR","796423","721034","901423","6.722506","1.722673","-0.020481","773094","912464","765923","4.830110","1.206052","-0.017233","867221","913133","814372","4.012925","0.975400","-0.054993","859154","934416","865539","3.205870","0.757551","-0.096440","730973","853766","952785","2.298942","0.560253","0.000000","5479","4985","4815","4804","4527","4435","4385","3785","3592","4080","3344","3116","3784","3214","3784",""
"MA200-0416","23204","64","1","1.10","1.4","2023-05-11T14:51:00","120","2023/05/11","14:51:00","-15.786230742931366","35.00102483318187","9.8","14","30","64","61","-22200","10912","-4500","11","150","149.83","116.51","33.32","30.75","41.0","15.97","90164","30.44","DUALSPOT-UV-BLUE-GREEN-RED-IR","802907","727041","909022","6.759533","1.734979","0.026482","772265","911587","765234","4.852224","1.213174","0.029661","866787","912758","814071","4.028059","0.979435","-0.024337","858149","933425","864641","3.218901","0.761532","0.025518","730217","852926","951882","2.310640","0.564018","0.000000","1866","2169","2273","1407","1584","1643","1078","1005","982","1122","1198","1222","1402","1578","1402",""
"MA200-0416","23205","64","1","1.10","1.4","2023-05-11T14:51:30","120","2023/05/11","14:51:30","-15.784040212631226","35.00136249966454","2.8","14","30","64","62","-23737","4787","-7858","11","150","150.36","116.87","33.49","30.76","40.9","15.96","90024","30.44","DUALSPOT-UV-BLUE-GREEN-RED-IR","802510","726873","908887","6.791172","1.743015","-0.026621","772111","911571","765238","4.873789","1.217884","-0.095379","866570","912632","814012","4.046035","0.984412","-0.011672","858038","933406","864661","3.233375","0.764638","-0.151769","730445","853245","952241","2.318672","0.565549","0.000000","1590","1409","1346","1367","1042","933","1277","1233","1219","1242","930","833","960","638","960",""
"MA200-0416","23206","64","1","1.10","1.4","2023-05-11T14:52:00","120","2023/05/11","14:52:00","-15.783677875995636","35.00332333310507","3.9","14","30","64","61","-19624","11896","-12436","11","150","150.16","115.99","34.17","30.76","40.9","15.93","90012","30.44","DUALSPOT-UV-BLUE-GREEN-RED-IR","800390","725446","907330","6.873519","1.764244","-0.029383","770673","910246","764296","4.929739","1.233244","-0.020269","865132","911470","813036","4.090721","0.996703","-0.023493","857094","932593","864010","3.265189","0.773656","-0.015963","729693","852519","951502","2.339939","0.569167","0.000000","4169","3649","3469","3575","3332","3251","3198","2986","2918","2751","2647","2615","2561","1478","2561",""
"MA200-0416","23207","64","1","1.10","1.4","2023-05-11T14:52:30","120","2023/05/11","14:52:30","-15.782596170902252","35.001606333302334","4.2","15","30","64","62","-22684","8516","-6240","11","150","150.09","116.31","33.79","30.76","40.7","15.89","89912","30.44","DUALSPOT-UV-BLUE-GREEN-RED-IR","800049","725551","907678","6.955768","1.787296","-0.007138","770725","910666","764734","4.981804","1.246225","-0.046753","864823","911414","813094","4.134262","1.007080","-0.075291","856648","932353","863840","3.298528","0.781130","-0.129316","729288","852224","951183","2.362272","0.574157","0.000000","4153","4007","3957","3318","2848","2691","3108","2549","2370","2875","2219","2015","2682","2063","2682",""
"MA200-0416","23208","64","1","1.10","1.4","2023-05-11T14:53:00","120","2023/05/11","14:53:00","-15.78121942281723","34.99869132041931","13.2","15","30","64","61","-23238","7965","-5776","11","150","150.36","116.83","33.53","30.74","40.7","15.87","90004","30.44","DUALSPOT-UV-BLUE-GREEN-RED-IR","797350","723755","905723","7.071685","1.818418","-0.013471","768264","908283","762917","5.060303","1.266784","-0.026130","868275","915512","816899","4.196555","1.022988","-0.040683","853866","929697","861501","3.348077","0.793493","-0.061793","728058","850982","949878","2.396560","0.583138","0.000000","5827","5451","5320","4981","4545","4399","4426","3938","3781","4255","3698","3525","4100","3741","4100",""
"MA200-0416","23209","64","1","1.10","1.4","2023-05-11T14:53:30","120","2023/05/11","14:53:30","-15.777798354625702","34.998049676418304","10.6","15","30","64","61","-23064","6992","-6564","11","150","149.46","116.04","33.42","30.74","40.7","15.87","90276","30.44","DUALSPOT-UV-BLUE-GREEN-RED-IR","797416","724790","907455","7.207618","1.854705","-0.015135","768388","909213","763878","5.152273","1.288854","-0.055498","863542","911126","813136","4.270817","1.038676","-0.127235","855935","932449","864157","3.406230","0.806219","-0.134740","728802","852162","951322","2.434661","0.590312","0.000000","6880","6377","6203","5875","4895","4568","5313","3897","3442","5027","3820","3446","4586","2998","4586",""
"MA200-0416","23210","64","1","1.10","1.4","2023-05-11T14:54:00","120","2023/05/11","14:54:00","-15.775576055049896","34.99751174449921","14.9","15","30","64","61","-22344","7352","-9808","11","150","150.35","116.71","33.64","30.74","40.7","15.87","90352","30.44","DUALSPOT-UV-BLUE-GREEN-RED-IR","794470","723603","906630","7.545817","1.945743","-0.012970","766708","908675","763859","5.392337","1.352310","-0.023105","865964","914937","816924","4.471701","1.091707","-0.028030","853427","930721","862897","3.567535","0.847834","-0.044761","727557","851375","950678","2.546711","0.619658","0.000000","17020","15894","15503","15248","13982","13559","14290","13087","12698","13866","12410","11956","13411","12185","13411",""
"MA200-0416","23211","64","1","1.10","1.4","2023-05-11T14:54:30","120","2023/05/11","14:54:30","-15.773281812667847","34.996968269348145","5.6","15","30","64","61","-23677","8050","-3180","11","150","150.05","116.25","33.80","30.74","40.8","15.88","90484","30.38","DUALSPOT-UV-BLUE-GREEN-RED-IR","793223","722800","905762","7.600391","1.960575","-0.012710","765797","907872","763285","5.429953","1.361585","-0.046869","865532","914706","816814","4.500544","1.098686","-0.063432","853527","931024","863229","3.590740","0.853157","-0.106690","726994","850809","950053","2.560419","0.621042","0.000000","2757","2577","2514","2398","2034","1912","2059","1714","1602","2002","1579","1447","1647","571","1647",""
"MA200-0416","23212","64","1","1.10","1.4","2023-05-11T14:55:00","120","2023/05/11","14:55:00","-15.772259414196014","34.99759918451309","1.7","15","30","64","61","-23752","4280","-7775","11","150","149.51","115.67","33.83","30.74","40.8","15.90","90564","30.38","DUALSPOT-UV-BLUE-GREEN-RED-IR","792761","723322","906871","7.776540","2.009628","-0.008881","764610","907299","763069","5.556780","1.396972","-0.011797","865397","915286","817574","4.606492","1.128906","-0.007371","852313","930272","862742","3.673572","0.877165","-0.003269","727087","851308","950777","2.616844","0.636817","0.000000","8944","8515","8366","8128","7753","7628","7604","7415","7354","7184","7119","7099","6814","6513","6814",""
"MA200-0416","23213","64","1","1.10","1.4","2023-05-11T14:55:30","120","2023/05/11","14:55:30","-15.772096931934357","34.99798804521561","2.8","15","30","64","61","-23496","6284","-9276","11","150","150.29","116.63","33.67","30.74","40.9","15.94","90612","30.38","DUALSPOT-UV-BLUE-GREEN-RED-IR","788634","721025","904534","8.040022","2.068769","-0.053170","762600","906000","762238","5.712312","1.431137","-0.081981","862810","913342","815970","4.718358","1.152605","-0.115182","849213","927420","860240","3.749397","0.893605","-0.129495","729866","854893","954903","2.669920","0.648306","0.000000","13269","10318","9295","9886","7523","6733","7963","5844","5159","6522","4898","4390","6357","4767","6357",""
"MA200-0416","23214","64","1","1.10","1.4","2023-05-11T14:56:00","120","2023/05/11","14:56:00","-15.772645890712738","34.99871361255646","5.0","15","30","64","61","-23272","7100","-5584","11","150","149.76","115.51","34.25","30.74","40.9","15.94","90688","30.38","DUALSPOT-UV-BLUE-GREEN-RED-IR","789161","722479","906798","8.220466","2.113588","-0.034008","762822","906970","763266","5.811908","1.456863","-0.035724","864132","915208","817835","4.793102","1.171291","-0.054644","851678","930489","863203","3.803084","0.906229","-0.098081","726691","851376","951082","2.705934","0.657229","0.000000","9175","7686","7170","6391","5568","5292","5372","4529","4257","4662","3697","3396","4355","3639","4355",""
"MA200-0416","23215","64","1","1.10","1.4","2023-05-11T14:56:30","120","2023/05/11","14:56:30","-15.773353695869446","34.999474465847015","2.7","15","30","64","61","-23820","6000","-5337","11","150","149.76","116.31","33.45","30.74","41.0","15.98","90768","30.44","DUALSPOT-UV-BLUE-GREEN-RED-IR","788118","722633","907401","8.419893","2.161367","-0.034435","762830","907766","764119","5.925317","1.482545","-0.066832","862881","914578","817429","4.879230","1.190739","-0.081440","851203","930422","863266","3.865515","0.920605","-0.091724","726371","851342","951099","2.749374","0.667176","0.000000","10071","8388","7807","7228","5690","5177","6147","4826","4399","5385","4311","3975","5217","4153","5217",""
"MA200-0416","23216","64","1","1.10","1.4","2023-05-11T14:57:00","120","2023/05/11","14:57:00","-15.771554112434387","34.99980354309082","15.6","15","30","64","61","-23156","7311","-6708","11","150","149.40","116.00","33.40","30.74","41.0","15.98","90772","30.44","DUALSPOT-UV-BLUE-GREEN-RED-IR","788126","723381","908676","8.558061","2.197010","-0.019008","762900","908482","764894","6.014162","1.505481","-0.026585","858317","910152","813621","4.947973","1.207327","-0.055055","851364","930985","863913","3.918853","0.933218","-0.078191","726683","851945","951824","2.785261","0.675394","0.000000","6995","6268","6017","5677","5091","4895","4919","4123","3866","4613","3788","3531","4321","3437","4321",""
"MA200-0416","23217","64","1","1.10","1.4","2023-05-11T14:57:30","120","2023/05/11","14:57:30","-15.767223536968231","34.999862372875214","18.4","15","30","64","61","-23376","6220","-7904","11","150","150.09","115.91","34.18","30.74","41.0","15.98","90944","30.44","DUALSPOT-UV-BLUE-GREEN-RED-IR","780408","721042","908148","9.425056","2.442907","-0.005781","756619","905929","764335","6.720992","1.701475","-0.012941","852643","908438","813562","5.560041","1.374584","-0.019430","847936","930929","865097","4.423079","1.068962","-0.029352","723924","851165","951977","3.150573","0.772854","-0.045905","43933","42251","41663","45206","42504","41589","43840","40622","39565","43643","39840","38628","44027","39828","38464",""
"MA200-0416","23218","64","1","1.10","1.4","2023-05-11T14:58:00","120","2023/05/11","14:58:00","-15.764040291309357","34.99933886528015","14.8","15","30","64","61","-22300","7292","-7511","11","150","149.80","115.84","33.96","30.76","41.1","16.01","91068","30.44","DUALSPOT-UV-BLUE-GREEN-RED-IR","778962","720853","908448","9.695316","2.519201","-0.005456","755981","906072","764766","6.908611","1.752508","-0.015525","852674","909256","814494","5.714649","1.416116","-0.021939","847524","931086","865448","4.549063","1.102263","-0.032833","724093","851737","952745","3.240001","0.795666","-0.064252","13703","13194","13015","12007","11139","10844","11081","10152","9846","10911","9837","9493","10784","9382","8926",""
"MA200-0416","23219","64","1","1.10","1.4","2023-05-11T14:58:30","120","2023/05/11","14:58:30","-15.760589838027954","35.00068383326288","14.9","15","30","64","61","-22764","6828","-8156","11","150","150.03","116.03","34.00","30.77","41.2","16.06","91228","30.44","DUALSPOT-UV-BLUE-GREEN-RED-IR","777228","720831","909219","10.013227","2.609058","-0.005014","754154","905457","764750","7.150824","1.818048","-0.015988","850172","907955","813800","5.919355","1.470846","-0.022275","846208","930779","865511","4.715333","1.145279","-0.038778","722912","851086","952303","3.354515","0.823927","-0.078802","16092","15524","15323","15475","14291","13887","14647","13364","12941","14376","12694","12154","13786","11612","10904",""
"MA200-0416","23220","64","1","1.10","1.4","2023-05-11T14:59:00","120","2023/05/11","14:59:00","-15.757939338684082","35.001880333176814","13.3","15","30","64","61","-22636","8780","-5636","11","150","150.13","115.90","34.23","30.78","41.2","16.08","91348","30.44","DUALSPOT-UV-BLUE-GREEN-RED-IR","774910","719212","907405","10.117055","2.635240","-0.024353","752275","903713","763390","7.229503","1.836389","-0.054448","853476","911957","817476","5.986172","1.484775","-0.107324","843955","928687","863686","4.769663","1.156586","-0.133964","721864","850119","951293","3.392521","0.832050","-0.170305","5261","4492","4221","5032","3972","3611","4786","3378","2914","4703","3314","2869","4580","3314","2903",""
"MA200-0416","23221","64","1","1.10","1.4","2023-05-11T14:59:30","120","2023/05/11","14:59:30","-15.754379451274872","35.0024771662429","11.7","15","30","64","61","-22196","9660","-6840","11","150","150.09","116.03","34.06","30.78","41.2","16.08","91444","30.44","DUALSPOT-UV-BLUE-GREEN-RED-IR","767913","713193","900014","10.211294","2.661560","-0.006904","753414","905513","765059","7.295631","1.854276","-0.016153","849576","908122","814166","6.042225","1.500493","-0.010504","845725","930889","865819","4.812989","1.168263","-0.025241","722868","851442","952842","3.422840","0.839880","-0.055385","4770","4538","4456","4224","3892","3779","4010","3830","3771","3746","3438","3340","3650","3211","3068",""
"MA200-0416","23222","64","1","1.10","1.4","2023-05-11T15:00:00","120","2023/05/11","15:00:00","-15.751189947128296","35.003797666402534","14.7","15","30","64","61","-22964","7008","-7708","11","150","150.43","116.39","34.04","30.78","41.3","16.11","91516","30.44","DUALSPOT-UV-BLUE-GREEN-RED-IR","763662","713081","901852","10.859632","2.848253","-0.001954","749659","905000","765921","7.820330","2.000749","-0.008313","846086","907833","815089","6.488085","1.621728","-0.015912","842013","929747","865767","5.179594","1.266277","-0.024725","720694","850839","952989","3.688783","0.910331","-0.038723","32718","32217","32038","33420","31902","31380","31804","29572","28828","31601","28890","28013","31919","28914","27930",""
"MA200-0416","23223","64","1","1.10","1.4","2023-05-11T15:00:30","120","2023/05/11","15:00:30","-15.749525785446167","35.005886998958886","7.3","15","30","64","61","-23168","7636","-6608","11","150","149.63","115.31","34.32","30.79","41.3","16.13","91632","30.44","DUALSPOT-UV-BLUE-GREEN-RED-IR","761716","712709","902153","11.257570","2.963161","-0.003729","748152","904626","766089","8.132741","2.088434","-0.010188","844096","906965","814756","6.762564","1.697767","-0.015032","840619","929300","865724","5.405630","1.327365","-0.025641","719839","850558","952914","3.850916","0.951671","-0.060998","20269","19667","19452","20084","18942","18547","19761","18395","17938","19665","17859","17271","19641","16828","15905",""
"MA200-0416","23224","64","1","1.10","1.4","2023-05-11T15:01:00","120","2023/05/11","15:01:00","-15.748676538467407","35.00694966549054","2.8","15","30","64","61","-21804","9192","-6360","11","150","150.42","115.67","34.75","30.80","41.3","16.12","91620","30.50","DUALSPOT-UV-BLUE-GREEN-RED-IR","768091","719064","910341","11.324183","2.981786","-0.009182","747820","904582","766151","8.179257","2.101881","-0.006563","842971","906035","813979","6.797707","1.705890","-0.065454","840414","929315","865806","5.432937","1.333535","-0.090177","719389","850173","952524","3.867817","0.955464","-0.130905","3382","3147","3063","2981","2868","2829","2522","1940","1745","2368","1780","1589","2041","1524","1355",""
"MA200-0416","23225","64","1","1.10","1.4","2023-05-11T15:01:30","120","2023/05/11","15:01:30","-15.74853801727295","35.00648333225399","3.1","15","30","64","60","-22396","9496","-6447","11","150","147.77","115.75","32.02","30.80","41.2","16.10","91588","30.50","DUALSPOT-UV-BLUE-GREEN-RED-IR","765639","717086","908022","11.392620","3.001602","0.005239","746058","902719","764665","8.225219","2.112907","-0.026436","841524","904727","812863","6.835050","1.715535","-0.014206","837938","926764","863471","5.462879","1.340640","-0.042492","718011","848658","950863","3.888214","0.959017","-0.248486","3472","3635","3693","2943","2552","2417","2678","2500","2441","2595","2226","2106","2461","1550","1251",""
"MA200-0416","23226","64","1","1.10","1.4","2023-05-11T15:02:00","120","2023/05/11","15:02:00","-15.747770011425018","35.00639816513285","4.4","15","30","64","61","-22672","9180","-5624","11","150","150.16","116.27","33.89","30.80","41.1","16.07","91544","30.50","DUALSPOT-UV-BLUE-GREEN-RED-IR","760316","712436","902278","11.461006","3.019790","-0.011773","742966","899232","761800","8.268320","2.124214","-0.018808","842700","906224","814269","6.870289","1.722520","-0.108446","840460","929727","866282","5.488187","1.345652","-0.134423","719196","850186","952613","3.906353","0.962904","-0.138718","3454","3152","3043","2748","2473","2378","2516","1711","1441","2183","1483","1256","2179","1602","1413",""
"MA200-0416","23227","64","1","1.10","1.4","2023-05-11T15:02:30","120","2023/05/11","15:02:30","-15.747006356716156","35.00661199958995","3.2","15","30","64","60","-22670","9733","-5570","11","150","149.96","115.99","33.97","30.81","41.1","16.08","91492","30.50","DUALSPOT-UV-BLUE-GREEN-RED-IR","758254","710863","900476","11.530148","3.038257","-0.011778","745498","902599","764726","8.313920","2.134048","-0.066111","842516","906261","814390","6.904692","1.731390","-0.027563","838956","928220","864957","5.514655","1.351512","-0.086723","718873","849923","952353","3.923238","0.966938","-0.082642","3501","3192","3082","2914","2146","1880","2462","2167","2068","2289","1730","1548","2033","1658","1535",""
"MA200-0416","23228","64","1","1.10","1.4","2023-05-11T15:03:00","120","2023/05/11","15:03:00","-15.746151685714722","35.0067834998481","3.2","15","30","64","61","-22004","9464","-5520","11","150","149.46","116.38","33.09","30.82","41.1","16.08","91432","30.50","DUALSPOT-UV-BLUE-GREEN-RED-IR","759204","712105","902230","11.598099","3.056759","-0.005254","742652","899446","762153","8.358745","2.147377","0.006955","842261","906259","814455","6.939942","1.740879","-0.011000","840478","930103","866736","5.539078","1.358110","-0.012713","719376","850631","953179","3.940845","0.971560","-0.028690","3429","3284","3232","2855","2986","3031","2514","2381","2336","2105","2000","1966","2113","1951","1898",""
"MA200-0416","23229","64","1","1.10","1.4","2023-05-11T15:03:30","120","2023/05/11","15:03:30","-15.746006667613983","35.00641833245754","3.5","15","30","64","61","-22408","7320","-9616","11","150","149.59","116.04","33.55","30.83","41.1","16.09","91448","30.56","DUALSPOT-UV-BLUE-GREEN-RED-IR","759263","712669","903148","11.693266","3.082042","-0.010566","742337","899510","762318","8.418634","2.162237","-0.027981","842427","906709","814933","6.985826","1.751404","-0.054449","840355","930222","866891","5.573381","1.365447","-0.094311","719679","851108","953738","3.960697","0.976009","-0.107326","4816","4426","4287","3825","3283","3096","3282","2604","2378","2965","2194","1943","2389","1852","1676",""
"MA200-0416","23230","64","1","1.10","1.4","2023-05-11T15:04:00","120","2023/05/11","15:04:00","-15.746464371681213","35.00536316540092","3.2","15","30","64","60","-23436","7336","-5320","11","150","149.94","116.00","33.93","30.84","41.0","16.07","91476","30.56","DUALSPOT-UV-BLUE-GREEN-RED-IR","758878","712560","903126","11.745642","3.097950","0.004200","742219","899532","762422","8.452058","2.172380","0.005670","842372","906842","815105","7.013244","1.758700","-0.019569","833734","923024","860217","5.593169","1.370382","-0.043387","719714","851210","953947","3.974018","0.978320","-0.295332","2651","2753","2789","2135","2215","2243","1962","1784","1725","1711","1459","1377","1604","951","738",""
"MA200-0416","23231","64","1","1.10","1.4","2023-05-11T15:04:30","120","2023/05/11","15:04:30","-15.74654495716095","35.004562832880765","2.9","15","30","64","60","-21768","6704","-10884","11","150","149.96","115.95","34.01","30.85","41.0","16.08","91492","30.56","DUALSPOT-UV-BLUE-GREEN-RED-IR","759944","713835","904916","11.798655","3.113845","0.002486","742788","900452","763250","8.486032","2.179557","-0.071142","843324","908050","816268","7.039357","1.763928","-0.104394","833735","923183","860401","5.613231","1.374156","-0.161253","720109","851796","954591","3.987745","0.981351","-0.122235","2685","2745","2766","2172","1564","1354","1869","1276","1077","1735","1113","911","1653","1245","1111",""
"MA200-0416","23232","64","1","1.10","1.4","2023-05-11T15:05:00","120","2023/05/11","15:05:00","-15.747061967849731","35.004035332705826","2.0","15","30","64","60","-23488","5964","-7872","11","150","150.01","116.04","33.96","30.86","41.0","16.09","91524","30.56","DUALSPOT-UV-BLUE-GREEN-RED-IR","758912","713133","904159","11.852789","3.128034","-0.013950","742476","900329","763213","8.522099","2.189333","-0.012972","842261","907075","815458","7.068784","1.771551","-0.025621","834016","923652","860909","5.635303","1.379680","-0.042064","719679","851380","954204","4.004327","0.986055","-0.010654","2740","2453","2351","2304","2133","2074","2105","1863","1782","1908","1632","1542","1996","1934","1914",""
"MA200-0416","23233","64","1","1.10","1.4","2023-05-11T15:05:30","120","2023/05/11","15:05:30","-15.747319519519806","35.00347316614352","2.1","15","30","64","60","-20944","6440","-11396","11","150","149.45","115.55","33.89","30.86","41.1","16.13","91552","30.56","DUALSPOT-UV-BLUE-GREEN-RED-IR","759706","714170","905597","11.905249","3.143407","-0.000100","742841","901032","763866","8.558156","2.198595","-0.023446","843256","908383","816663","7.096202","1.777958","-0.052423","834430","924247","861507","5.655485","1.383418","-0.168515","720265","852178","955102","4.016832","0.988740","-0.137147","2666","2664","2663","2313","2025","1926","1969","1569","1435","1752","1106","897","1511","1106","974",""
"MA200-0416","23234","64","1","1.10","1.4","2023-05-11T15:06:00","120","2023/05/11","15:06:00","-15.74752390384674","35.00293616624549","2.3","15","30","64","61","-23840","5548","-8928","11","150","150.05","115.90","34.14","30.87","41.2","16.15","91624","30.63","DUALSPOT-UV-BLUE-GREEN-RED-IR","758870","713710","905207","11.969549","3.164331","0.010401","742407","900775","763765","8.599462","2.210546","-0.002858","842474","907783","816202","7.130110","1.787591","-0.007027","834004","923958","861281","5.679868","1.389241","-0.058882","719825","851762","954657","4.033617","0.993095","-0.046634","3258","3599","3721","2641","2594","2578","2428","2342","2313","2110","1711","1581","2022","1781","1702",""
"MA200-0416","23235","64","1","1.10","1.4","2023-05-11T15:06:30","120","2023/05/11","15:06:30","-15.74705970287323","35.002548832912","2.6","15","30","64","60","-23292","5980","-6488","11","150","149.45","115.59","33.85","30.89","41.1","16.15","91684","30.63","DUALSPOT-UV-BLUE-GREEN-RED-IR","758812","714036","905807","12.049414","3.185562","-0.011905","741975","900613","763702","8.655139","2.225536","-0.014082","842987","908606","817046","7.175232","1.799368","-0.023648","835106","925418","862699","5.714491","1.398390","-0.025980","715945","847297","949697","4.055265","0.998680","-0.046289","4058","3683","3549","3570","3282","3182","3240","2888","2770","3005","2711","2616","2616","2304","2202",""
"MA200-0416","23236","64","1","1.10","1.4","2023-05-11T15:07:00","120","2023/05/11","15:07:00","-15.746818900108337","35.00244449963793","0.1","16","30","64","60","-21144","10300","-9000","11","150","150.69","115.75","34.94","30.90","41.3","16.22","91696","30.63","DUALSPOT-UV-BLUE-GREEN-RED-IR","758734","714273","906247","12.106445","3.199930","-0.023942","742501","901527","764562","8.691477","2.232147","-0.132122","842106","907809","816372","7.199807","1.802754","-0.366427","834400","924734","862101","5.732274","1.401436","-0.233724","720067","852263","955296","4.068721","1.000844","-0.399878","2893","2415","2243","2327","1402","1083","1762","804","484","1541","874","658","1623","865","618",""
"MA200-0416","23237","64","1","1.10","1.4","2023-05-11T15:07:30","120","2023/05/11","15:07:30","-15.747346997261047","35.002567999763414","2.3","16","30","64","60","-21670","8945","-7962","11","150","150.58","116.11","34.46","30.91","41.6","16.33","91660","30.63","DUALSPOT-UV-BLUE-GREEN-RED-IR","756946","712821","904506","12.155451","3.213356","-0.009617","741170","900041","763364","8.719257","2.238596","-0.047582","840937","906729","815434","7.222629","1.807988","-0.060281","832925","923245","860738","5.749568","1.404017","-0.334333","719062","851140","954045","4.076830","1.002021","-0.515379","2478","2288","2219","1773","1387","1253","1631","1260","1136","1494","751","511","975","477","314",""
"MA200-0416","23238","64","1","1.10","1.4","2023-05-11T15:08:00","120","2023/05/11","15:08:00","-15.747512578964233","35.00295549980365","1.9","16","30","64","60","-20042","12326","-5069","11","150","149.70","116.03","33.67","30.92","41.6","16.38","91612","30.69","DUALSPOT-UV-BLUE-GREEN-RED-IR","759245","715394","908022","12.229033","3.236034","0.006377","742756","902348","765416","8.767300","2.252597","0.000679","842939","909166","817719","7.261598","1.818948","-0.005875","835302","926108","863468","5.779360","1.412004","-0.019353","716224","847905","950489","4.097726","1.006737","-0.101926","3724","3956","4039","3069","3083","3087","2788","2702","2674","2575","2380","2316","2515","1956","1774",""
"MA200-0416","23239","64","1","1.10","1.4","2023-05-11T15:08:30","120","2023/05/11","15:08:30","-15.747313559055328","35.00355766620487","3.2","16","30","64","60","-22966","7562","-4145","11","150","150.29","116.07","34.22","30.94","41.6","16.39","91540","30.69","DUALSPOT-UV-BLUE-GREEN-RED-IR","759039","715541","908363","12.299734","3.256584","-0.001602","743057","903010","766078","8.813755","2.264988","-0.016716","837795","903835","812983","7.298047","1.828146","-0.032633","835798","926826","864206","5.805067","1.418006","-0.065486","716270","848059","950682","4.115793","1.011628","-0.029602","3577","3526","3508","2967","2683","2586","2607","2231","2105","2222","1759","1610","2174","1996","1938",""
"MA200-0416","23240","64","1","1.10","1.4","2023-05-11T15:09:00","120","2023/05/11","15:09:00","-15.74706882238388","35.00404049921781","1.7","16","30","64","60","-23350","9216","-3925","11","150","150.03","116.19","33.84","30.95","41.7","16.42","91516","30.69","DUALSPOT-UV-BLUE-GREEN-RED-IR","752121","709332","900625","12.356382","3.272989","-0.000625","738435","897628","761559","8.847163","2.272398","-0.053389","838256","904524","813649","7.323444","1.833581","-0.074703","835908","927097","864448","5.824877","1.422280","-0.089595","716329","848239","950910","4.128835","1.014850","-0.060949","2863","2847","2841","2131","1623","1447","1814","1333","1173","1710","1267","1123","1568","1330","1252",""
"MA200-0416","23241","64","1","1.10","1.4","2023-05-11T15:09:30","120","2023/05/11","15:09:30","-15.746562957763672","35.00454199966043","2.6","16","30","64","60","-23275","8087","-2787","11","150","150.16","116.31","33.85","30.97","41.6","16.43","91488","30.75","DUALSPOT-UV-BLUE-GREEN-RED-IR","758640","715669","908850","12.405493","3.288187","0.006389","742667","902921","766142","8.878012","2.280378","-0.019816","838125","904547","813696","7.347460","1.838368","-0.098702","837114","928548","865866","5.841138","1.424491","-0.408488","716644","848685","951435","4.139957","1.015811","-3.290464","2480","2636","2693","1966","1747","1672","1714","1173","993","1402","655","414","1335","396","91",""
"MA200-0416","23242","64","1","1.10","1.4","2023-05-11T15:10:00","120","2023/05/11","15:10:00","-15.746297538280487","35.00565049843863","6.4","16","30","64","60","-22800","7392","-5932","11","150","150.30","116.09","34.21","30.99","41.5","16.39","91464","30.75","DUALSPOT-UV-BLUE-GREEN-RED-IR","758270","715561","908832","12.454956","3.303644","0.006116","737432","896774","760984","8.907494","2.289522","0.007428","841872","908761","817561","7.369924","1.845049","0.001680","835138","926495","863969","5.857723","1.428467","-0.055857","715677","847607","950261","4.153064","1.019876","0.015649","2502","2654","2708","1882","1981","2015","1606","1621","1626","1433","1166","1079","1577","1659","1686",""
"MA200-0416","23243","64","1","1.10","1.4","2023-05-11T15:10:30","120","2023/05/11","15:10:30","-15.745923817157745","35.00658733258024","3.2","16","30","64","60","-22056","8760","-6304","11","150","149.62","115.99","33.63","31.01","41.3","16.34","91428","30.81","DUALSPOT-UV-BLUE-GREEN-RED-IR","752602","710876","903179","12.519138","3.321567","-0.004232","738380","898403","762468","8.945535","2.300054","-0.007242","838476","905430","814647","7.396782","1.851511","-0.039763","830913","922009","859861","5.877593","1.432055","-0.169289","717321","849699","952654","4.166332","1.022908","-0.093784","3250","3130","3086","2431","2321","2283","1922","1594","1485","1718","1070","861","1597","1259","1149",""
"MA200-0416","23244","64","1","1.10","1.4","2023-05-11T15:11:00","120","2023/05/11","15:11:00","-15.745638012886047","35.00638866564259","4.0","16","30","64","60","-23189","7289","-6078","11","150","150.09","116.11","33.98","31.04","41.2","16.32","91428","30.75","DUALSPOT-UV-BLUE-GREEN-RED-IR","750387","709321","901395","12.674774","3.358766","-0.026231","737168","897290","761632","9.033607","2.320432","-0.043454","837307","904467","813867","7.458992","1.866406","-0.042955","835791","927607","865104","5.913825","1.441723","-0.022372","715859","848085","950909","4.190490","1.029846","-0.006103","7873","6429","5908","5623","4445","4038","4448","3638","3368","3130","2854","2764","2906","2851","2834",""
"MA200-0416","23245","64","1","1.10","1.4","2023-05-11T15:11:30","120","2023/05/11","15:11:30","-15.745464324951172","35.00542549882084","1.8","17","30","64","60","-24760","5800","-5060","11","150","150.23","116.23","34.00","31.05","41.1","16.28","91508","30.81","DUALSPOT-UV-BLUE-GREEN-RED-IR","752427","711648","904515","12.750492","3.377662","-0.019573","738474","899197","763333","9.078264","2.330732","-0.043808","838308","905738","815082","7.491833","1.872891","-0.102031","831484","922991","860852","5.935890","1.444680","-0.425242","717519","850142","953226","4.205309","1.032544","-0.238186","3826","3264","3062","2848","2245","2037","2345","1583","1329","1904","872","540","1780","1108","889",""
"MA200-0416","23246","64","1","1.10","1.4","2023-05-11T15:12:00","120","2023/05/11","15:12:00","-15.745361864566803","35.0045398324728","3.4","17","30","64","60","-22444","6947","-6504","11","150","150.36","116.19","34.17","31.07","41.0","16.28","91568","30.81","DUALSPOT-UV-BLUE-GREEN-RED-IR","752908","712354","905537","12.798950","3.390096","-0.016391","739085","900156","764196","9.107865","2.336418","-0.096021","838335","905952","815295","7.514269","1.876896","-0.146342","831054","922666","860560","5.953120","1.448614","-0.070484","717337","849984","953087","4.216886","1.034269","-0.447469","2449","2137","2024","1888","1233","1007","1603","973","763","1487","1155","1048","1391","705","482",""
"MA200-0416","23247","64","1","1.10","1.4","2023-05-11T15:12:30","120","2023/05/11","15:12:30","-15.744958698749542","35.00372133287601","3.4","17","30","64","59","-23312","6270","-7508","11","150","149.56","115.63","33.93","31.08","41.0","16.28","91604","30.81","DUALSPOT-UV-BLUE-GREEN-RED-IR","750740","710598","903464","12.856382","3.408813","0.010175","737478","898409","762817","9.143012","2.348196","0.017546","836864","904534","814087","7.539935","1.884025","-0.010178","829257","920770","858849","5.971280","1.452649","-0.079110","716095","848603","951560","4.228119","1.037356","-0.021695","2917","3240","3356","2253","2573","2683","1842","1744","1711","1575","1193","1070","1357","1270","1243",""
"MA200-0416","23248","64","1","1.10","1.4","2023-05-11T15:13:00","120","2023/05/11","15:13:00","-15.744840681552887","35.0030929998029","2.5","17","30","64","60","-21712","8448","-7492","11","150","149.54","115.79","33.75","31.10","40.9","16.25","91612","30.81","DUALSPOT-UV-BLUE-GREEN-RED-IR","752149","712426","906064","12.951832","3.436494","-0.000546","739042","900740","764896","9.201066","2.362859","-0.023804","838237","906361","815811","7.586241","1.895154","-0.040290","830977","922978","860943","6.005200","1.458299","-0.217184","717393","850348","953537","4.252052","1.041620","-0.249752","4841","4816","4807","3716","3220","3049","3320","2737","2543","2939","1679","1275","2887","1764","1400",""
"MA200-0416","23249","64","1","1.10","1.4","2023-05-11T15:13:30","120","2023/05/11","15:13:30","-15.744715332984924","35.00264349975623","0.6","17","30","64","59","-21628","10804","-6276","11","150","149.32","115.70","33.62","31.11","40.8","16.24","91632","30.88","DUALSPOT-UV-BLUE-GREEN-RED-IR","752073","712838","906835","13.049732","3.464561","-0.001418","738545","900554","764851","9.264053","2.378809","-0.022574","838422","906896","816373","7.635398","1.906901","-0.040595","831061","923315","861351","6.044914","1.468432","-0.031748","717307","850369","953620","4.277155","1.048639","-0.012284","4969","4903","4879","4035","3517","3337","3527","2901","2692","3443","3023","2889","3030","2916","2879",""
"MA200-0416","23250","64","1","1.10","1.4","2023-05-11T15:14:00","120","2023/05/11","15:14:00","-15.744822800159454","35.00297416630201","3.4","17","30","64","59","-22808","9580","-4456","11","150","149.99","116.02","33.97","31.13","40.9","16.27","91608","30.88","DUALSPOT-UV-BLUE-GREEN-RED-IR","749192","710622","904273","13.144405","3.493253","0.003477","736375","898323","763100","9.324340","2.395565","-0.007845","836611","905281","815011","7.682372","1.918256","-0.039394","830095","922514","860705","6.077747","1.476795","-0.034117","716480","849569","952789","4.299850","1.053838","-0.094120","4792","4961","5022","3852","3657","3589","3361","2775","2580","2839","2470","2351","2732","2138","1945",""
"MA200-0416","23251","64","1","1.10","1.4","2023-05-11T15:14:30","120","2023/05/11","15:14:30","-15.744965195655823","35.003694999730214","5.3","17","30","64","60","-22244","9560","-6768","11","150","150.30","115.94","34.36","31.14","40.8","16.27","91608","30.88","DUALSPOT-UV-BLUE-GREEN-RED-IR","751097","713041","907716","13.251078","3.525325","0.001467","738034","900871","765419","9.392448","2.413421","-0.019556","838220","907442","817109","7.735450","1.932269","-0.022015","832321","925372","863437","6.119839","1.486248","-0.076832","718191","851827","955394","4.327045","1.060043","-0.101315","5403","5482","5511","4354","3852","3679","3800","3385","3247","3642","2760","2477","3276","2522","2277",""
"MA200-0416","23252","64","1","1.10","1.4","2023-05-11T15:15:00","120","2023/05/11","15:15:00","-15.745401799678802","35.00464599998668","4.3","17","30","64","60","-22652","8460","-5176","11","150","150.43","116.31","34.12","31.16","40.8","16.27","91564","30.94","DUALSPOT-UV-BLUE-GREEN-RED-IR","750932","713206","908034","13.336754","3.549711","-0.003158","738470","901630","766138","9.444686","2.427291","-0.015481","837564","906933","816706","7.779319","1.941884","-0.065306","832205","925366","863484","6.152647","1.491916","-0.192773","717810","851460","954997","4.351921","1.065684","-0.098706","4326","4198","4151","3329","3013","2904","3131","2339","2076","2829","1666","1294","2987","2309","2089",""
"MA200-0416","23253","64","1","1.10","1.4","2023-05-11T15:15:30","120","2023/05/11","15:15:30","-15.745464861392975","35.00561249861494","3.4","17","30","64","59","-21624","11608","-5416","11","150","149.39","116.35","33.04","31.18","40.8","16.27","91488","30.94","DUALSPOT-UV-BLUE-GREEN-RED-IR","749588","712167","906879","13.387230","3.564346","0.002088","731979","893910","759631","9.475881","2.434736","-0.028858","836552","906012","815921","7.803590","1.947301","-0.051075","830746","923884","862145","6.171289","1.497125","-0.003459","716773","850333","953775","4.364053","1.067785","-0.244829","2548","2601","2621","1987","1670","1560","1731","1361","1238","1607","1582","1573","1456","888","704",""
"MA200-0416","23254","64","1","1.10","1.4","2023-05-11T15:16:00","120","2023/05/11","15:16:00","-15.745724618434906","35.00673016626388","2.9","17","30","64","59","-23744","7240","-3823","11","150","149.90","116.55","33.35","31.20","40.6","16.24","91420","30.94","DUALSPOT-UV-BLUE-GREEN-RED-IR","751171","714034","909451","13.463444","3.587041","0.003906","733470","896009","761538","9.521305","2.449066","0.012735","833261","902612","812905","7.835002","1.956176","-0.002178","833239","926773","864895","6.192890","1.502865","-0.016792","713525","846563","949596","4.378874","1.071154","-0.085320","3840","3997","4054","2889","3185","3288","2237","2209","2200","1859","1726","1684","1776","1411","1293",""
"MA200-0416","23255","64","1","1.10","1.4","2023-05-11T15:16:30","120","2023/05/11","15:16:30","-15.745648324489594","35.00737233273685","2.4","17","30","64","59","-22044","9060","-7200","11","150","149.87","115.92","33.95","31.21","40.6","16.22","91396","30.94","DUALSPOT-UV-BLUE-GREEN-RED-IR","750547","713917","909530","13.535023","3.607023","-0.005039","733796","896812","762278","9.565907","2.459943","-0.030380","836920","906911","816898","7.869733","1.965766","-0.010485","832413","926079","864277","6.215722","1.507813","-0.084156","717517","851432","955076","4.395069","1.075111","-0.063974","3626","3457","3395","2852","2375","2210","2487","2345","2297","1976","1462","1297","1951","1628","1523",""
"MA200-0416","23256","64","1","1.10","1.4","2023-05-11T15:17:00","120","2023/05/11","15:17:00","-15.745436072349548","35.00821016635746","2.2","17","30","64","59","-21991","9804","-7062","11","150","150.69","116.19","34.50","31.23","40.5","16.23","91376","30.94","DUALSPOT-UV-BLUE-GREEN-RED-IR","743824","707953","902130","13.629604","3.633798","-0.004978","733681","896989","762584","9.624505","2.475607","-0.016123","833362","903331","813713","7.914139","1.975494","-0.067883","832661","926569","864773","6.247249","1.513392","-0.182842","713368","846624","949768","4.416527","1.079685","-0.134940","4781","4558","4477","3738","3365","3236","3172","2340","2064","2722","1622","1270","2579","1852","1616",""
"MA200-0416","23257","64","1","1.10","1.4","2023-05-11T15:17:30","120","2023/05/11","15:17:30","-15.74523013830185","35.00893833208829","1.6","18","30","64","59","-23120","9188","-4500","11","150","149.76","116.27","33.49","31.24","40.6","16.28","91360","31.00","DUALSPOT-UV-BLUE-GREEN-RED-IR","743108","707734","902083","13.715050","3.657011","-0.006143","732940","896474","762227","9.677682","2.487569","-0.043214","832905","903126","813625","7.955379","1.985669","-0.029741","833508","927723","865924","6.277536","1.520461","-0.053230","713761","847217","950440","4.435203","1.084659","-0.025022","4316","4070","3981","3390","2647","2390","2944","2522","2381","2613","2117","1958","2243","2074","2019",""
"MA200-0416","23258","64","1","1.10","1.4","2023-05-11T15:18:00","120","2023/05/11","15:18:00","-15.745121598243713","35.009395497851074","1.4","18","30","64","59","-21684","9356","-9012","11","150","149.96","116.15","33.81","31.26","40.8","16.35","91348","31.00","DUALSPOT-UV-BLUE-GREEN-RED-IR","740604","707491","903056","14.109882","3.781528","0.007243","731970","897124","763392","9.920194","2.554649","-0.007253","830910","902489","813521","8.145821","2.033710","-0.026557","832107","927410","866035","6.425559","1.555776","-0.048633","717218","852067","956168","4.531631","1.107518","-0.071900","19966","21630","22239","15478","14707","14439","13612","11796","11191","12785","10478","9741","11597","9443","8747",""
"MA200-0416","23259","64","1","1.10","1.4","2023-05-11T15:18:30","120","2023/05/11","15:18:30","-15.745013535022736","35.00969866476953","1.2","18","30","64","59","-22920","8208","-6860","11","150","150.16","116.11","34.05","31.28","40.9","16.44","91332","31.06","DUALSPOT-UV-BLUE-GREEN-RED-IR","738272","706298","902073","14.365274","3.857668","0.001544","729757","895355","762188","10.105900","2.605743","-0.008990","830185","902498","813825","8.302874","2.076882","-0.010979","831157","927046","865876","6.550428","1.587862","-0.029824","712271","846622","950181","4.615209","1.127236","-0.075614","12919","13133","13212","11856","11123","10869","11229","10526","10291","10789","9453","9026","10055","8089","7454",""
"MA200-0416","23260","64","1","1.10","1.4","2023-05-11T15:19:00","120","2023/05/11","15:19:00","-15.744893312454224","35.0101398313418","1.5","18","30","64","59","-22212","9128","-5744","11","150","149.38","116.14","33.24","31.30","41.1","16.50","91304","31.06","DUALSPOT-UV-BLUE-GREEN-RED-IR","740433","708814","905521","14.468519","3.888059","0.002599","731444","897827","764445","10.175702","2.625787","0.000447","830983","903722","814997","8.360119","2.091020","-0.026739","826177","921754","861023","6.595987","1.598948","-0.037338","713375","848113","951938","4.647890","1.134368","-0.098496","5221","5370","5425","4455","4470","4475","4092","3531","3344","3935","3346","3157","3930","2997","2696",""
"MA200-0416","23261","64","1","1.10","1.4","2023-05-11T15:19:30","120","2023/05/11","15:19:30","-15.744795024394989","35.01050983089954","0.5","18","30","64","59","-22225","8695","-7904","11","150","149.76","116.19","33.57","31.34","41.2","16.56","91292","31.13","DUALSPOT-UV-BLUE-GREEN-RED-IR","741004","709566","906642","14.514025","3.902631","0.008882","732517","899368","765807","10.206117","2.633358","-0.022512","831289","904167","815477","8.384884","2.097148","-0.028292","826336","922050","861352","6.615382","1.602334","-0.165378","713817","848705","952626","4.661108","1.137659","-0.048158","2300","2549","2640","1940","1671","1577","1769","1515","1430","1674","1011","799","1589","1368","1297",""
"MA200-0416","23262","64","1","1.10","1.4","2023-05-11T15:20:00","120","2023/05/11","15:20:00","-15.744682013988495","35.010896664112806","0.8","18","30","64","59","-22688","7768","-6528","11","150","149.83","116.15","33.68","31.36","41.1","16.55","91272","31.13","DUALSPOT-UV-BLUE-GREEN-RED-IR","739161","708041","904822","14.565624","3.919324","0.009380","731213","897954","764668","10.237388","2.642738","0.004338","830339","903301","814726","8.409042","2.103293","-0.023268","824873","920553","859991","6.633638","1.607036","-0.026052","712704","847475","951272","4.673929","1.141004","-0.032673","2609","2911","3022","1995","2064","2088","1726","1514","1444","1576","1400","1344","1542","1387","1337",""
"MA200-0416","23263","64","1","1.10","1.4","2023-05-11T15:20:30","120","2023/05/11","15:20:30","-15.744406819343567","35.01143649686128","2.3","18","30","64","59","-23170","8483","-4491","11","150","150.08","115.92","34.16","31.38","40.9","16.51","91236","31.19","DUALSPOT-UV-BLUE-GREEN-RED-IR","741899","710889","908598","14.610228","3.933267","0.005262","727339","893351","760833","10.266162","2.652044","0.011325","831750","905018","816338","8.430994","2.108705","-0.033024","827921","924104","863299","6.649571","1.610088","-0.129048","714546","849763","953894","4.687937","1.144859","-0.020437","2260","2397","2448","1840","2019","2082","1572","1315","1229","1379","896","742","1688","1576","1540",""
"MA200-0416","23264","64","1","1.10","1.4","2023-05-11T15:21:00","120","2023/05/11","15:21:00","-15.744033217430115","35.011935498565435","1.2","18","30","64","59","-23728","7579","-4816","11","150","150.28","116.63","33.66","31.41","40.7","16.48","91208","31.19","DUALSPOT-UV-BLUE-GREEN-RED-IR","742170","711495","909522","14.676435","3.952234","-0.000688","727249","893523","761053","10.308654","2.661335","-0.047067","832066","905574","816905","8.462918","2.115887","-0.049181","828935","925406","864578","6.673726","1.614475","-0.143352","714756","850127","954308","4.703659","1.147187","-0.384562","3334","3310","3301","2700","2046","1818","2272","1771","1604","2077","1307","1061","1883","966","670",""
"MA200-0416","23265","64","1","1.10","1.4","2023-05-11T15:21:30","120","2023/05/11","15:21:30","-15.74382084608078","35.01236449740827","1.9","18","30","64","59","-22196","9008","-5492","11","150","148.99","115.56","33.43","31.43","40.6","16.45","91196","31.19","DUALSPOT-UV-BLUE-GREEN-RED-IR","739989","709909","907723","14.769066","3.975187","-0.016522","726250","892683","760415","10.362021","2.673584","-0.037219","830374","904051","815582","8.502598","2.123392","-0.100743","826536","922926","862288","6.700536","1.618988","-0.183408","713215","848431","952430","4.723934","1.151857","-0.078047","4707","4033","3784","3423","2716","2470","2850","1863","1535","2327","1354","1044","2450","1951","1790",""
"MA200-0416","23266","64","1","1.10","1.4","2023-05-11T15:22:00","120","2023/05/11","15:22:00","-15.743688523769379","35.01302416436374","2.0","18","30","64","59","-23308","7940","-6692","11","150","150.16","115.91","34.25","31.46","40.5","16.43","91172","31.25","DUALSPOT-UV-BLUE-GREEN-RED-IR","735049","705562","902340","14.831825","3.993343","-0.001988","727905","895059","762520","10.401531","2.684814","-0.005193","832035","906076","817493","8.533932","2.130961","-0.037651","828846","925702","864954","6.722775","1.623839","-0.078343","714960","850597","954910","4.737911","1.153810","-0.484965","3180","3113","3089","2526","2430","2397","2244","1834","1698","1924","1421","1260","1684","796","510",""
"MA200-0416","23267","64","1","1.10","1.4","2023-05-11T15:22:30","120","2023/05/11","15:22:30","-15.743587493896484","35.01363633200526","2.0","18","30","64","59","-22728","7936","-6752","11","150","150.03","116.43","33.60","31.49","40.3","16.38","91152","31.25","DUALSPOT-UV-BLUE-GREEN-RED-IR","734454","705555","902611","14.952133","4.024646","-0.010406","727552","895060","762666","10.476688","2.703071","-0.025879","827408","901420","813397","8.593822","2.144771","-0.042565","829155","926351","865620","6.766457","1.632708","-0.094781","714988","850870","955281","4.772022","1.160649","-0.141699","6069","5472","5252","4785","4028","3764","4270","3412","3126","3764","2648","2293","4092","2843","2441",""
"MA200-0416","23268","64","1","1.10","1.4","2023-05-11T15:23:00","120","2023/05/11","15:23:00","-15.74360865354538","35.01425816398114","2.1","18","30","64","59","-23737","7295","-6850","11","150","150.09","116.51","33.59","31.51","40.2","16.35","91180","31.25","DUALSPOT-UV-BLUE-GREEN-RED-IR","734517","706359","903977","15.091768","4.061939","-0.007417","727481","895637","763353","10.567797","2.725446","-0.023590","831876","906826","818407","8.663345","2.162188","-0.024407","829476","927115","866443","6.818951","1.645112","-0.045732","714865","850996","955474","4.807609","1.169631","-0.040966","7039","6521","6330","5797","4938","4640","4954","4305","4089","4520","3705","3445","4266","3735","3564",""
"MA200-0416","23269","64","1","1.10","1.4","2023-05-11T15:23:30","120","2023/05/11","15:23:30","-15.743468403816223","35.01473899837583","5.4","18","30","64","59","-22884","7615","-7404","11","150","150.23","116.79","33.44","31.53","40.0","16.30","91180","31.25","DUALSPOT-UV-BLUE-GREEN-RED-IR","732525","705354","903124","15.243484","4.103532","-0.004057","726146","894852","762952","10.684641","2.757818","-0.004281","826386","901588","813910","8.761497","2.186494","-0.025069","822013","919460","859454","6.899779","1.663827","-0.048862","714543","851048","955734","4.868303","1.183939","-0.062548","7630","7305","7185","7416","7176","7092","6977","6034","5720","6943","5615","5192","7259","5977","5565",""
"MA200-0416","23270","64","1","1.10","1.4","2023-05-11T15:24:00","120","2023/05/11","15:24:00","-15.74348908662796","35.01563782989979","5.2","18","30","64","59","-23036","7908","-5444","11","150","149.70","116.03","33.67","31.55","39.9","16.25","91172","31.31","DUALSPOT-UV-BLUE-GREEN-RED-IR","732710","706247","904671","15.408133","4.150760","-0.001032","726431","895908","764053","10.804492","2.788866","-0.015633","825378","901077","813636","8.864677","2.213186","-0.019064","821319","919144","859357","6.982955","1.684320","-0.035552","713986","850727","955433","4.929674","1.197713","-0.086602","8334","8239","8204","7657","6836","6550","7382","6582","6315","7191","6106","5761","7388","5715","5178",""
"MA200-0416","23271","64","1","1.10","1.4","2023-05-11T15:24:30","120","2023/05/11","15:24:30","-15.743945181369781","35.01627749763429","0.3","18","30","64","58","-23152","5904","-8160","11","150","149.76","116.51","33.26","31.57","39.7","16.22","91172","31.31","DUALSPOT-UV-BLUE-GREEN-RED-IR","731384","705859","904568","15.586403","4.201298","-0.000607","725542","895553","763980","10.925241","2.820772","-0.010188","825924","902356","814993","8.962590","2.236467","-0.031933","821481","919855","860130","7.057925","1.700753","-0.062400","709898","846182","950463","4.980844","1.208641","-0.100044","8987","8925","8903","7683","7112","6913","6977","5812","5424","6455","4957","4481","6135","4590","4094",""
"MA200-0416","23272","64","1","1.10","1.4","2023-05-11T15:25:00","120","2023/05/11","15:25:00","-15.744208693504333","35.016640996560454","0.5","17","30","64","59","-22244","9260","-7084","11","150","150.01","116.38","33.62","31.58","39.6","16.18","91160","31.31","DUALSPOT-UV-BLUE-GREEN-RED-IR","731949","706680","905830","15.649179","4.218521","-0.004726","726047","896475","764823","10.968390","2.831220","-0.025430","825699","902335","815025","8.997691","2.244538","-0.041506","821620","920209","860499","7.085499","1.705802","-0.131528","709947","846384","950695","5.000589","1.211906","-0.258999","3168","3008","2949","2748","2303","2149","2503","1992","1823","2376","1506","1230","2369","1356","1032",""
"MA200-0416","23273","64","1","1.10","1.4","2023-05-11T15:25:30","120","2023/05/11","15:25:30","-15.744577527046204","35.01716733165085","2.5","17","30","64","59","-22242","7884","-6688","11","150","149.51","116.47","33.04","31.60","39.5","16.17","91140","31.31","DUALSPOT-UV-BLUE-GREEN-RED-IR","731594","706856","906309","15.742874","4.245935","0.002625","725742","896571","765063","11.033758","2.848190","-0.011699","825177","902138","814980","9.050662","2.258258","-0.014463","821983","920960","861301","7.127968","1.715070","-0.061183","709519","846077","950484","5.031532","1.220290","-0.012506","4725","4873","4928","4160","3807","3685","3775","3447","3338","3658","2814","2547","3711","3544","3491",""
"MA200-0416","23274","64","1","1.10","1.4","2023-05-11T15:26:00","120","2023/05/11","15:26:00","-15.744916260242462","35.01771482825279","1.7","17","30","64","59","-22419","9969","-4165","11","150","149.99","116.74","33.24","31.61","39.4","16.13","91124","31.38","DUALSPOT-UV-BLUE-GREEN-RED-IR","730788","706825","906684","15.894533","4.292484","0.006062","719497","889447","759164","11.127325","2.872741","-0.010645","824728","902176","815139","9.127260","2.276862","-0.026714","822283","921673","862082","7.188423","1.729035","-0.046028","709728","846564","951081","5.070165","1.229625","-0.049282","7630","8224","8444","5941","5474","5312","5447","4645","4379","5195","4214","3903","4622","3922","3698",""
"MA200-0416","23275","64","1","1.10","1.4","2023-05-11T15:26:30","120","2023/05/11","15:26:30","-15.745177030563354","35.01827699504793","2.2","17","30","64","58","-23096","7747","-7064","11","150","150.09","116.23","33.87","31.64","39.3","16.12","91108","31.38","DUALSPOT-UV-BLUE-GREEN-RED-IR","730073","707190","907731","16.113056","4.357427","0.001656","724512","896585","765556","11.267821","2.911520","-0.006789","824162","902315","815528","9.239227","2.305084","-0.023720","822199","922186","862726","7.272015","1.749408","-0.037736","709594","846801","951502","5.129463","1.242857","-0.087174","11042","11263","11345","8961","8488","8324","7997","6918","6560","7215","6035","5661","7126","5458","4924",""
"MA200-0416","23276","64","1","1.10","1.4","2023-05-11T15:27:00","120","2023/05/11","15:27:00","-15.745041608810425","35.018918162211776","3.8","17","30","64","58","-22888","7084","-6496","11","150","149.39","116.31","33.08","31.66","39.2","16.09","91108","31.38","DUALSPOT-UV-BLUE-GREEN-RED-IR","729044","706699","907418","16.209011","4.390558","0.014003","724175","896530","765646","11.329466","2.930988","0.011445","823841","902233","815551","9.286321","2.319759","0.012187","821894","922081","862735","7.309282","1.760787","0.012097","709599","846913","951698","5.152948","1.249219","-0.012969","4845","5883","6268","3929","4363","4514","3361","3683","3790","3214","3451","3526","2820","2686","2644",""
"MA200-0416","23277","64","1","1.10","1.4","2023-05-11T15:27:30","120","2023/05/11","15:27:30","-15.74524861574173","35.0197391603142","3.3","17","30","64","58","-22012","9080","-9712","11","150","149.68","116.48","33.20","31.67","39.1","16.06","91088","31.44","DUALSPOT-UV-BLUE-GREEN-RED-IR","727205","705792","906768","16.359184","4.437710","0.007475","722302","894934","764547","11.418491","2.956361","-0.000011","822845","901734","815272","9.353228","2.336645","-0.019274","820117","920506","861384","7.358518","1.772553","-0.036760","708570","845954","950679","5.184139","1.256494","-0.060886","7572","8341","8627","5665","5665","5665","4768","4222","4040","4240","3555","3337","3740","3060","2843",""
"MA200-0416","23278","64","1","1.10","1.4","2023-05-11T15:28:00","120","2023/05/11","15:28:00","-15.745537996292114","35.02038482762873","2.2","17","30","64","58","-21537","10245","-8325","11","150","150.36","116.47","33.89","31.69","39.0","16.05","91056","31.44","DUALSPOT-UV-BLUE-GREEN-RED-IR","728634","707737","909559","16.514233","4.482246","-0.001089","718889","891125","761441","11.511864","2.980136","-0.017611","823397","902709","816258","9.428449","2.355384","-0.025164","821685","922550","863387","7.413302","1.784241","-0.073074","709252","846953","951834","5.220386","1.263674","-0.139407","7819","7718","7681","5943","5200","4941","5362","4590","4333","4719","3460","3060","4347","2959","2516",""
"MA200-0416","23279","64","1","1.10","1.4","2023-05-11T15:28:30","120","2023/05/11","15:28:30","-15.74601399898529","35.02103699371219","1.2","17","30","64","58","-23516","7040","-5428","11","150","149.53","116.67","32.86","31.71","38.9","16.03","91076","31.44","DUALSPOT-UV-BLUE-GREEN-RED-IR","727878","707306","909170","16.579233","4.502182","0.006569","718264","890649","761106","11.558286","2.992887","-0.002991","823019","902555","816183","9.464289","2.364230","-0.020854","822711","923931","864705","7.440836","1.790392","-0.050273","709650","847592","952632","5.241680","1.269086","-0.028167","3272","3563","3672","2949","2876","2851","2550","2235","2130","2367","1878","1723","2549","2301","2221",""
"MA200-0416","23280","64","1","1.10","1.4","2023-05-11T15:29:00","120","2023/05/11","15:29:00","-15.746170341968536","35.02128849364817","1.2","17","30","64","58","-23287","6995","-5995","11","150","149.70","116.35","33.35","31.72","38.8","15.99","91092","31.44","DUALSPOT-UV-BLUE-GREEN-RED-IR","728673","708444","910875","16.652361","4.526193","0.010004","718988","891880","762286","11.605956","3.006775","0.001870","822840","902585","816316","9.503175","2.375006","-0.004864","822367","923765","864606","7.470772","1.798028","-0.022713","709263","847252","952263","5.262167","1.274271","-0.034751","3691","4229","4429","3037","3087","3104","2774","2682","2652","2581","2297","2206","2459","2171","2079",""
"MA200-0416","23281","64","1","1.10","1.4","2023-05-11T15:29:30","120","2023/05/11","15:29:30","-15.746444642543793","35.021751664578915","2.4","17","30","64","58","-23536","7575","-5564","11","150","150.28","116.29","33.99","31.74","38.8","15.99","91108","31.50","DUALSPOT-UV-BLUE-GREEN-RED-IR","720378","700742","901170","16.726515","4.548055","0.000707","718100","891022","761657","11.650386","3.018737","-0.010221","823029","903021","816797","9.537948","2.383023","-0.041092","822753","924335","865184","7.494236","1.803094","-0.069963","709641","847786","952901","5.277965","1.277541","-0.118599","3745","3777","3790","2832","2608","2530","2482","1958","1783","2024","1495","1327","1897","1344","1167",""
"MA200-0416","23282","64","1","1.10","1.4","2023-05-11T15:30:00","120","2023/05/11","15:30:00","-15.746863663196564","35.02280016057193","4.1","17","30","64","58","-22124","8196","-8532","11","150","150.29","116.67","33.63","31.75","38.7","15.96","91140","31.50","DUALSPOT-UV-BLUE-GREEN-RED-IR","718188","699017","899159","16.810214","4.573614","0.004493","716359","889221","760181","11.704208","3.034128","-0.000921","821590","901704","815696","9.580017","2.395397","0.002779","820904","922490","863531","7.526018","1.809913","-0.067409","708493","846550","951595","5.299949","1.282835","-0.052309","4213","4464","4558","3420","3393","3383","2993","3055","3075","2733","2034","1813","2632","2199","2060",""
"MA200-0416","23283","64","1","1.10","1.4","2023-05-11T15:30:30","120","2023/05/11","15:30:30","-15.746490776538849","35.023125829175115","2.5","18","30","64","58","-23208","7896","-6280","11","150","150.23","116.47","33.76","31.76","38.6","15.94","91168","31.50","DUALSPOT-UV-BLUE-GREEN-RED-IR","720251","701466","902590","16.899190","4.602106","0.007446","718012","891635","762387","11.755972","3.048557","-0.004630","822536","903054","816990","9.620495","2.405226","-0.028684","821737","923673","864716","7.557736","1.817620","-0.035795","709025","847344","952531","5.320808","1.287550","-0.076848","4487","4957","5133","3294","3168","3124","2885","2417","2261","2732","2290","2150","2501","1951","1775",""
"MA200-0416","23284","64","1","1.10","1.4","2023-05-11T15:31:00","120","2023/05/11","15:31:00","-15.746125042438507","35.02373766340315","1.0","18","30","64","58","-22756","7196","-6112","11","150","150.43","116.59","33.84","31.78","38.6","15.95","91176","31.50","DUALSPOT-UV-BLUE-GREEN-RED-IR","719976","701568","902917","16.977834","4.626829","0.006041","717641","891462","762344","11.810459","3.064680","0.002174","822319","903073","817110","9.665437","2.416628","-0.020863","821359","923472","864584","7.589263","1.824921","-0.047747","709114","847567","952845","5.342170","1.292589","-0.061469","3962","4291","4414","3464","3532","3555","3200","2797","2663","2713","2164","1991","2559","2079","1926",""
"MA200-0416","23285","64","1","1.10","1.4","2023-05-11T15:31:30","120","2023/05/11","15:31:30","-15.745976090431213","35.02394782938063","1.7","18","30","64","58","-22956","7724","-7088","11","150","149.57","116.03","33.53","31.79","38.5","15.94","91176","31.44","DUALSPOT-UV-BLUE-GREEN-RED-IR","719251","701349","902954","17.074908","4.659439","0.010688","717432","891662","762672","11.869525","3.082550","0.005009","821938","902991","817159","9.709997","2.430844","0.012525","821676","924061","865217","7.622984","1.834625","-0.000752","709014","847602","952937","5.363611","1.299666","0.029443","4913","5711","6010","3773","3950","4012","3188","3519","3629","2915","2903","2899","2581","2948","3065",""
"MA200-0416","23286","64","1","1.10","1.4","2023-05-11T15:32:00","120","2023/05/11","15:32:00","-15.74573814868927","35.02432749606669","1.5","18","30","64","58","-22124","9280","-5272","11","150","149.85","116.41","33.45","31.79","38.5","15.91","91172","31.44","DUALSPOT-UV-BLUE-GREEN-RED-IR","717880","700947","903044","17.263930","4.722721","0.010732","716595","891346","762700","11.985897","3.117878","0.005928","821481","903054","817415","9.797997","2.455819","-0.001694","821349","924115","865455","7.687307","1.852685","-0.004026","708896","847715","953149","5.403110","1.309704","-0.033284","9537","11113","11706","7410","7830","7977","6276","6199","6173","5543","5417","5377","4740","4192","4017",""
"MA200-0416","23287","64","1","1.10","1.4","2023-05-11T15:32:30","120","2023/05/11","15:32:30","-15.745796024799347","35.024696826934814","0.6","18","30","64","58","-21140","10800","-7132","11","150","150.36","116.55","33.81","31.80","38.4","15.89","91152","31.50","DUALSPOT-UV-BLUE-GREEN-RED-IR","716071","700496","903250","17.482056","4.791204","0.005820","715028","890768","762686","12.150003","3.166854","0.003079","819583","902205","817066","9.933991","2.494562","-0.002479","820138","923791","865488","7.796812","1.883101","-0.007627","708098","847483","953144","5.480999","1.329958","-0.028941","10992","11896","12237","10438","10738","10844","9687","9513","9454","9426","9025","8897","9335","8367","8057",""
"MA200-0416","23288","64","1","1.10","1.4","2023-05-11T15:33:00","120","2023/05/11","15:33:00","-15.745819687843323","35.024789495393634","0.5","18","30","64","58","-21280","11228","-4988","11","150","150.05","116.25","33.80","31.81","38.4","15.92","91140","31.50","DUALSPOT-UV-BLUE-GREEN-RED-IR","711198","699163","903431","18.129702","4.988382","0.003361","710696","889016","762489","12.681379","3.323812","0.001656","815583","901008","817197","10.394839","2.626866","-0.001661","817731","923859","866597","8.178808","1.989388","-0.007386","706062","846915","953343","5.763872","1.407893","-0.012950","32723","34262","34847","33886","34423","34613","32913","32496","32355","32968","31547","31090","33993","32208","31632",""
"MA200-0416","23289","64","1","1.10","1.4","2023-05-11T15:33:30","120","2023/05/11","15:33:30","-15.74496579170227","35.024987161159515","0.0","18","30","64","57","-23696","6024","-5952","11","150","149.69","116.41","33.28","31.82","38.4","15.93","91200","31.50","DUALSPOT-UV-BLUE-GREEN-RED-IR","705621","696381","901450","18.786542","5.191498","0.005391","706442","886640","761507","13.229671","3.485693","0.003207","811277","898906","816247","10.876900","2.765131","0.000389","812177","919918","863730","8.586420","2.102763","-0.004349","703172","845023","951911","6.063059","1.490721","-0.007241","33142","35844","36877","34917","36056","36464","34380","34489","34526","35130","34175","33865","35903","34765","34393",""
"MA200-0416","23290","64","1","1.10","1.4","2023-05-11T15:34:00","120","2023/05/11","15:34:00","-15.744965314865112","35.02499316073954","0.1","18","30","64","58","-23448","6052","-6543","11","150","149.62","116.32","33.30","31.82","38.4","15.93","91196","31.50","DUALSPOT-UV-BLUE-GREEN-RED-IR","705356","697162","903148","19.025184","5.271835","0.010293","706259","887482","762672","13.422222","3.549760","0.013473","806809","894844","812988","11.043556","2.820671","0.016361","814054","922814","866817","8.725212","2.148294","0.018600","703655","846142","953466","6.164137","1.522656","0.019638","12050","14171","14984","12271","14264","14980","11894","13848","14518","11970","13719","14290","12138","13397","13810",""
"MA200-0416","23291","64","1","1.10","1.4","2023-05-11T15:34:30","120","2023/05/11","15:34:30","-15.74316692352295","35.02545116469264","19.1","18","30","64","58","-23428","8752","-6224","11","150","149.42","115.92","33.50","31.83","38.4","15.93","91200","31.50","DUALSPOT-UV-BLUE-GREEN-RED-IR","705153","697969","904724","19.241138","5.336378","0.002346","705919","888045","763496","13.589956","3.597194","-0.002214","806313","895192","813572","11.188960","2.860927","-0.005346","812905","922232","866512","8.844247","2.180398","-0.010999","703277","846206","953722","6.253082","1.544633","-0.038146","10942","11316","11459","10727","10496","10413","10414","9976","9826","10302","9614","9389","10719","9164","8654",""
"MA200-0416","23292","64","1","1.10","1.4","2023-05-11T15:35:00","120","2023/05/11","15:35:00","-15.738738000392914","35.02350149676204","18.5","18","30","64","58","-24166","6808","-4666","11","150","149.83","117.02","32.81","31.83","38.4","15.92","91360","31.50","DUALSPOT-UV-BLUE-GREEN-RED-IR","703151","696552","903236","19.370964","5.377043","0.007214","704448","886744","762592","13.684526","3.625816","0.007143","810316","900147","818256","11.266851","2.883034","0.001462","805763","914538","859424","8.905825","2.197802","0.001217","703260","846423","954069","6.297384","1.557102","0.000833","6516","7280","7574","5990","6467","6639","5525","5594","5618","5279","5322","5337","5288","5309","5316",""
"MA200-0416","23293","64","1","1.10","1.4","2023-05-11T15:35:30","120","2023/05/11","15:35:30","-15.736156523227692","35.023040829226375","5.6","18","30","64","57","-24968","6164","884","11","150","150.09","116.15","33.94","31.83","38.3","15.89","91468","31.50","DUALSPOT-UV-BLUE-GREEN-RED-IR","696479","693737","901894","20.016676","5.583809","0.005853","699187","884222","761988","14.221715","3.788192","0.003139","803664","896384","816239","11.725729","3.016752","-0.000334","806227","918209","864063","9.282914","2.303403","-0.006335","699057","843420","951575","6.564235","1.630170","-0.013953","32653","35777","36986","34286","35461","35888","32800","32705","32672","32572","31211","30763","32094","30070","29401",""
"MA200-0416","23294","64","1","1.10","1.4","2023-05-11T15:36:00","120","2023/05/11","15:36:00","-15.73923671245575","35.0239041633904","17.3","18","30","64","58","-22724","7043","-6820","11","150","149.76","116.15","33.61","31.83","38.3","15.89","91336","31.50","DUALSPOT-UV-BLUE-GREEN-RED-IR","695279","694371","903829","20.540392","5.749834","0.005696","697434","883923","762422","14.648243","3.917326","0.004045","798886","892773","813564","12.102309","3.128755","0.002977","806785","920350","866621","9.598884","2.394492","-0.000541","699478","844965","953736","6.790085","1.694545","-0.003022","26483","29010","29992","27223","28479","28937","26917","27663","27923","27292","27186","27151","27163","26753","26617",""
"MA200-0416","23295","64","1","1.10","1.4","2023-05-11T15:36:30","120","2023/05/11","15:36:30","-15.742932200431824","35.025628831237555","20.6","18","30","64","57","-22360","8056","-6747","11","150","150.62","116.31","34.31","31.83","38.3","15.88","91172","31.50","DUALSPOT-UV-BLUE-GREEN-RED-IR","693752","693641","903392","20.709548","5.803753","0.004853","696307","883303","762178","14.780433","3.956216","-0.000257","802169","897101","817826","12.215539","3.161340","-0.002807","805706","919693","866221","9.690550","2.420825","-0.003747","698819","844517","953373","6.853472","1.710881","-0.029584","8542","9229","9496","8425","8402","8393","8082","7883","7814","7907","7699","7630","7613","6650","6329",""
"MA200-0416","23296","64","1","1.10","1.4","2023-05-11T15:37:00","120","2023/05/11","15:37:00","-15.747665822505951","35.024519661441445","16.8","18","30","64","57","-22940","9980","-6024","11","150","149.83","116.55","33.28","31.83","38.3","15.87","90936","31.50","DUALSPOT-UV-BLUE-GREEN-RED-IR","690770","692715","903395","21.092918","5.924497","0.005935","694481","883084","762772","15.076116","4.043169","0.002592","799733","896287","817733","12.466122","3.231138","-0.002757","802916","918105","865320","9.895602","2.474951","-0.011339","697288","843751","952957","6.998266","1.747681","-0.024550","19320","21308","22085","18807","19367","19572","17850","17410","17257","17651","16316","15870","17355","15446","14810",""
"MA200-0416","23297","64","1","1.10","1.4","2023-05-11T15:37:30","120","2023/05/11","15:37:30","-15.751285433769226","35.02406466193497","13.5","18","30","64","57","-22180","9824","-6452","11","150","150.69","116.27","34.42","31.83","38.2","15.82","0","0.00","DUALSPOT-UV-BLUE-GREEN-RED-IR","686605","690740","902238","21.557094","6.077146","0.006204","691171","881313","762211","15.467411","4.166389","0.005186","795677","893932","816500","12.808610","3.336537","0.003962","800702","917488","865472","10.183148","2.559751","-0.000505","695446","842835","952512","7.206348","1.806514","-0.008852","23448","26048","27068","24948","26538","27124","24455","25422","25763","24812","24717","24685","25000","23877","23501",""
"MA200-0416","23298","64","1","1.10","1.4","2023-05-11T15:38:00","120","2023/05/11","15:38:00","-15.755368888378143","35.02407149411738","17.4","18","30","64","57","-22652","9216","-4740","11","150","149.61","115.68","33.93","31.83","38.1","15.81","0","0.00","DUALSPOT-UV-BLUE-GREEN-RED-IR","682907","689634","902394","22.134988","6.262302","0.005153","687938","880021","762152","15.948620","4.313612","0.003494","793198","893672","817226","13.229429","3.460812","0.000692","797633","916204","865115","10.536854","2.661759","-0.002179","693975","842485","952770","7.463804","1.879752","-0.005631","29343","32052","33121","30839","32166","32659","30203","30409","30482","30677","30162","29988","31091","30153","29837",""
"MA200-0416","23299","64","1","1.10","1.4","2023-05-11T15:38:30","120","2023/05/11","15:38:30","-15.760195016860962","35.0257514975965","20.0","18","30","64","57","-22436","9356","-5848","11","150","149.57","115.35","34.21","31.83","38.1","15.78","90196","31.44","DUALSPOT-UV-BLUE-GREEN-RED-IR","681266","689173","902578","22.443386","6.362924","0.005464","686662","879615","762298","16.196144","4.390217","0.003479","791054","892400","816479","13.443948","3.525013","0.000908","796081","915402","864729","10.714349","2.712548","-0.004612","692688","841598","952041","7.591499","1.913483","-0.022545","15702","17275","17897","15907","16599","16857","15439","15580","15630","15437","14894","14710","15463","13773","13204",""
"MA200-0416","23300","64","1","1.10","1.4","2023-05-11T15:39:00","120","2023/05/11","15:39:00","-15.764295876026154","35.02800866216421","10.5","17","30","64","57","-21764","8700","-8228","11","150","150.09","116.15","33.94","31.82","37.9","15.72","0","0.00","DUALSPOT-UV-BLUE-GREEN-RED-IR","679646","688500","902292","22.663738","6.433243","0.005020","684980","878529","761788","16.375038","4.445928","0.005047","790154","892269","816757","13.597434","3.571785","0.004026","795113","915044","864693","10.841649","2.750057","0.001006","692175","841509","952162","7.680641","1.938731","-0.005607","11143","12167","12573","11417","12167","12446","10971","11439","11606","10995","11086","11117","10721","10390","10278",""
"MA200-0416","23301","64","1","1.10","1.4","2023-05-11T15:39:30","120","2023/05/11","15:39:30","-15.767568588256836","35.027622662484646","13.2","17","30","64","57","-21892","10172","-6668","11","150","150.01","115.63","34.38","31.82","37.8","15.66","0","0.00","DUALSPOT-UV-BLUE-GREEN-RED-IR","677799","691503","909495","23.422984","6.688480","0.006600","678269","875328","761217","17.025300","4.653991","0.005571","783731","889889","816587","14.163862","3.748130","0.004249","789257","912469","863987","11.312312","2.892923","0.002415","688670","840082","951905","8.025051","2.039805","-0.002206","38567","43606","45620","41690","44865","46059","40670","42586","43275","40838","41692","41985","41610","41070","40886",""
"MA200-0416","23302","64","1","1.10","1.4","2023-05-11T15:40:00","120","2023/05/11","15:40:00","-15.771939158439636","35.0251348298043","22.2","17","30","64","57","-22204","8588","-5344","11","150","149.63","115.39","34.24","31.81","37.6","15.58","0","0.00","DUALSPOT-UV-BLUE-GREEN-RED-IR","668065","686932","907054","24.720754","7.120598","0.005928","669897","870474","759492","18.135050","5.009317","0.005436","775342","885768","815045","15.142299","4.051340","0.003779","781325","908054","861804","12.140951","3.143442","0.002055","683612","837146","950111","8.626076","2.215236","-0.002587","66056","74131","77398","71294","76937","79091","70395","73525","74669","72044","73410","73887","72759","71579","71171",""
"MA200-0416","23303","64","1","1.10","1.4","2023-05-11T15:40:30","120","2023/05/11","15:40:30","-15.77642971277237","35.023486664518714","12.4","18","30","64","57","-23084","6108","-7647","11","150","150.69","116.23","34.46","31.80","37.6","15.55","0","0.00","DUALSPOT-UV-BLUE-GREEN-RED-IR","657440","680448","901568","25.759386","7.477892","0.007152","665923","870356","761531","19.038482","5.305141","0.006642","770746","885238","816609","15.947704","4.308575","0.006001","778198","908704","864188","12.826754","3.354239","0.003694","681605","837687","952124","9.134045","2.364154","-0.001680","52486","60899","64340","57622","63639","65963","57530","61974","63619","59197","61371","62141","61052","60368","60129",""
"MA200-0416","23304","64","1","1.10","1.4","2023-05-11T15:41:00","120","2023/05/11","15:41:00","-15.780112385749817","35.02417999692261","15.0","18","30","64","57","-23324","6768","-6164","11","150","149.70","116.15","33.55","31.80","37.5","15.52","89740","31.50","DUALSPOT-UV-BLUE-GREEN-RED-IR","657106","681073","903099","26.125396","7.604141","0.008232","665459","870827","762423","19.354216","5.409975","0.008882","770446","885907","817674","16.234741","4.399437","0.007165","778682","910175","865960","13.074884","3.430980","0.006697","681869","838663","953506","9.317883","2.417404","0.000410","18508","22103","23579","20151","23165","24334","20517","22486","23217","21432","22950","23489","22110","22173","22195",""
"MA200-0416","23305","64","1","1.10","1.4","2023-05-11T15:41:30","120","2023/05/11","15:41:30","-15.782578527927399","35.023347998037934","7.3","17","30","64","57","-22988","7156","-7015","11","150","149.66","115.67","33.99","31.79","37.5","15.51","89860","31.50","DUALSPOT-UV-BLUE-GREEN-RED-IR","655617","680626","903241","26.370152","7.688217","0.007302","664385","870669","762804","19.565226","5.480249","0.007986","769000","885348","817628","16.422707","4.459250","0.006219","777174","909388","865600","13.234112","3.479564","0.003732","680783","837995","953067","9.435978","2.451831","-0.001154","12428","14528","15392","13523","15326","16027","13491","14609","15026","13810","14339","14528","14262","14148","14109",""
"MA200-0416","23306","64","1","1.10","1.4","2023-05-11T15:42:00","120","2023/05/11","15:42:00","-15.784181892871857","35.0232159961015","8.7","17","30","64","57","-22400","8000","-10929","11","150","150.23","115.70","34.53","31.79","37.4","15.48","89976","31.50","DUALSPOT-UV-BLUE-GREEN-RED-IR","659201","684940","909360","26.496730","7.732120","0.007028","662319","868586","761210","19.668430","5.513704","0.005431","766008","882472","815215","16.513269","4.488623","0.006440","774269","906485","863065","13.309507","3.501963","-0.000476","678751","835808","950748","9.491043","2.468251","-0.000141","6425","7467","7896","6612","7181","7403","6498","7061","7271","6537","6507","6496","6648","6641","6639",""
"MA200-0416","23307","64","1","1.10","1.4","2023-05-11T15:42:30","120","2023/05/11","15:42:30","-15.785247802734375","35.02574083022773","11.5","17","30","64","57","-22500","9384","-6148","11","150","149.94","115.88","34.06","31.78","37.4","15.47","89960","31.44","DUALSPOT-UV-BLUE-GREEN-RED-IR","651692","678957","902674","26.874512","7.862167","0.007249","660750","868478","762010","19.986134","5.619533","0.007826","761871","879462","813207","16.789306","4.577744","0.007099","775011","908877","866027","13.540435","3.575451","0.007457","679505","837822","953540","9.661816","2.518514","0.000189","19149","22426","23781","20325","23034","24093","19777","21723","22453","19993","21646","22239","20587","20615","20625",""
"MA200-0416","23308","64","1","1.10","1.4","2023-05-11T15:43:00","120","2023/05/11","15:43:00","-15.786566853523254","35.02900133095682","7.0","17","30","64","57","-23372","6068","-7152","11","150","149.66","115.59","34.07","31.78","37.4","15.47","89816","31.44","DUALSPOT-UV-BLUE-GREEN-RED-IR","649760","678327","902835","27.205936","7.977239","0.007387","659228","867974","762190","20.258542","5.708296","0.006313","763646","882899","816986","17.029138","4.653787","0.005530","772230","906865","864578","13.739239","3.634542","0.000810","677818","836576","952524","9.806091","2.560919","-0.000414","16841","19835","21077","17471","19311","20033","17226","18528","19017","17256","17398","17450","17437","17384","17366",""
"MA200-0416","23309","64","1","1.10","1.4","2023-05-11T15:43:30","120","2023/05/11","15:43:30","-15.78635174036026","35.03047699481249","6.4","17","30","64","57","-21692","11068","-5820","11","150","149.57","115.83","33.73","31.78","37.4","15.45","89752","31.44","DUALSPOT-UV-BLUE-GREEN-RED-IR","647810","677543","902718","27.516246","8.085085","0.007812","657610","867266","762217","20.515060","5.792583","0.007390","762416","882724","817376","17.252308","4.724485","0.006249","770932","906439","864660","13.927585","3.693288","0.006326","676989","836296","952543","9.942417","2.600247","-0.001302","15735","18777","20043","16417","18522","19351","15995","17399","17928","16313","17471","17889","16441","16286","16231",""
"MA200-0416","23310","64","1","1.10","1.4","2023-05-11T15:44:00","120","2023/05/11","15:44:00","-15.786514461040497","35.03260416164994","12.1","17","30","64","57","-22028","9632","-5212","11","150","150.03","115.67","34.36","31.78","37.3","15.42","89592","31.38","DUALSPOT-UV-BLUE-GREEN-RED-IR","646043","676718","902288","27.720794","8.155832","0.006819","656082","866313","761819","20.682870","5.849552","0.008039","760466","881421","816577","17.397832","4.771322","0.005940","769615","905686","864295","14.048789","3.731650","0.005840","676083","835708","952117","10.028427","2.624716","-0.006035","10386","12095","12807","10754","12292","12899","10444","11318","11648","10512","11202","11452","10387","9949","9794",""
"MA200-0416","23311","64","1","1.10","1.4","2023-05-11T15:44:30","120","2023/05/11","15:44:30","-15.786777198314667","35.03414782509208","9.0","16","30","64","57","-21880","10264","-7008","11","150","150.42","115.75","34.67","31.76","37.2","15.38","89500","31.44","DUALSPOT-UV-BLUE-GREEN-RED-IR","649583","681511","909433","27.955098","8.235389","0.005698","654190","864930","761059","20.867392","5.907005","0.002505","758801","880491","816131","17.556962","4.820979","0.003106","768520","905266","864243","14.180474","3.770846","-0.000604","675319","835361","951973","10.121597","2.651203","-0.007314","11889","13478","14141","11817","12284","12469","11413","11891","12071","11413","11342","11316","11244","10672","10469",""
"MA200-0416","23312","64","1","1.10","1.4","2023-05-11T15:45:00","120","2023/05/11","15:45:00","-15.787525355815887","35.03595599159598","0.1","16","30","64","56","-22220","8883","-7154","11","150","149.83","115.91","33.92","31.78","37.2","15.38","89404","31.44","DUALSPOT-UV-BLUE-GREEN-RED-IR","647794","679896","907512","28.054638","8.269701","0.007182","653026","863687","760103","20.945224","5.932617","0.007066","757480","879186","814996","17.624828","4.841554","0.002687","765761","902191","861410","14.234728","3.786009","-0.004576","673992","833875","950346","10.159863","2.661446","-0.012845","5044","5941","6316","4977","5597","5842","4860","5036","5102","4695","4485","4408","4611","4218","4079",""
"MA200-0416","23313","64","1","1.10","1.4","2023-05-11T15:45:30","120","2023/05/11","15:45:30","-15.78718113899231","35.03500682488084","6.4","16","30","64","57","-23728","5520","-6372","11","150","150.14","116.09","34.06","31.76","37.1","15.34","89448","31.44","DUALSPOT-UV-BLUE-GREEN-RED-IR","642560","674710","900763","28.120002","8.291328","0.005453","653458","864529","760944","20.994200","5.947721","0.003173","754896","876418","812542","17.662696","4.852808","0.000984","768381","905490","864651","14.267534","3.796142","0.004697","675329","835665","952431","10.182388","2.667233","-0.019909","3307","3729","3906","3127","3287","3350","2708","2743","2756","2835","2984","3038","2710","2373","2253",""
"MA200-0416","23314","64","1","1.10","1.4","2023-05-11T15:46:00","120","2023/05/11","15:46:00","-15.786660313606262","35.03342966362834","6.4","16","30","64","57","-23428","6160","-6380","11","150","150.28","116.00","34.28","31.75","37.1","15.31","89552","31.38","DUALSPOT-UV-BLUE-GREEN-RED-IR","648604","681277","909686","28.165150","8.308614","0.010490","653000","864125","760662","21.027300","5.958767","0.007260","758494","880817","816711","17.693790","4.862243","0.002018","767366","904444","863695","14.290153","3.803218","0.005161","674861","835208","951959","10.199112","2.672221","0.001208","2285","2961","3244","2115","2388","2496","2225","2285","2307","1956","2070","2111","2013","2032","2039",""
"MA200-0416","23315","64","1","1.10","1.4","2023-05-11T15:46:30","120","2023/05/11","15:46:30","-15.786251187324524","35.03218649700284","5.7","16","30","64","56","-22320","9044","-5304","11","150","149.90","115.75","34.14","31.75","37.0","15.27","89652","31.38","DUALSPOT-UV-BLUE-GREEN-RED-IR","647826","680685","909098","28.222306","8.330660","0.010765","653264","864705","761291","21.068522","5.973644","0.011286","757394","879751","815778","17.727064","4.872638","0.004251","766435","903539","862902","14.319069","3.811163","-0.007187","674199","834469","951193","10.218914","2.677951","-0.002574","2900","3792","4165","2640","3230","3463","2386","2527","2581","2506","2334","2272","2389","2344","2328",""
"MA200-0416","23316","64","1","1.10","1.4","2023-05-11T15:47:00","120","2023/05/11","15:47:00","-15.786021649837494","35.03323232755065","4.7","16","30","64","56","-21744","8820","-6636","11","150","149.45","115.00","34.45","31.75","37.0","15.26","89544","31.38","DUALSPOT-UV-BLUE-GREEN-RED-IR","647165","680332","908956","28.300164","8.360862","0.010427","652654","864226","761015","21.118986","5.989355","0.002464","756589","879057","815254","17.769058","4.886181","0.005372","766135","903446","862901","14.353514","3.820705","-0.007956","673760","834095","950782","10.242271","2.683172","-0.051210","3976","5149","5641","3253","3381","3431","3031","3263","3351","3005","2779","2697","2837","2116","1861",""
"MA200-0416","23317","64","1","1.10","1.4","2023-05-11T15:47:30","120","2023/05/11","15:47:30","-15.786278367042542","35.03440282866359","4.0","16","30","64","56","-22180","8860","-7152","11","150","149.73","115.92","33.81","31.74","36.9","15.23","89456","31.38","DUALSPOT-UV-BLUE-GREEN-RED-IR","646072","679467","908012","28.372830","8.387893","0.009906","651494","862941","759983","21.168242","6.005811","0.007974","756305","878985","815299","17.812470","4.898864","0.000131","765662","903080","862627","14.386453","3.830665","0.003313","673652","834083","950840","10.263569","2.688076","-0.038894","3681","4695","5121","3150","3608","3789","3109","3114","3116","2850","2955","2993","2566","2026","1834",""
"MA200-0416","23318","64","1","1.10","1.4","2023-05-11T15:48:00","120","2023/05/11","15:48:00","-15.786816000938416","35.035685159265995","3.5","17","30","64","56","-23536","5928","-7279","11","150","149.51","115.79","33.71","31.74","36.9","15.22","89400","31.38","DUALSPOT-UV-BLUE-GREEN-RED-IR","645567","679165","907848","28.430684","8.409611","0.010241","656101","869309","765684","21.208784","6.019146","0.007225","756297","879169","815570","17.844832","4.910111","0.011816","765863","903473","863075","14.413235","3.838032","-0.005647","673793","834358","951203","10.282017","2.693472","0.000601","2934","3783","4140","2595","2932","3065","2320","2769","2940","2320","2192","2145","2225","2235","2239",""
"MA200-0416","23319","64","1","1.10","1.4","2023-05-11T15:48:30","120","2023/05/11","15:48:30","-15.7858527302742","35.03609948977828","5.7","16","30","64","56","-23061","8057","-5188","11","150","150.23","115.75","34.47","31.74","36.9","15.22","89384","31.38","DUALSPOT-UV-BLUE-GREEN-RED-IR","645057","678901","907668","28.493026","8.431423","0.006978","655874","869263","765775","21.255702","6.034286","0.004912","755608","878620","815130","17.884020","4.921573","-0.001418","764420","901967","861713","14.443963","3.847193","0.000094","673384","834022","950887","10.305191","2.698743","-0.045660","3163","3716","3948","3004","3255","3355","2810","2760","2741","2663","2666","2666","2796","2136","1901",""
"MA200-0416","23320","64","1","1.10","1.4","2023-05-11T15:49:00","120","2023/05/11","15:49:00","-15.784810066223145","35.03510715439916","4.4","16","30","64","56","-23760","6472","-7520","11","150","150.09","116.03","34.06","31.74","36.8","15.19","89476","31.38","DUALSPOT-UV-BLUE-GREEN-RED-IR","645145","679214","908196","28.538204","8.448080","0.009341","655526","869013","765647","21.289698","6.045015","0.004450","756086","879362","815906","17.913704","4.931617","0.009702","765180","903050","862799","14.469229","3.855347","0.008239","673629","834441","951395","10.322140","2.703220","-0.015240","2286","2872","3118","2172","2334","2399","2123","2447","2570","2184","2401","2480","2040","1835","1763",""
