"Serial number","Datum ID","Session ID","Data format version","Firmware version","App version","Date / time local","Timezone offset (mins)","Date local (yyyy/MM/dd)","Time local (hh:mm:ss)","GPS lat (ddmm.mmmmm)","GPS long (dddmm.mmmmm)","GPS speed (km/h)","GPS sat count","Timebase (s)","Status","Battery remaining (%)","Accel X","Accel Y","Accel Z","Tape position","Flow setpoint (mL/min)","Flow total (mL/min)","Flow1 (mL/min)","Flow2 (mL/min)","Sample temp (C)","Sample RH (%)","Sample dewpoint (C)","Internal pressure (Pa)","Internal temp (C)","Optical config","UV Sen1","UV Sen2","UV Ref","UV ATN1","UV ATN2","UV K","Blue Sen1","Blue Sen2","Blue Ref","Blue ATN1","Blue ATN2","Blue K","Green Sen1","Green Sen2","Green Ref","Green ATN1","Green ATN2","Green K","Red Sen1","Red Sen2","Red Ref","Red ATN1","Red ATN2","Red K","IR Sen1","IR Sen2","IR Ref","IR ATN1","IR ATN2","IR K","UV BC1","UV BC2","UV BCc","Blue BC1","Blue BC2","Blue BCc","Green BC1","Green BC2","Green BCc","Red BC1","Red BC2","Red BCc","IR BC1","IR BC2","IR BCc","Readable status"
"MA200-0420","42351","68","1","1.10","1.6","2023-07-10T16:35:00","120","2023/07/10","16:35:00","0","0","0.0","2","300","66","90","-420","-20187","15450","4","150","149.72","113.22","36.49","27.25","49.4","15.71","90316","26.38","DUALSPOT-UV-BLUE-GREEN-RED-IR","631621","716493","914434","0.000000","0.000000","0.000000","685157","908384","839890","0.000000","0.000000","0.000000","670650","879929","830592","0.000000","0.000000","0.000000","687795","880000","886667","0.000000","0.000000","0.000000","671719","901382","967581","0.000000","0.000000","0.000000","","","","","","","","","","","","","","","","Start up-DualSpot on"
"MA200-0420","42352","68","1","1.10","1.6","2023-07-10T16:40:00","120","2023/07/10","16:40:00","0","0","0.0","3","300","64","89","345","-26879","1233","4","150","149.79","113.66","36.13","27.46","47.1","15.17","90320","26.63","DUALSPOT-UV-BLUE-GREEN-RED-IR","678902","708920","907482","0.000000","0.000000","0.000000","733953","905669","840207","0.000000","0.000000","0.000000","715342","876374","829720","0.000000","0.000000","0.000000","741829","883538","892827","0.000000","0.000000","0.000000","714812","900314","964314","0.000000","0.000000","0.000000","","","","","","","","","","","","","","","","DualSpot on"
"MA200-0420","42353","68","1","1.10","1.6","2023-07-10T16:45:00","120","2023/07/10","16:45:00","0","0","0.0","4","300","64","88","296","-26688","1136","4","150","149.37","113.57","35.80","27.52","45.2","14.60","0","0.00","DUALSPOT-UV-BLUE-GREEN-RED-IR","675527","709379","910631","0.842578","0.277486","0.000000","726609","899824","836271","0.537279","0.182145","0.000000","714366","877784","832285","0.440664","0.148135","0.000000","735639","878120","888316","0.333023","0.108482","0.000000","714929","901595","966320","0.192296","0.066926","0.000000","4357","4552","4357","3507","3771","3507","3221","3435","3221","2941","3040","2941","2365","2611","2365","DualSpot on"
"MA200-0420","42354","68","1","1.10","1.6","2023-07-10T16:50:00","120","2023/07/10","16:50:00","0","0","0.0","10","300","64","87","215","-26903","1632","4","150","149.50","114.22","35.28","27.45","44.3","14.21","0","0.00","DUALSPOT-UV-BLUE-GREEN-RED-IR","668014","705828","908895","1.767950","0.586359","0.000000","726782","903557","841426","1.126232","0.377863","0.000000","710198","875495","831476","0.927312","0.308835","0.000000","732794","876938","888135","0.700176","0.226343","0.000000","714134","901915","967267","0.402507","0.133962","0.000000","4758","5142","4758","3822","4112","3822","3537","3781","3537","3225","3351","3225","2571","2654","2571","DualSpot on"
"MA200-0420","42355","68","1","1.10","1.6","2023-07-10T16:55:00","120","2023/07/10","16:55:00","-15.795748114585876","35.002970666158944","0.7","10","300","64","86","292","-26960","1600","4","150","149.59","113.54","36.05","27.36","43.6","13.89","90328","26.63","DUALSPOT-UV-BLUE-GREEN-RED-IR","658929","701081","905988","2.820442","0.942766","0.000000","719427","898406","838483","1.791273","0.598782","0.000000","705900","873365","830940","1.475147","0.489741","0.000000","733755","880556","893051","1.117389","0.359525","0.000000","711227","899654","965621","0.639724","0.209996","0.000000","5444","5806","5444","4342","4542","4342","4006","4166","4006","3686","3706","3686","2918","2946","2918","DualSpot on"
"MA200-0420","42356","68","1","1.10","1.6","2023-07-10T17:00:00","120","2023/07/10","17:00:00","-15.795729637145996","35.00288866623305","0.4","13","300","64","85","268","-26891","1727","4","150","149.81","113.64","36.17","27.27","43.2","13.66","90336","26.50","DUALSPOT-UV-BLUE-GREEN-RED-IR","651363","697766","904907","3.853004","1.297136","0.027431","713275","894616","836731","2.442953","0.815957","0.000000","704368","874669","833662","2.015470","0.667369","0.000000","728062","876157","889703","1.527446","0.489047","0.000000","707860","896861","963344","0.877592","0.284324","0.000000","5336","5755","5967","4251","4451","4251","3947","4077","3947","3620","3593","3620","2924","2871","2924","DualSpot on"
"MA200-0420","42357","68","1","1.10","1.6","2023-07-10T17:05:00","120","2023/07/10","17:05:00","-15.795747637748718","35.00282883294858","0.2","13","300","64","84","260","-26844","1544","4","150","149.91","113.56","36.35","27.17","42.9","13.47","90344","26.38","DUALSPOT-UV-BLUE-GREEN-RED-IR","646005","696505","906436","4.850097","1.642097","0.022491","710147","894398","838357","3.076561","1.029694","0.024405","697969","869709","830398","2.536974","0.840663","0.000000","720981","869948","884566","1.923397","0.618180","0.000000","708165","898621","965950","1.105730","0.357758","0.000000","5157","5574","5788","4136","4359","4471","3812","3958","3812","3498","3564","3498","2806","2822","2806","DualSpot on"
"MA200-0420","42358","68","1","1.10","1.6","2023-07-10T17:10:00","120","2023/07/10","17:10:00","-15.795737445354462","35.003075499786064","0.1","13","300","64","84","324","-26880","1676","4","150","150.54","114.02","36.52","27.08","42.7","13.32","90352","26.31","DUALSPOT-UV-BLUE-GREEN-RED-IR","637906","692031","903581","5.797531","1.977361","0.023686","703777","889991","835942","3.689581","1.238071","0.022909","697194","871743","833724","3.045532","1.011365","0.022032","721571","872963","888731","2.311359","0.744118","0.000000","705354","896442","964291","1.329959","0.429193","0.000000","4880","5392","5657","3985","4230","4353","3703","3880","3969","3413","3460","3413","2747","2732","2747","DualSpot on"
"MA200-0420","42359","68","1","1.10","1.6","2023-07-10T17:15:00","120","2023/07/10","17:15:00","-15.795821964740753","35.003152166260406","0.4","13","300","64","84","228","-26888","1668","4","150","150.21","114.02","36.19","26.95","42.4","13.11","90356","26.19","DUALSPOT-UV-BLUE-GREEN-RED-IR","635065","692964","907847","6.714218","2.310220","0.026804","703153","892690","840268","4.294760","1.450854","0.032572","691796","867793","831397","3.550428","1.185286","0.031945","716841","869475","886377","2.699503","0.874456","0.000000","702063","893601","961955","1.555097","0.504004","0.000000","4722","5401","5758","3934","4358","4574","3676","3989","4146","3415","3613","3415","2758","2887","2758","DualSpot on"
"MA200-0420","42360","68","1","1.10","1.6","2023-07-10T17:20:00","120","2023/07/10","17:20:00","-15.79590517282486","35.002999832620844","0.3","13","300","64","83","284","-26796","1688","4","150","150.40","114.14","36.26","26.80","42.0","12.83","0","0.00","DUALSPOT-UV-BLUE-GREEN-RED-IR","630297","691789","909376","7.634262","2.646087","0.024359","699868","892102","841494","4.908153","1.665526","0.027200","689759","868217","833305","4.064046","1.364177","0.031211","716056","870838","888933","3.097257","1.007434","0.023313","702640","895728","964949","1.785919","0.578754","0.000000","4734","5441","5816","3983","4389","4597","3735","4096","4278","3496","3679","3768","2825","2880","2825","DualSpot on"
"MA200-0420","42361","68","1","1.10","1.6","2023-07-10T17:25:00","120","2023/07/10","17:25:00","-15.79574316740036","35.002918333048","0.1","14","300","64","83","276","-26828","1724","4","150","149.60","113.93","35.67","26.65","42.2","12.74","0","0.00","DUALSPOT-UV-BLUE-GREEN-RED-IR","621241","685925","904653","8.559704","2.979496","0.021930","691723","885280","836885","5.528835","1.879399","0.023908","687279","868092","834646","4.587776","1.539111","0.019912","714966","871916","891143","3.499767","1.135362","0.006247","702778","897349","967423","2.021143","0.653525","0.000000","4771","5489","5873","4038","4444","4653","3816","4071","4200","3544","3598","3623","2884","2928","2884","DualSpot on"
"MA200-0420","42362","68","1","1.10","1.6","2023-07-10T17:30:00","120","2023/07/10","17:30:00","-15.795756578445435","35.0028883330524","0.5","14","300","64","83","222","-26834","1611","4","150","149.34","113.27","36.07","26.49","42.1","12.57","90352","25.63","DUALSPOT-UV-BLUE-GREEN-RED-IR","615506","684276","906122","9.645588","3.381063","0.020609","688065","884901","838705","6.269653","2.139538","0.021487","680231","862727","831304","5.213842","1.756334","0.022789","707959","866222","886824","3.992908","1.299411","0.015500","698381","893563","964248","2.318378","0.750434","0.000000","5630","6538","7028","4848","5345","5603","4588","4999","5207","4368","4562","4656","3665","3752","3665","DualSpot on"
"MA200-0420","42363","68","1","1.10","1.6","2023-07-10T17:35:00","120","2023/07/10","17:35:00","-15.795949935913086","35.00312649970874","1.9","14","300","64","82","316","-26868","1792","4","150","149.85","113.92","35.92","26.32","42.2","12.44","90360","25.50","DUALSPOT-UV-BLUE-GREEN-RED-IR","607585","682207","908741","11.221516","3.969423","0.019747","681862","883588","840900","7.427047","2.548152","0.020740","675066","861859","833385","6.217762","2.104211","0.020917","703299","865257","888249","4.812185","1.573714","0.017474","696282","894081","966528","2.848446","0.922820","0.000000","8125","9619","10437","7531","8432","8902","7316","8039","8409","7214","7660","7877","6499","6703","6499","DualSpot on"
"MA200-0420","42364","68","1","1.10","1.6","2023-07-10T17:40:00","120","2023/07/10","17:40:00","-15.796161949634552","35.002959666308016","0.6","14","300","64","82","212","-26795","1770","4","150","149.87","113.68","36.19","26.16","42.2","12.30","90368","25.31","DUALSPOT-UV-BLUE-GREEN-RED-IR","594425","674441","904071","12.898319","4.601633","0.017265","669432","874516","835985","8.689730","2.995622","0.016942","665154","855294","830193","7.323210","2.487075","0.016037","698936","865114","890824","5.726286","1.878975","0.011856","690143","889827","963786","3.453735","1.118379","0.006208","8663","10260","11145","8234","9165","9655","8073","8782","9147","8067","8462","8654","7437","7548","7600","DualSpot on"
"MA200-0420","42365","68","1","1.10","1.6","2023-07-10T17:45:00","120","2023/07/10","17:45:00","-15.795863330364227","35.0028348332271","83423.3","13","300","64","81","279","-26820","1745","4","150","149.67","114.22","35.45","26.02","42.3","12.21","90372","25.25","DUALSPOT-UV-BLUE-GREEN-RED-IR","587063","672334","906476","14.415249","5.181293","0.018399","664647","874645","839501","9.826393","3.398412","0.018125","660953","855506","833262","8.321588","2.830768","0.017060","691075","860133","888112","6.553961","2.152598","0.013496","689561","892438","968328","4.008731","1.292553","0.004041","7800","9604","10616","7377","8423","8976","7256","8049","8457","7270","7743","7975","6787","6863","6899","DualSpot on"
"MA200-0420","42366","68","1","1.10","1.6","2023-07-10T17:50:00","120","2023/07/10","17:50:00","0","0","0.0","13","300","72","81","372","-26836","1752","4","150","149.89","114.49","35.39","25.95","42.8","12.34","0","0.00","DUALSPOT-UV-BLUE-GREEN-RED-IR","578964","669676","908685","16.042130","5.817583","0.018318","653256","866431","835342","11.053406","3.844547","0.019245","651125","848671","829767","9.396799","3.212660","0.019646","595611","745716","772319","7.444593","2.453745","0.016493","682979","887569","964882","4.608394","1.485158","0.011820","8345","10559","11819","7944","9344","10091","7796","8958","9561","7804","8536","8896","7316","7602","7738","DualSpot on"
"MA200-0420","42367","68","1","1.10","1.6","2023-07-10T17:55:00","120","2023/07/10","17:55:00","-15.795526206493378","35.00280016637407","0.4","13","300","64","81","325","-26887","1770","4","150","149.91","113.92","35.98","25.77","43.2","12.31","0","0.00","DUALSPOT-UV-BLUE-GREEN-RED-IR","564676","661362","904813","18.104702","6.637384","0.016004","644680","863763","837736","12.657551","4.437810","0.016459","643379","846285","831723","10.818382","3.725594","0.016491","675375","852269","886375","8.644325","2.869672","0.014748","679253","887668","967648","5.435432","1.757667","0.011043","10634","13381","14972","10438","12222","13185","10359","11834","12609","10565","11596","12109","10141","10579","10788","DualSpot on"
"MA200-0420","42368","68","1","1.10","1.6","2023-07-10T18:00:00","120","2023/07/10","18:00:00","-15.795634388923645","35.002918333048","0.3","13","300","64","80","283","-26783","1854","4","150","150.15","113.76","36.38","25.64","43.4","12.28","0","0.00","DUALSPOT-UV-BLUE-GREEN-RED-IR","553693","657292","907698","20.387486","7.570125","0.015023","635246","860519","840140","14.417187","5.101454","0.015061","635246","843921","834105","12.379381","4.296029","0.014478","669177","851725","889852","9.957899","3.328587","0.012234","671169","882461","964860","6.346500","2.057687","0.006620","11786","15057","16989","11466","13521","14647","11392","13016","13879","11584","12654","13191","11187","11519","11678","DualSpot on"
"MA200-0420","42369","68","1","1.10","1.6","2023-07-10T18:05:00","120","2023/07/10","18:05:00","-15.795333325862885","35.00282499962486","0.4","13","300","64","80","266","-26812","1695","4","150","149.54","113.67","35.87","25.50","43.8","12.26","0","0.00","DUALSPOT-UV-BLUE-GREEN-RED-IR","543430","653527","910780","22.600728","8.486591","0.014751","622524","852143","837274","16.100771","5.737644","0.014587","623506","836131","830958","13.870420","4.841316","0.014154","663148","850982","892998","11.217075","3.766049","0.011771","663354","877388","962032","7.224621","2.341056","0.004498","11435","15007","17154","10979","13148","14349","10889","12621","13549","11113","12236","12803","10791","11036","11153","DualSpot on"
"MA200-0420","42370","68","1","1.10","1.6","2023-07-10T18:10:00","120","2023/07/10","18:10:00","-15.795880019664764","35.00294699985534","0.5","13","300","64","80","216","-26766","1745","4","150","150.21","113.69","36.52","25.39","43.9","12.23","90396","24.63","DUALSPOT-UV-BLUE-GREEN-RED-IR","528929","644645","907534","24.942062","9.494316","0.014203","614432","850199","841177","17.869664","6.430661","0.014291","615581","833636","833410","15.438227","5.433035","0.013762","651350","842963","888790","12.540455","4.240842","0.011962","659612","877879","965529","8.152046","2.647148","0.004778","12096","16206","18732","11534","14066","15490","11449","13451","14538","11678","13042","13739","11395","11707","11857","DualSpot on"
"MA200-0420","42371","68","1","1.10","1.6","2023-07-10T18:15:00","120","2023/07/10","18:15:00","-15.795690476894379","35.0028159993235","0.0","13","300","64","79","220","-26836","1732","4","150","149.59","113.27","36.31","25.30","44.1","12.19","90400","24.50","DUALSPOT-UV-BLUE-GREEN-RED-IR","518920","640590","911093","27.245598","10.514397","0.014059","601756","841234","838040","19.583424","7.115948","0.014285","604885","826814","831399","16.953126","6.014235","0.013780","641219","836662","886237","13.820782","4.704403","0.011861","652459","873586","963698","9.053818","2.947012","0.005774","11944","16498","19360","11216","13989","15572","11103","13287","14488","11340","12806","13563","11121","11535","11734","DualSpot on"
"MA200-0420","42372","68","1","1.10","1.6","2023-07-10T18:20:00","120","2023/07/10","18:20:00","-15.795697629451752","35.002871999749914","0.0","13","300","64","79","288","-26816","1840","4","150","149.69","113.49","36.20","25.20","44.2","12.15","90404","24.38","DUALSPOT-UV-BLUE-GREEN-RED-IR","506512","632767","909139","29.454002","11.531178","0.014311","590628","833734","836264","21.241142","7.801785","0.015039","598440","825304","834741","18.425022","6.600616","0.015168","636473","836948","890713","15.070271","5.173699","0.014116","645420","869232","961804","9.942543","3.250655","0.009608","11429","16496","19756","10828","14044","15911","10767","13447","14943","11045","13005","14030","10939","11716","12094","DualSpot on"
"MA200-0420","42373","68","1","1.10","1.6","2023-07-10T18:25:00","120","2023/07/10","18:25:00","-15.795724272727966","35.0029314996209","0.4","14","300","64","79","328","-26796","1964","4","150","149.77","113.27","36.50","25.12","44.3","12.12","90412","24.31","DUALSPOT-UV-BLUE-GREEN-RED-IR","493311","623749","905639","31.709114","12.581287","0.013389","582906","830966","839389","22.923588","8.503489","0.013903","588645","819078","833412","19.919060","7.197684","0.013719","627292","831469","889064","16.333248","5.646891","0.012190","643140","871322","967085","10.841537","3.557576","0.007497","11693","16897","20320","11011","14251","16161","10950","13580","15068","11186","13006","13967","11087","11746","12068","DualSpot on"
"MA200-0420","42374","68","1","1.10","1.6","2023-07-10T18:30:00","120","2023/07/10","18:30:00","-15.795790672302246","35.00294433301315","0.6","14","300","64","78","316","-26800","1929","4","150","149.76","113.90","35.85","25.03","44.4","12.08","90408","24.25","DUALSPOT-UV-BLUE-GREEN-RED-IR","480783","615507","904012","34.099140","13.728226","0.013710","571696","823220","837823","24.677848","9.251568","0.014669","578491","812392","831903","21.469802","7.828468","0.014672","616851","824308","885869","17.651348","6.148512","0.013755","635678","866577","964897","11.784290","3.877920","0.008985","12324","18788","23145","11417","15467","17896","11303","14606","16501","11610","14036","15333","11562","12481","12931","DualSpot on"
"MA200-0420","42375","68","1","1.10","1.6","2023-07-10T18:35:00","120","2023/07/10","18:35:00","-15.795625269412994","35.00281983264722","0.1","14","300","64","77","260","-26816","1788","4","150","149.52","113.38","36.14","24.95","44.5","12.04","90412","24.19","DUALSPOT-UV-BLUE-GREEN-RED-IR","470663","609972","906383","36.485108","14.893501","0.012979","558006","811892","832878","26.512752","10.044344","0.013730","570171","808485","833513","23.113010","8.505888","0.013718","610332","822652","888940","19.062970","6.692953","0.012828","627297","860855","961941","12.802372","4.232118","0.009395","12359","18938","23476","11996","16262","18863","12031","15562","17618","12490","15114","16533","12543","13691","14258","DualSpot on"
"MA200-0420","42376","68","1","1.10","1.6","2023-07-10T18:40:00","120","2023/07/10","18:40:00","-15.795722305774689","35.002838499844074","0.1","14","300","64","77","260","-26828","1816","4","150","149.95","113.51","36.44","24.88","44.4","11.91","90412","24.06","DUALSPOT-UV-BLUE-GREEN-RED-IR","460174","603192","906227","38.727708","15.997658","0.012294","552766","812458","840054","28.314754","10.836837","0.013229","561124","803239","833853","24.752038","9.195079","0.013333","601178","817392","888243","20.492038","7.256423","0.012733","624451","862802","967696","13.852425","4.603393","0.009503","11604","17795","22151","11769","16120","18818","11988","15700","17893","12631","15511","17090","12923","14231","14882","DualSpot on"
"MA200-0420","42377","68","1","1.10","1.6","2023-07-10T18:45:00","120","2023/07/10","18:45:00","-15.795804023742676","35.00288966624066","0.6","15","300","64","77","252","-26780","1776","4","150","149.67","113.60","36.07","24.84","44.5","11.91","90408","24.06","DUALSPOT-UV-BLUE-GREEN-RED-IR","449397","595311","904150","40.871248","17.081028","0.012334","541748","804020","837907","30.071038","11.623152","0.013322","551459","796702","832728","26.356876","9.881914","0.013565","592653","812644","888090","21.901100","7.821600","0.013264","617901","859446","967616","14.892635","4.982745","0.012253","11083","17641","22349","11461","16160","19121","11728","15808","18256","12444","15720","17539","12791","14691","15647","DualSpot on"
"MA200-0420","42378","68","1","1.10","1.6","2023-07-10T18:50:00","120","2023/07/10","18:50:00","-15.79586786031723","35.002997666364536","0.1","15","300","64","76","239","-26772","1780","4","150","149.67","113.35","36.32","24.77","44.7","11.93","0","0.00","DUALSPOT-UV-BLUE-GREEN-RED-IR","442579","592374","909655","43.005288","18.183540","0.011971","531649","796444","836726","31.815708","12.427969","0.013174","541697","789608","831145","27.951016","10.584765","0.013489","587472","812220","892767","23.303738","8.399737","0.013273","610469","854659","965987","15.937294","5.370778","0.012154","11058","17830","22791","11410","16427","19644","11676","16066","18743","12414","15970","17974","12874","14925","15967","DualSpot on"
"MA200-0420","42379","68","1","1.10","1.6","2023-07-10T18:55:00","120","2023/07/10","18:55:00","-15.795723140239716","35.00291533302516","0.3","14","300","64","76","328","-26812","1880","4","150","149.41","113.76","35.64","24.72","45.0","11.98","0","0.00","DUALSPOT-UV-BLUE-GREEN-RED-IR","430813","583461","908172","45.531136","19.529262","0.012100","519667","787094","835345","33.919016","13.436381","0.013785","533800","786269","835020","29.879746","11.471390","0.014436","576468","804777","891161","25.010318","9.138844","0.015034","601846","849230","964691","17.224250","5.870843","0.015509","13040","22177","29039","13705","20974","25742","14075","20653","24751","15050","20805","24119","15803","19599","21563","DualSpot on"
"MA200-0420","42380","68","1","1.10","1.6","2023-07-10T19:00:00","120","2023/07/10","19:00:00","-15.795649468898773","35.00289416639134","0.2","14","300","64","75","288","-26803","1780","4","150","149.69","112.99","36.70","24.68","45.2","12.02","90424","23.88","DUALSPOT-UV-BLUE-GREEN-RED-IR","418191","573713","906544","48.318564","21.034912","0.011178","510546","782717","840368","36.285408","14.592622","0.012612","521566","777221","833988","32.070004","12.498733","0.013136","564158","796231","889377","26.964046","10.001940","0.013504","592085","843124","963475","18.725766","6.465536","0.013408","14489","24098","31506","15525","23357","28625","16093","23242","27807","17347","23596","27280","18563","22637","24786","DualSpot on"
"MA200-0420","42381","68","1","1.10","1.6","2023-07-10T19:05:00","120","2023/07/10","19:05:00","-15.79574579000473","35.002928166417405","0.0","14","300","64","74","244","-26752","1935","4","150","150.86","113.74","37.12","24.63","45.3","12.01","90440","23.88","DUALSPOT-UV-BLUE-GREEN-RED-IR","406070","563747","903892","50.981896","22.500084","0.010809","497129","770876","837127","38.568728","15.732990","0.012251","509616","767844","832264","34.192440","13.512513","0.012691","552340","787647","887336","28.863400","10.857534","0.013123","582554","836871","961940","20.200782","7.056305","0.012815","13753","23184","30634","14881","22774","28212","15491","22674","27367","16753","23125","26967","18115","22232","24443","DualSpot on"
"MA200-0420","42382","68","1","1.10","1.6","2023-07-10T19:10:00","120","2023/07/10","19:10:00","-15.795795202255249","35.0029113329947","0.3","14","300","68","74","248","-26780","1935","5","150","149.89","114.45","35.43","24.61","45.4","12.03","90444","23.88","DUALSPOT-UV-BLUE-GREEN-RED-IR","781194","704797","910344","0.000000","0.000000","0.000000","880270","896567","838520","0.000000","0.000000","0.000000","864551","874330","833735","0.000000","0.000000","0.000000","879779","873273","887178","0.000000","0.000000","0.000000","775117","895836","963739","0.000000","0.000000","0.000000","","","","","","","","","","","","","","","","Tape advance-DualSpot on"
"MA200-0420","42383","68","1","1.10","1.6","2023-07-10T19:15:00","120","2023/07/10","19:15:00","-15.795813620090485","35.0028771662619","0.1","13","300","68","74","300","-26808","1970","5","150","149.84","114.37","35.47","24.58","45.6","12.06","90448","23.81","DUALSPOT-UV-BLUE-GREEN-RED-IR","746940","693665","908943","0.000000","0.000000","0.000000","851757","886284","837036","0.000000","0.000000","0.000000","840634","866229","832933","0.000000","0.000000","0.000000","866022","873016","892925","0.000000","0.000000","0.000000","763178","891193","963009","0.000000","0.000000","0.000000","","","","","","","","","","","","","","","","Tape advance-DualSpot on"
"MA200-0420","42384","68","1","1.10","1.6","2023-07-10T19:20:00","120","2023/07/10","19:20:00","-15.79580694437027","35.00294083310291","0.2","13","300","64","73","256","-26780","1756","5","150","150.02","114.33","35.69","24.53","45.8","12.06","0","0.00","DUALSPOT-UV-BLUE-GREEN-RED-IR","719451","683194","906137","3.452118","1.213605","0.047151","834948","883505","841206","2.497694","0.812900","0.000000","821180","858773","831504","2.176294","0.693470","0.000000","849059","866538","891173","1.791921","0.555850","0.000000","757982","892480","967953","1.197198","0.366462","0.000000","17735","19970","21183","16195","16883","16195","15803","16130","15803","15724","15624","15724","14628","14342","14628","DualSpot on"
"MA200-0420","42385","68","1","1.10","1.6","2023-07-10T19:25:00","120","2023/07/10","19:25:00","-15.795726120471954","35.00296683306806","0.2","13","300","64","72","258","-26725","1837","5","150","149.49","114.07","35.42","24.47","45.8","12.02","0","0.00","DUALSPOT-UV-BLUE-GREEN-RED-IR","699158","675159","904302","6.123901","2.199804","0.037134","817652","876137","839542","4.403003","1.459795","0.027821","811311","857894","835169","3.833205","1.240211","0.022089","835843","860965","889326","3.152714","0.988972","0.011118","750089","888765","966562","2.104648","0.645297","0.000000","13757","16352","17806","12382","13537","14111","12059","12814","13175","11968","12267","12403","11113","10996","11113","DualSpot on"
"MA200-0420","42386","68","1","1.10","1.6","2023-07-10T19:30:00","120","2023/07/10","19:30:00","-15.795766949653625","35.002943666419014","0.1","13","300","64","72","212","-26768","1700","5","150","149.74","114.01","35.72","24.43","45.5","11.90","90460","23.63","DUALSPOT-UV-BLUE-GREEN-RED-IR","689332","674328","910369","8.208505","2.992036","0.030567","805001","870644","838356","5.823144","1.945132","0.020579","800530","853427","834202","5.054436","1.644498","0.015291","825545","856157","887117","4.146131","1.303559","0.003682","744144","885714","965177","2.756855","0.844742","0.000000","10739","13025","14336","9234","10071","10491","8892","9395","9637","8741","8834","8877","7991","7798","7991","DualSpot on"
"MA200-0420","42387","68","1","1.10","1.6","2023-07-10T19:35:00","120","2023/07/10","19:35:00","-15.79574829339981","35.00294416653924","0.3","13","300","64","71","266","-26804","1720","5","150","149.65","113.76","35.89","24.38","45.6","11.89","90464","23.63","DUALSPOT-UV-BLUE-GREEN-RED-IR","669211","665667","908483","10.946796","4.069757","0.025831","787862","862996","836761","7.770329","2.630824","0.019250","786359","847775","833480","6.744226","2.219653","0.015623","813966","852139","886972","5.536568","1.754442","0.007108","736924","882750","964743","3.679046","1.130336","-0.007353","14137","17639","19711","12688","14164","14920","12331","13306","13784","12262","12605","12764","11324","11117","11025","DualSpot on"
"MA200-0420","42388","68","1","1.10","1.6","2023-07-10T19:40:00","120","2023/07/10","19:40:00","-15.795847713947296","35.00298066646792","0.3","13","300","64","71","283","-26750","1670","5","150","150.43","114.44","35.99","24.33","45.5","11.79","0","0.00","DUALSPOT-UV-BLUE-GREEN-RED-IR","648411","656603","907017","13.951130","5.285278","0.022615","768932","854617","835475","10.053370","3.455424","0.018336","769542","840638","832282","8.765676","2.923870","0.015857","798627","845609","885162","7.233765","2.318337","0.010583","727674","878661","963759","4.840896","1.498446","0.002163","15419","19834","22527","14789","16983","18131","14665","16243","17032","14879","15717","16112","14182","14286","14332","DualSpot on"
"MA200-0420","42389","68","1","1.10","1.6","2023-07-10T19:45:00","120","2023/07/10","19:45:00","-15.795784175395966","35.00308783305809","0.2","13","300","64","70","276","-26819","1884","5","150","149.44","113.96","35.48","24.28","45.5","11.76","0","0.00","DUALSPOT-UV-BLUE-GREEN-RED-IR","631579","648795","905355","16.406437","6.299114","0.021109","759363","853961","840562","11.921396","4.140466","0.017975","755926","834604","831156","10.422941","3.509509","0.016240","792666","847104","890850","8.631717","2.785562","0.011357","719720","874762","962468","5.813379","1.803869","0.002183","12654","16785","19359","12151","14314","15465","12073","13705","14533","12307","13213","13644","11920","12026","12074","DualSpot on"
"MA200-0420","42390","68","1","1.10","1.6","2023-07-10T19:50:00","120","2023/07/10","19:50:00","-15.795801341533661","35.00290033314377","0.1","13","300","64","70","250","-26758","1325","5","150","150.21","113.85","36.37","24.23","45.1","11.56","0","0.00","DUALSPOT-UV-BLUE-GREEN-RED-IR","620435","645731","909871","18.678958","7.265560","0.018821","744305","845960","838139","13.628465","4.789638","0.016656","743044","828254","829453","11.931465","4.062350","0.015295","780687","841254","888594","9.900087","3.225878","0.011513","716525","876074","966720","6.695957","2.096005","0.007471","11724","15608","18081","11115","13232","14379","11000","12620","13456","11177","12146","12615","10829","11221","11399","DualSpot on"
"MA200-0420","42391","68","1","1.10","1.6","2023-07-10T19:55:00","120","2023/07/10","19:55:00","-15.795692026615143","35.00288733304478","0.2","13","300","64","69","191","-26704","2041","5","150","149.89","113.86","36.02","24.14","44.9","11.41","0","0.00","DUALSPOT-UV-BLUE-GREEN-RED-IR","602709","635869","905310","21.074832","8.299759","0.017813","732688","842248","840416","15.475996","5.502087","0.016379","733067","825616","831878","13.572484","4.672279","0.015504","771693","839051","890624","11.287628","3.715640","0.013026","706704","869649","962762","7.665134","2.420994","0.010497","12359","16862","19787","12028","14661","16113","11965","14056","15154","12226","13639","14333","11890","12602","12931","DualSpot on"
"MA200-0420","42392","68","1","1.10","1.6","2023-07-10T20:00:00","120","2023/07/10","20:00:00","-15.795764923095703","35.00288516632281","0.2","13","300","64","69","162","-26812","2037","5","150","150.29","114.05","36.24","24.05","44.8","11.30","90464","23.25","DUALSPOT-UV-BLUE-GREEN-RED-IR","591117","630322","905075","23.006852","9.162094","0.017473","721967","837148","840040","16.912732","6.072466","0.016556","723886","821668","831845","14.839877","5.154869","0.015699","763494","835789","890566","12.353655","4.098588","0.013219","701948","868010","963309","8.404419","2.670020","0.009616","9950","13975","16639","9339","11666","12971","9226","11055","12028","9377","10600","11208","9055","9598","9851","DualSpot on"
"MA200-0420","42393","68","1","1.10","1.6","2023-07-10T20:05:00","120","2023/07/10","20:05:00","-15.795675694942474","35.00291599961929","0.1","13","300","64","68","236","-26775","2364","5","150","149.67","113.81","35.86","23.94","44.7","11.18","90472","23.13","DUALSPOT-UV-BLUE-GREEN-RED-IR","583821","627892","908035","24.578426","9.872887","0.017133","710632","829584","836288","18.050886","6.526789","0.016324","718926","821079","834411","15.838838","5.536453","0.015527","759815","836251","893729","13.189487","4.397710","0.012819","700047","868994","966228","8.981804","2.859764","0.006582","8111","11641","14011","7413","9391","10511","7287","8833","9664","7368","8367","8867","7087","7390","7532","DualSpot on"
"MA200-0420","42394","68","1","1.10","1.6","2023-07-10T20:10:00","120","2023/07/10","20:10:00","-15.795809507369995","35.002899332903326","0.2","13","300","64","68","233","-26745","1654","5","150","150.47","113.78","36.69","23.81","44.5","11.00","90476","23.00","DUALSPOT-UV-BLUE-GREEN-RED-IR","577126","625519","910613","26.012710","10.533001","0.016067","704627","827724","838004","19.102432","6.956404","0.015483","709908","815375","831654","16.767139","5.900335","0.014890","750785","830407","889984","13.968990","4.683817","0.012328","694470","865163","963749","9.519241","3.043667","0.008672","7403","10567","12720","6851","8680","9728","6773","8234","9027","6873","7823","8303","6598","7002","7191","DualSpot on"
"MA200-0420","42395","68","1","1.10","1.6","2023-07-10T20:15:00","120","2023/07/10","20:15:00","-15.795710682868958","35.00291433301754","0.4","13","300","64","67","256","-26672","1980","5","150","149.65","113.35","36.29","23.66","44.7","10.90","90484","22.88","DUALSPOT-UV-BLUE-GREEN-RED-IR","566478","618399","905696","27.342712","11.139572","0.015263","699902","827054","840668","20.093750","7.353810","0.014158","705210","814354","833407","17.644708","6.237776","0.013440","746811","829920","891825","14.707466","4.947480","0.010052","692788","865992","966326","10.030762","3.213794","0.005381","6891","9816","11827","6483","8117","9060","6427","7719","8425","6536","7288","7670","6303","6548","6663","DualSpot on"
"MA200-0420","42396","68","1","1.10","1.6","2023-07-10T20:20:00","120","2023/07/10","20:20:00","-15.795741498470306","35.00293416646309","0.1","13","300","64","67","300","-26758","1779","5","150","149.71","114.14","35.57","23.50","44.8","10.82","0","0.00","DUALSPOT-UV-BLUE-GREEN-RED-IR","558925","614778","906569","28.767524","11.814995","0.016314","693400","824333","841517","21.123516","7.783983","0.016582","699306","811945","833977","18.548552","6.599669","0.016528","736295","822108","885969","15.463453","5.232262","0.015511","690529","866073","968166","10.545773","3.395059","0.015196","7332","11152","13815","6688","8965","10294","6574","8446","9480","6645","8032","8741","6303","7118","7506","DualSpot on"
"MA200-0420","42397","68","1","1.10","1.6","2023-07-10T20:25:00","120","2023/07/10","20:25:00","-15.79570084810257","35.00290949968621","0.1","13","300","64","66","192","-26716","2019","5","150","149.81","114.05","35.75","23.32","45.0","10.73","0","0.00","DUALSPOT-UV-BLUE-GREEN-RED-IR","548690","609906","908147","30.788350","12.787609","0.015526","679983","814859","836615","22.493024","8.358254","0.015541","688262","804770","830567","19.730986","7.073577","0.015345","731073","821287","888298","16.436684","5.594590","0.013476","683340","860710","964371","11.199966","3.620022","0.011195","10406","15978","19937","8901","11907","13685","8607","11005","12345","8561","10167","10996","8012","8790","9161","DualSpot on"
"MA200-0420","42398","68","1","1.10","1.6","2023-07-10T20:30:00","120","2023/07/10","20:30:00","-15.795743525028229","35.002937332959846","0.2","13","300","64","65","239","-26752","2003","5","150","149.95","113.59","36.37","23.17","45.3","10.67","0","0.00","DUALSPOT-UV-BLUE-GREEN-RED-IR","538851","604528","908062","32.591960","13.665890","0.014509","671002","810104","836393","23.793140","8.913209","0.014610","680514","801169","830679","20.874976","7.539645","0.014324","724070","818299","888319","17.399244","5.961068","0.012844","679346","859448","965194","11.869049","3.855750","0.010910","9326","14185","17693","8485","11312","13006","8361","10640","11928","8502","10110","10948","8228","9055","9452","DualSpot on"
"MA200-0420","42399","68","1","1.10","1.6","2023-07-10T20:35:00","120","2023/07/10","20:35:00","-15.795747339725494","35.00296966615133","0.3","13","300","64","65","191","-26695","1712","5","150","149.94","114.01","35.93","22.99","45.6","10.61","0","0.00","DUALSPOT-UV-BLUE-GREEN-RED-IR","528300","597085","903353","34.056548","14.384228","0.014406","665500","808542","838669","24.897690","9.382831","0.014423","675482","799853","832599","21.858680","7.938755","0.014228","714348","811472","883702","18.235386","6.276998","0.012766","673408","855149","962394","12.461052","4.066108","0.012775","7545","11743","14812","7181","9689","11206","7163","9222","10396","7357","8821","9590","7253","8178","8626","DualSpot on"
"MA200-0420","42400","68","1","1.10","1.6","2023-07-10T20:40:00","120","2023/07/10","20:40:00","-15.79574066400528","35.00296983262524","0.2","13","300","64","64","248","-26740","2056","5","150","151.58","113.74","37.84","22.85","45.9","10.57","90492","22.00","DUALSPOT-UV-BLUE-GREEN-RED-IR","523739","595318","905808","35.199328","14.958393","0.013359","656619","801688","834800","25.780442","9.771670","0.013305","672146","799549","835061","22.649494","8.271816","0.013041","711908","812048","886654","18.913542","6.541062","0.010936","672611","856777","965865","12.942924","4.240648","0.009022","5901","8913","11139","5753","7618","8757","5772","7308","8192","5981","7002","7541","5918","6444","6700","DualSpot on"
"MA200-0420","42401","68","1","1.10","1.6","2023-07-10T20:45:00","120","2023/07/10","20:45:00","-15.795728147029877","35.0030364994891","0.1","14","300","64","64","192","-26660","1776","5","150","150.01","114.51","35.50","22.71","46.0","10.49","90492","21.88","DUALSPOT-UV-BLUE-GREEN-RED-IR","520726","595255","910963","36.340900","15.532543","0.014330","653552","802039","838567","26.700110","10.179050","0.015330","665590","795576","833829","23.479224","8.624104","0.015702","711427","815042","892477","19.630606","6.826613","0.015470","668378","854130","964725","13.453609","4.429548","0.016614","5855","9499","12218","5953","8506","10079","6015","8238","9528","6282","8069","9022","6230","7433","8023","DualSpot on"
"MA200-0420","42402","68","1","1.10","1.6","2023-07-10T20:50:00","120","2023/07/10","20:50:00","-15.795751810073853","35.00296533317305","0.1","14","300","64","64","266","-26779","2075","5","150","149.79","114.47","35.32","22.60","46.3","10.47","90492","21.75","DUALSPOT-UV-BLUE-GREEN-RED-IR","512586","588987","906100","37.382268","16.058132","0.014099","650463","802023","841672","27.538098","10.549898","0.015001","658125","790053","830701","24.232358","8.943665","0.015386","703367","808976","888083","20.277606","7.082307","0.014864","663322","850139","961861","13.916718","4.599045","0.015630","5343","8740","11297","5427","7783","9246","5462","7511","8709","5670","7262","8117","5651","6703","7222","DualSpot on"
"MA200-0420","42403","68","1","1.10","1.6","2023-07-10T20:55:00","120","2023/07/10","20:55:00","-15.795830130577087","35.00296816625632","0.3","14","300","64","64","192","-26772","2052","5","150","149.84","114.37","35.47","22.48","46.4","10.41","90500","21.63","DUALSPOT-UV-BLUE-GREEN-RED-IR","509842","588456","909514","38.301376","16.525078","0.013807","643509","796640","838732","28.268630","10.875833","0.014723","656366","790903","833921","24.889130","9.223532","0.014976","702938","811218","892525","20.842514","7.306177","0.014376","663276","852263","965702","14.317600","4.746620","0.015268","4720","7732","10018","4735","6812","8111","4767","6551","7600","4955","6332","7075","4896","5812","6266","DualSpot on"
"MA200-0420","42404","68","1","1.10","1.6","2023-07-10T21:00:00","120","2023/07/10","21:00:00","-15.795805990695953","35.00292733311653","0.1","13","300","64","63","220","-26691","2252","5","150","149.71","114.37","35.34","22.38","46.4","10.33","90504","21.56","DUALSPOT-UV-BLUE-GREEN-RED-IR","504459","584517","907220","39.109460","16.946740","0.014025","637430","791791","836111","28.906542","11.171622","0.015541","650744","786672","831573","25.464700","9.477593","0.015926","697115","806824","889517","21.335916","7.510072","0.016041","659566","849337","963614","14.669243","4.878347","0.016443","4150","7007","9192","4134","6204","7507","4178","5967","7028","4328","5787","6580","4295","5206","5660","DualSpot on"
"MA200-0420","42405","68","1","1.10","1.6","2023-07-10T21:05:00","120","2023/07/10","21:05:00","-15.795718610286713","35.00290766637772","0.6","13","300","64","62","262","-26620","2012","5","150","149.47","113.84","35.63","22.28","46.6","10.31","90500","21.44","DUALSPOT-UV-BLUE-GREEN-RED-IR","498976","580468","904755","39.930464","17.370468","0.013389","636433","793450","840364","29.567868","11.472053","0.014358","645662","783117","829964","26.058892","9.735801","0.014689","691244","802492","886554","21.850012","7.717401","0.014119","656151","846908","962208","15.039661","5.016474","0.014839","4236","6985","9102","4306","6251","7483","4333","6016","7020","4530","5838","6552","4545","5415","5851","DualSpot on"
"MA200-0420","42406","68","1","1.10","1.6","2023-07-10T21:10:00","120","2023/07/10","21:10:00","-15.795750319957733","35.00295083317906","0.1","13","300","64","62","268","-26712","1968","5","150","149.93","113.70","36.23","22.21","46.6","10.23","90492","21.38","DUALSPOT-UV-BLUE-GREEN-RED-IR","497278","580651","908787","40.712652","17.779758","0.013084","630473","788673","837792","30.200656","11.765208","0.014120","644547","784279","833296","26.631948","9.990434","0.014529","691310","804894","891063","22.345130","7.923630","0.014429","656543","849280","966194","15.393505","5.150839","0.014526","4040","6635","8646","4125","5998","7193","4184","5834","6825","4368","5710","6447","4347","5180","5599","DualSpot on"
"MA200-0420","42407","68","1","1.10","1.6","2023-07-10T21:15:00","120","2023/07/10","21:15:00","-15.79570883512497","35.00301649956964","0.2","13","300","64","61","175","-26687","2100","5","150","149.35","114.10","35.25","22.13","46.7","10.20","90492","21.31","DUALSPOT-UV-BLUE-GREEN-RED-IR","491847","576731","906781","41.585204","18.234730","0.013240","623822","783408","834963","30.925296","12.100406","0.014541","639668","781195","832470","27.289660","10.282269","0.015091","686212","801653","889569","22.916760","8.159909","0.015022","652982","846810","964933","15.806831","5.310940","0.017499","4491","7581","9994","4708","7049","8555","4785","6873","8136","5026","6725","7664","5060","6345","6995","DualSpot on"
"MA200-0420","42408","68","1","1.10","1.6","2023-07-10T21:20:00","120","2023/07/10","21:20:00","-15.795689344406128","35.002937332959846","0.3","13","300","64","61","296","-26684","1965","5","150","150.15","114.18","35.97","22.06","46.8","10.17","90484","21.25","DUALSPOT-UV-BLUE-GREEN-RED-IR","490218","577058","911198","42.411036","18.669372","0.012852","623375","785702","840063","31.606246","12.418286","0.014000","638085","781953","835547","27.910324","10.558321","0.014277","679993","796868","886267","23.457216","8.385412","0.014305","648944","843631","962761","16.198746","5.460539","0.014943","4248","7097","9338","4421","6551","7930","4513","6371","7502","4748","6289","7147","4795","5810","6326","DualSpot on"
"MA200-0420","42409","68","1","1.10","1.6","2023-07-10T21:25:00","120","2023/07/10","21:25:00","-15.795826971530914","35.002964166458696","0.1","12","300","64","61","276","-26744","1948","5","150","149.94","114.14","35.81","21.98","46.9","10.11","90480","21.13","DUALSPOT-UV-BLUE-GREEN-RED-IR","485544","573394","908821","43.108920","19.041736","0.012912","617711","780869","837135","32.169578","12.682703","0.013998","633789","778872","834176","28.419668","10.786088","0.014313","681544","800744","892181","23.896198","8.567786","0.014053","650384","847168","967919","16.516323","5.581260","0.014672","3591","6108","8099","3658","5474","6656","3704","5281","6245","3858","5110","5809","3886","4709","5130","DualSpot on"
"MA200-0420","42410","68","1","1.10","1.6","2023-07-10T21:30:00","120","2023/07/10","21:30:00","-15.795731127262115","35.00294533325359","0.3","12","300","64","60","166","-26695","2129","5","150","149.47","113.91","35.55","21.90","47.0","10.06","90472","21.06","DUALSPOT-UV-BLUE-GREEN-RED-IR","480384","569135","905412","43.802404","19.414044","0.012875","617122","782420","840992","32.724232","12.946436","0.014184","629269","775424","832362","28.918480","11.013671","0.014774","676438","796720","889338","24.327568","8.750932","0.014803","647026","844380","965933","16.826588","5.701655","0.015987","3575","6150","8200","3609","5499","6736","3635","5314","6347","3799","5168","5937","3804","4730","5205","DualSpot on"
"MA200-0420","42411","68","1","1.10","1.6","2023-07-10T21:35:00","120","2023/07/10","21:35:00","-15.795729339122772","35.00294766644947","0.1","12","300","64","60","232","-26703","2212","5","150","149.61","114.43","35.18","21.81","47.2","10.07","0","0.00","DUALSPOT-UV-BLUE-GREEN-RED-IR","478838","569279","909185","44.538408","19.802162","0.012640","611762","778006","838580","33.312412","13.222045","0.013960","624018","771172","829777","29.449072","11.251983","0.014509","676331","798739","893311","24.787028","8.942932","0.014518","643281","841266","963564","17.159928","5.828379","0.015374","3777","6480","8643","3810","5808","7122","3849","5624","6721","4028","5475","6292","4069","5032","5527","DualSpot on"
"MA200-0420","42412","68","1","1.10","1.6","2023-07-10T21:40:00","120","2023/07/10","21:40:00","-15.795815467834473","35.00294716656208","0.3","12","300","64","59","237","-26670","2104","5","150","149.35","113.54","35.81","21.73","47.5","10.06","0","0.00","DUALSPOT-UV-BLUE-GREEN-RED-IR","474188","565610","906877","45.261008","20.193520","0.012465","606299","773404","835969","33.898140","13.504406","0.013792","623416","772652","833418","29.980304","11.497792","0.014374","671449","795047","890985","25.250004","9.142970","0.014531","644014","843930","967923","17.499238","5.960472","0.014973","3738","6418","8577","3824","5844","7182","3884","5698","6826","4091","5603","6462","4174","5152","5657","DualSpot on"
"MA200-0420","42413","68","1","1.10","1.6","2023-07-10T21:45:00","120","2023/07/10","21:45:00","-15.795810163021088","35.00298449979164","0.2","12","300","64","59","316","-26724","1988","5","150","149.63","114.18","35.45","21.64","47.6","10.02","0","0.00","DUALSPOT-UV-BLUE-GREEN-RED-IR","469395","561713","904022","45.967904","20.577106","0.012513","605603","774895","839917","34.484252","13.784374","0.013714","618748","769106","831620","30.514806","11.741555","0.014175","666105","790828","887975","25.715072","9.341387","0.014395","640460","841024","965880","17.839332","6.094094","0.016110","3636","6355","8559","3805","5855","7219","3886","5709","6849","4086","5615","6488","4161","5265","5839","DualSpot on"
"MA200-0420","42414","68","1","1.10","1.6","2023-07-10T21:50:00","120","2023/07/10","21:50:00","-15.795819163322449","35.00296983262524","0.4","12","300","64","58","225","-26700","1970","5","150","150.15","114.06","36.09","21.55","47.9","10.03","0","0.00","DUALSPOT-UV-BLUE-GREEN-RED-IR","468361","562400","908956","46.723832","20.990468","0.012187","599823","770015","837178","35.114944","14.089335","0.013349","617537","769999","834775","31.089932","12.006265","0.013688","665985","792960","892316","26.221516","9.559216","0.013779","636675","837934","963750","18.211902","6.241675","0.015217","3892","6727","9040","4099","6264","7715","4186","6089","7287","4454","6055","6974","4563","5712","6312","DualSpot on"
"MA200-0420","42415","68","1","1.10","1.6","2023-07-10T21:55:00","120","2023/07/10","21:55:00","-15.795731902122498","35.0029308332596","0.0","12","300","64","58","296","-26703","2164","5","150","149.84","114.25","35.58","21.49","48.3","10.09","90460","20.69","DUALSPOT-UV-BLUE-GREEN-RED-IR","464538","559730","908385","47.484992","21.404210","0.012125","595518","767030","836501","35.754656","14.394541","0.013174","613605","767498","834307","31.672296","12.274098","0.013820","661563","790019","890954","26.731644","9.776690","0.013756","634095","836480","963495","18.590706","6.389721","0.015049","3913","6829","9223","4150","6358","7846","4231","6249","7525","4479","6131","7084","4631","5812","6430","DualSpot on"
"MA200-0420","42416","68","1","1.10","1.6","2023-07-10T22:00:00","120","2023/07/10","22:00:00","-15.795828640460968","35.00293316622265","0.3","12","300","64","58","144","-26788","2304","5","150","149.94","114.80","35.14","21.45","48.5","10.12","90472","20.63","DUALSPOT-UV-BLUE-GREEN-RED-IR","460670","556585","906350","48.098856","21.747276","0.012497","596224","769910","841729","36.261900","14.644600","0.013951","609679","764423","832772","32.135136","12.491047","0.014468","657883","787388","889567","27.137752","9.953943","0.014815","634868","839047","967579","18.895782","6.510254","0.016255","3140","5733","7873","3275","5274","6629","3347","5125","6255","3549","5060","5935","3712","4791","5358","DualSpot on"
"MA200-0420","42417","68","1","1.10","1.6","2023-07-10T22:05:00","120","2023/07/10","22:05:00","-15.79578697681427","35.00294683338143","0.2","12","300","64","57","264","-26712","1943","5","150","149.81","114.14","35.67","21.44","48.7","10.19","90468","20.69","DUALSPOT-UV-BLUE-GREEN-RED-IR","458230","554860","906291","48.627876","22.053212","0.012520","588899","762046","834960","36.697312","14.865164","0.013916","607412","763175","832970","32.531380","12.681033","0.014350","655474","786028","889393","27.486408","10.109782","0.014733","633411","838419","967874","19.155014","6.612753","0.015050","2722","5037","6959","2828","4584","5779","2882","4422","5405","3064","4383","5150","3172","4014","4457","DualSpot on"
"MA200-0420","42418","68","1","1.10","1.6","2023-07-10T22:10:00","120","2023/07/10","22:10:00","-15.795811533927917","35.00295083317906","0.3","12","300","64","57","275","-26754","2058","5","150","149.44","114.02","35.42","21.45","48.6","10.17","90456","20.69","DUALSPOT-UV-BLUE-GREEN-RED-IR","456391","553788","907116","49.115968","22.335544","0.012472","586816","760931","835463","37.107128","15.072118","0.013827","605595","762369","833619","32.906216","12.859899","0.014227","654419","786219","890885","27.813368","10.253491","0.014260","628856","833592","963243","19.398842","6.709365","0.015281","2514","4682","6490","2664","4331","5472","2729","4192","5131","2876","4070","4768","2987","3810","4245","DualSpot on"
"MA200-0420","42419","68","1","1.10","1.6","2023-07-10T22:15:00","120","2023/07/10","22:15:00","-15.795772731304169","35.00288449972868","0.1","12","300","64","56","287","-26704","2041","5","150","150.60","114.27","36.33","21.45","48.6","10.16","90452","20.69","DUALSPOT-UV-BLUE-GREEN-RED-IR","453394","551444","905986","49.648316","22.635376","0.011812","588244","764478","841205","37.546448","15.290282","0.012962","602945","760645","833295","33.307488","13.050538","0.013461","651661","784431","890252","28.164040","10.408511","0.013580","626791","832196","962617","19.660762","6.811059","0.012862","2736","4847","6616","2850","4451","5552","2915","4356","5285","3078","4281","4985","3202","3910","4285","DualSpot on"
"MA200-0420","42420","68","1","1.10","1.6","2023-07-10T22:20:00","120","2023/07/10","22:20:00","-15.795835852622986","35.00290649966337","0.1","11","300","64","56","296","-26740","1868","5","150","150.21","113.89","36.33","21.45","48.9","10.25","90448","20.63","DUALSPOT-UV-BLUE-GREEN-RED-IR","451045","549918","906371","50.211488","22.954528","0.011723","581132","757030","834947","38.015480","15.522754","0.012719","600008","758646","832787","33.730944","13.250123","0.013053","648842","782674","889712","28.538150","10.571633","0.012904","628221","835529","967534","19.940190","6.920778","0.013107","2904","5160","7060","3053","4744","5911","3086","4561","5515","3295","4505","5216","3427","4219","4640","DualSpot on"
"MA200-0420","42421","68","1","1.10","1.6","2023-07-10T22:25:00","120","2023/07/10","22:25:00","-15.795741856098175","35.00290833320469","0.3","12","300","68","56","308","-26732","2144","6","150","149.94","114.55","35.39","21.45","49.1","10.33","90460","20.69","DUALSPOT-UV-BLUE-GREEN-RED-IR","805630","707877","910476","0.000000","0.000000","0.000000","901097","896788","837296","0.000000","0.000000","0.000000","880884","872290","830962","0.000000","0.000000","0.000000","900718","877856","891187","0.000000","0.000000","0.000000","786702","896560","965428","0.000000","0.000000","0.000000","","","","","","","","","","","","","","","","Tape advance-DualSpot on"
"MA200-0420","42422","68","1","1.10","1.6","2023-07-10T22:30:00","120","2023/07/10","22:30:00","-15.795830309391022","35.00299199973233","0.1","12","300","68","55","256","-26680","2019","6","150","150.08","114.06","36.02","21.45","49.7","10.51","90472","20.69","DUALSPOT-UV-BLUE-GREEN-RED-IR","790453","702529","908835","0.000000","0.000000","0.000000","889969","892423","836314","0.000000","0.000000","0.000000","872504","869468","830857","0.000000","0.000000","0.000000","893819","875502","890911","0.000000","0.000000","0.000000","782940","895102","965230","0.000000","0.000000","0.000000","","","","","","","","","","","","","","","","Tape advance-DualSpot on"
"MA200-0420","42423","68","1","1.10","1.6","2023-07-10T22:35:00","120","2023/07/10","22:35:00","-15.795765101909637","35.00290649966337","0.3","12","300","64","55","269","-26680","2103","6","150","149.38","114.14","35.24","21.48","50.3","10.70","90468","20.69","DUALSPOT-UV-BLUE-GREEN-RED-IR","781170","700419","910242","1.336992","0.452150","0.000000","883868","891205","837398","0.821405","0.267011","0.000000","866859","867823","831095","0.678467","0.217014","0.000000","888885","873774","890613","0.519084","0.162920","0.000000","780269","894024","964940","0.316608","0.093314","0.000000","6880","7536","6880","5335","5617","5335","4935","5112","4935","4562","4638","4562","3875","3699","3875","DualSpot on"
"MA200-0420","42424","68","1","1.10","1.6","2023-07-10T22:40:00","120","2023/07/10","22:40:00","-15.795699298381805","35.00299233291298","0.4","13","300","64","55","304","-26787","2025","6","150","149.76","114.18","35.58","21.49","51.0","10.94","90460","20.69","DUALSPOT-UV-BLUE-GREEN-RED-IR","771809","697454","910106","2.531934","0.864536","0.000000","877225","888920","837239","1.560270","0.507086","0.000000","860854","865391","830373","1.286470","0.410968","0.000000","884360","872110","890187","0.982938","0.305104","0.000000","778236","893463","965106","0.593801","0.173078","0.000000","6147","6808","6147","4797","5002","4797","4421","4525","4421","4075","4009","4075","3391","3131","3391","DualSpot on"
"MA200-0420","42425","68","1","1.10","1.6","2023-07-10T22:45:00","120","2023/07/10","22:45:00","-15.795828819274902","35.00294216652401","0.2","13","300","64","54","396","-26719","2232","6","150","149.41","113.97","35.43","21.46","51.6","11.07","90464","20.69","DUALSPOT-UV-BLUE-GREEN-RED-IR","760389","692675","907823","3.770454","1.302515","0.046019","875840","892124","842437","2.330774","0.763046","0.000000","854137","862325","829128","1.920253","0.616670","0.000000","878424","869156","888527","1.470377","0.458663","0.000000","774484","891004","963301","0.886751","0.257574","0.000000","6382","7259","7722","5011","5354","5011","4616","4819","4616","4290","4347","4290","3590","3331","3590","DualSpot on"
"MA200-0420","42426","68","1","1.10","1.6","2023-07-10T22:50:00","120","2023/07/10","22:50:00","-15.795719683170319","35.002905666362494","0.3","13","300","64","54","192","-26736","1940","6","150","149.87","114.05","35.82","21.39","52.3","11.21","90468","20.56","DUALSPOT-UV-BLUE-GREEN-RED-IR","748008","686893","904438","5.035988","1.764652","0.039780","864393","885000","837942","3.113997","1.030480","0.037032","852027","863930","832425","2.566200","0.832218","0.000000","878533","872199","893043","1.966031","0.617134","0.000000","775185","893716","967013","1.181692","0.343558","0.000000","6517","7577","8150","5090","5534","5754","4702","4995","4702","4360","4438","4360","3612","3353","3612","DualSpot on"
"MA200-0420","42427","68","1","1.10","1.6","2023-07-10T22:55:00","120","2023/07/10","22:55:00","-15.795800745487213","35.002961666556075","0.0","13","300","64","53","229","-26666","1895","6","150","150.08","114.45","35.63","21.28","52.9","11.29","90468","20.38","DUALSPOT-UV-BLUE-GREEN-RED-IR","734986","683674","906975","7.078050","2.515907","0.031092","853920","882922","840317","4.615450","1.549583","0.030947","843508","862711","834955","3.871780","1.271606","0.027852","864758","864762","888576","3.040836","0.968802","0.022951","767143","888837","963954","1.907890","0.569993","0.000000","10479","12385","13436","9725","10801","11345","9470","10239","10615","9421","9903","10128","8863","8878","8863","DualSpot on"
"MA200-0420","42428","68","1","1.10","1.6","2023-07-10T23:00:00","120","2023/07/10","23:00:00","-15.795714318752289","35.00294549996033","0.2","13","300","64","53","276","-26763","2040","6","150","149.86","114.13","35.73","21.15","53.6","11.35","90472","20.31","DUALSPOT-UV-BLUE-GREEN-RED-IR","728738","683136","910704","8.336218","3.001958","0.032140","843155","876387","836507","5.428201","1.835453","0.029007","834546","857394","831753","4.555362","1.505578","0.026895","863712","866854","892229","3.576808","1.140499","0.009297","767518","891329","967610","2.234638","0.667322","0.000000","6474","7991","8844","5279","5931","6265","4972","5437","5666","4711","4821","4873","3999","3805","3999","DualSpot on"
"MA200-0420","42429","68","1","1.10","1.6","2023-07-10T23:05:00","120","2023/07/10","23:05:00","-15.795733511447906","35.002934999763966","0.1","12","300","64","52","196","-26663","2043","6","150","150.47","114.38","36.10","21.04","54.1","11.40","0","0.00","DUALSPOT-UV-BLUE-GREEN-RED-IR","717512","677681","907819","9.572996","3.486669","0.028782","840439","878082","840506","6.229282","2.121776","0.026862","832175","858722","834920","5.224844","1.736772","0.023669","855524","861683","888457","4.103550","1.312086","0.011002","762855","887928","964840","2.559316","0.763827","0.000000","6351","7887","8766","5192","5880","6235","4859","5317","5545","4620","4769","4838","3965","3734","3965","DualSpot on"
"MA200-0420","42430","68","1","1.10","1.6","2023-07-10T23:10:00","120","2023/07/10","23:10:00","-15.79578024148941","35.00292649958283","0.3","12","300","64","51","220","-26728","2052","6","150","149.63","113.98","35.65","20.94","54.5","11.42","0","0.00","DUALSPOT-UV-BLUE-GREEN-RED-IR","705552","671247","903572","10.790287","3.977121","0.029053","830056","871605","836734","7.023464","2.413005","0.029639","823649","853595","831937","5.892626","1.973808","0.028641","853883","863058","891415","4.629583","1.489423","0.022273","757902","884183","961728","2.888368","0.865587","0.000000","6272","8081","9137","5165","6056","6523","4864","5520","5851","4630","4991","5162","4032","3988","4032","DualSpot on"
"MA200-0420","42431","68","1","1.10","1.6","2023-07-10T23:15:00","120","2023/07/10","23:15:00","-15.795725166797638","35.0029544995632","0.5","12","300","64","51","228","-26747","2284","6","150","150.42","114.30","36.12","20.83","55.1","11.47","90460","19.94","DUALSPOT-UV-BLUE-GREEN-RED-IR","700264","670965","907623","11.987606","4.462913","0.025988","827615","873413","840919","7.813825","2.702928","0.025266","816105","849425","829857","6.559432","2.209282","0.022959","846486","858583","888383","5.159563","1.666223","0.014744","758398","886809","965567","3.221571","0.967396","-0.015376","6152","7900","8936","5126","5950","6386","4843","5412","5702","4651","4911","5034","4072","3937","3880","DualSpot on"
"MA200-0420","42432","68","1","1.10","1.6","2023-07-10T23:20:00","120","2023/07/10","23:20:00","-15.795762777328491","35.00290199974552","0.3","12","300","64","51","252","-26688","2100","6","150","150.02","114.30","35.72","20.71","55.5","11.47","90468","19.88","DUALSPOT-UV-BLUE-GREEN-RED-IR","690221","665962","905318","13.178934","4.957103","0.026113","818535","868113","838297","8.605747","2.998149","0.026537","814060","850931","833315","7.228566","2.450132","0.025827","846463","861592","893121","5.693321","1.846796","0.019114","754607","884413","963962","3.557870","1.072129","-0.001417","6122","8126","9334","5136","6127","6656","4860","5598","5976","4685","5071","5257","4110","4095","4089","DualSpot on"
"MA200-0420","42433","68","1","1.10","1.6","2023-07-10T23:25:00","120","2023/07/10","23:25:00","-15.795713603496552","35.00296733295545","0.3","12","300","64","50","192","-26675","2196","6","150","149.56","114.18","35.38","20.55","55.9","11.45","0","0.00","DUALSPOT-UV-BLUE-GREEN-RED-IR","679791","660475","902332","14.368732","5.458034","0.025500","809201","862448","835388","9.403227","3.303564","0.028355","807419","847600","832120","7.906175","2.699846","0.028229","839755","857813","890854","6.231992","2.031992","0.022414","750760","881946","962332","3.898998","1.181564","0.012336","6120","8315","9660","5177","6398","7060","4927","5859","6342","4733","5251","5501","4173","4320","4384","DualSpot on"
"MA200-0420","42434","68","1","1.10","1.6","2023-07-10T23:30:00","120","2023/07/10","23:30:00","-15.795753479003906","35.0029294998385","0.2","13","300","64","49","260","-26600","2156","6","150","150.03","114.61","35.42","20.41","56.5","11.46","0","0.00","DUALSPOT-UV-BLUE-GREEN-RED-IR","674327","659666","905855","15.565329","5.967012","0.024358","805544","862869","838366","10.211434","3.612506","0.026285","804450","848179","834783","8.593010","2.953410","0.026631","831628","852553","887117","6.785469","2.224898","0.023569","751306","884687","966411","4.250847","1.295117","0.014134","6132","8441","9876","5227","6466","7145","4975","5944","6451","4844","5464","5767","4288","4479","4562","DualSpot on"
"MA200-0420","42435","68","1","1.10","1.6","2023-07-10T23:35:00","120","2023/07/10","23:35:00","-15.795704007148743","35.00283699971624","0.4","13","300","64","49","260","-26616","2140","6","150","149.44","114.30","35.14","20.19","57.1","11.43","0","0.00","DUALSPOT-UV-BLUE-GREEN-RED-IR","666739","656616","906296","16.743919","6.476940","0.023835","799440","860542","838708","11.015147","3.921855","0.025526","794589","841398","830222","9.279662","3.207696","0.025659","828344","852295","888525","7.337805","2.416338","0.021744","744861","879220","961547","4.606842","1.409020","0.012013","6056","8523","10079","5212","6525","7251","4987","6007","6546","4848","5465","5768","4351","4527","4605","DualSpot on"
"MA200-0420","42436","68","1","1.10","1.6","2023-07-10T23:40:00","120","2023/07/10","23:40:00","-15.795808374881744","35.002886166097596","0.7","13","300","64","48","252","-26650","2191","6","150","149.95","114.10","35.85","20.03","57.8","11.45","0","0.00","DUALSPOT-UV-BLUE-GREEN-RED-IR","661442","655592","909492","17.894604","6.986297","0.022430","789266","853631","834561","11.801334","4.232431","0.024255","791762","841923","832871","9.949041","3.461981","0.024394","827521","854422","892486","7.881732","2.610225","0.021231","744807","881251","964831","4.955993","1.521996","0.008309","5923","8344","9895","5108","6421","7156","4870","5888","6431","4782","5425","5743","4274","4402","4458","DualSpot on"
"MA200-0420","42437","68","1","1.10","1.6","2023-07-10T23:45:00","120","2023/07/10","23:45:00","-15.795701146125793","35.00284616649151","0.1","13","300","64","47","212","-26656","2476","6","150","149.90","114.22","35.68","19.92","58.2","11.47","90448","19.00","DUALSPOT-UV-BLUE-GREEN-RED-IR","651390","649616","905719","19.013008","7.487182","0.021931","786277","854314","837806","12.568068","4.541719","0.024919","784088","837086","830178","10.604429","3.716529","0.025691","819215","848688","888184","8.409192","2.803202","0.024287","740213","877860","962254","5.303236","1.638067","0.017334","5751","8245","9864","4976","6425","7245","4763","5922","6547","4633","5425","5822","4247","4544","4677","DualSpot on"
"MA200-0420","42438","68","1","1.10","1.6","2023-07-10T23:50:00","120","2023/07/10","23:50:00","-15.795819878578186","35.002874499652535","0.0","13","300","64","47","232","-26660","2424","6","150","150.15","114.48","35.66","19.81","58.7","11.49","90444","18.88","DUALSPOT-UV-BLUE-GREEN-RED-IR","647410","649448","909913","20.091266","7.975441","0.021365","783851","855433","841442","13.310355","4.842520","0.024118","782575","838708","833857","11.238254","3.964532","0.025219","820001","852270","893631","8.921354","2.991117","0.023649","741077","880808","966589","5.637209","1.750399","0.018375","5532","8041","9692","4806","6252","7079","4596","5773","6414","4488","5286","5688","4075","4399","4546","DualSpot on"
"MA200-0420","42439","68","1","1.10","1.6","2023-07-10T23:55:00","120","2023/07/10","23:55:00","-15.795787155628204","35.002899166196585","0.4","13","300","64","47","304","-26552","2788","6","150","149.91","114.14","35.77","19.71","59.2","11.52","90436","18.81","DUALSPOT-UV-BLUE-GREEN-RED-IR","639289","644932","907934","21.134872","8.453194","0.020557","776799","851365","839902","14.030292","5.135638","0.022860","775614","834329","831525","11.854597","4.205799","0.023506","813134","847798","890594","9.422875","3.176316","0.022512","736972","877889","964433","5.968389","1.860551","0.013733","5370","7845","9495","4675","6075","6883","4483","5600","6214","4408","5195","5595","4053","4302","4415","DualSpot on"
"MA200-0420","42440","68","1","1.10","1.6","2023-07-11T00:00:00","120","2023/07/11","00:00:00","-15.79573130607605","35.002860999666154","0.2","13","300","64","46","172","-26508","2852","6","150","150.00","114.74","35.26","19.65","59.6","11.57","90440","18.75","DUALSPOT-UV-BLUE-GREEN-RED-IR","631409","640456","905936","22.155606","8.929253","0.020962","769668","847026","838063","14.737988","5.431074","0.024569","770040","831391","830615","12.462124","4.448641","0.025570","807190","844159","888423","9.915458","3.362550","0.026063","733702","875853","963289","6.294927","1.971849","0.021783","5225","7930","9756","4572","6211","7167","4395","5717","6451","4306","5298","5807","3975","4409","4607","DualSpot on"
"MA200-0420","42441","68","1","1.10","1.6","2023-07-11T00:05:00","120","2023/07/11","00:05:00","-15.795826017856598","35.002959833014756","0.1","13","300","72","46","248","-26544","2836","6","150","149.33","114.25","35.08","19.58","60.0","11.61","90444","18.69","DUALSPOT-UV-BLUE-GREEN-RED-IR","623774","636010","903714","23.128334","9.385384","0.020331","762437","842400","835859","15.415480","5.713666","0.023548","666600","722222","723193","13.044417","4.681373","0.024540","801831","841070","886726","10.391272","3.540660","0.024019","735149","879450","968221","6.611355","2.077169","0.016530","5000","7638","9439","4396","5972","6901","4231","5508","6223","4178","5094","5568","3868","4194","4343","DualSpot on"
"MA200-0420","42442","68","1","1.10","1.6","2023-07-11T00:10:00","120","2023/07/11","00:10:00","-15.795790314674377","35.00292716640979","0.0","13","300","64","45","172","-26547","3116","6","150","149.86","114.48","35.38","19.54","60.4","11.65","90444","18.63","DUALSPOT-UV-BLUE-GREEN-RED-IR","622182","637436","909797","24.053566","9.829601","0.020102","762238","845314","841080","16.063747","5.989218","0.023313","763963","830445","833490","13.603095","4.909449","0.024581","797611","839006","886107","10.847638","3.716496","0.025162","732140","877613","967257","6.918735","2.183610","0.021646","4746","7375","9191","4197","5774","6711","4051","5352","6086","3999","4986","5500","3750","4202","4411","DualSpot on"
"MA200-0420","42443","68","1","1.10","1.6","2023-07-11T00:15:00","120","2023/07/11","00:15:00","-15.795781791210175","35.00295399967581","0.1","13","300","64","45","233","-26441","3287","6","150","150.27","114.37","35.90","19.52","60.6","11.70","90444","18.63","DUALSPOT-UV-BLUE-GREEN-RED-IR","616159","634192","909065","24.945790","10.261723","0.019230","756677","842155","840191","16.690313","6.260675","0.022658","759537","828244","833150","14.142879","5.132735","0.023524","800106","843882","892801","11.288620","3.889083","0.024219","729510","876165","966676","7.218290","2.289562","0.021674","4582","7069","8806","4061","5604","6531","3918","5163","5872","3868","4822","5324","3658","4122","4337","DualSpot on"
"MA200-0420","42444","68","1","1.10","1.6","2023-07-11T00:20:00","120","2023/07/11","00:20:00","-15.795812785625458","35.00301599968225","0.1","13","300","64","44","244","-26460","3504","6","150","149.47","114.03","35.44","19.48","60.9","11.74","90448","18.63","DUALSPOT-UV-BLUE-GREEN-RED-IR","610144","630778","908069","25.820904","10.688702","0.019093","751303","839091","839374","17.307832","6.527469","0.022251","754160","824965","831666","14.676334","5.353408","0.023340","794701","840421","890658","11.726398","4.059380","0.023698","726495","874249","965549","7.514601","2.391239","0.017622","4507","7076","8891","4014","5580","6529","3884","5169","5907","3851","4821","5334","3630","4007","4184","DualSpot on"
"MA200-0420","42445","68","1","1.10","1.6","2023-07-11T00:25:00","120","2023/07/11","00:25:00","-15.795799612998962","35.0029558329843","0.1","12","300","64","43","308","-26460","3516","6","150","150.28","114.61","35.66","19.47","61.1","11.78","90432","18.56","DUALSPOT-UV-BLUE-GREEN-RED-IR","605608","628788","908942","26.663276","11.103218","0.018717","747591","837748","840217","17.903904","6.788524","0.022131","751317","824299","832825","15.192013","5.570654","0.023594","791930","839637","891343","12.150028","4.227246","0.024315","725264","874373","966678","7.803596","2.492230","0.019616","4316","6826","8617","3855","5426","6385","3735","5057","5822","3708","4722","5263","3522","3955","4159","DualSpot on"
"MA200-0420","42446","68","1","1.10","1.6","2023-07-11T00:30:00","120","2023/07/11","00:30:00","-15.795789361000061","35.002984166378155","0.1","13","300","64","42","268","-26428","3628","6","150","149.50","114.77","34.73","19.45","61.3","11.80","90440","18.63","DUALSPOT-UV-BLUE-GREEN-RED-IR","600129","625662","908081","27.473424","11.505657","0.019099","742488","834727","839296","18.479726","7.043154","0.023113","747232","822185","832417","15.689579","5.781180","0.024652","788783","838353","891403","12.558889","4.389856","0.025945","723171","873407","966521","8.081724","2.590724","0.024805","4146","6806","8723","3719","5435","6492","3599","5033","5869","3574","4697","5301","3385","3962","4234","DualSpot on"
"MA200-0420","42447","68","1","1.10","1.6","2023-07-11T00:35:00","120","2023/07/11","00:35:00","-15.795746505260468","35.002925999695435","0.3","13","300","64","42","292","-26384","3807","6","150","150.02","114.59","35.43","19.43","61.4","11.82","0","0.00","DUALSPOT-UV-BLUE-GREEN-RED-IR","595093","622836","907520","28.253800","11.897831","0.018381","737852","832034","838695","19.038096","7.293508","0.022161","743159","819984","831903","16.173794","5.987809","0.023277","784692","835992","890352","12.958503","4.549481","0.023949","720389","871606","965476","8.355839","2.687969","0.021372","3999","6501","8321","3612","5238","6248","3508","4842","5626","3498","4520","5073","3341","3834","4068","DualSpot on"
"MA200-0420","42448","68","1","1.10","1.6","2023-07-11T00:40:00","120","2023/07/11","00:40:00","-15.795790493488312","35.00300316629","0.0","13","300","64","41","1992","-5200","22252","6","150","149.44","112.01","37.43","19.43","63.3","12.28","0","0.00","DUALSPOT-UV-BLUE-GREEN-RED-IR","588143","618812","905377","29.199848","12.309883","0.011780","732297","826880","836848","19.578688","7.697932","0.034281","738515","815434","830370","16.620014","6.359467","0.042561","780186","831146","888146","13.291545","4.893046","0.057750","715876","870621","962091","8.633966","2.451476","0.145145","4961","6465","7562","3578","8009","10881","3307","8243","11302","2983","9208","12835","3468","-8826","-13701","DualSpot on"
"MA200-0420","42449","68","1","1.10","1.6","2023-07-11T00:45:00","120","2023/07/11","00:45:00","-15.795798182487488","35.00301033328287","0.0","14","300","64","40","1948","-5100","22732","6","150","149.65","114.05","35.60","19.46","65.5","12.82","90452","18.38","DUALSPOT-UV-BLUE-GREEN-RED-IR","582433","615120","903083","29.923352","12.653954","0.015897","726378","822913","834489","20.100564","7.889547","0.011191","738239","817547","833831","17.072718","6.512450","0.006905","774037","826730","884458","13.663520","5.004431","-0.005016","717173","873802","966232","8.882694","2.516166","-0.034130","3726","5677","7106","3392","3990","4376","3295","3567","3735","3272","3139","3062","3046","2538","2337","DualSpot on"
"MA200-0420","42450","68","1","1.10","1.6","2023-07-11T00:50:00","120","2023/07/11","00:50:00","-15.79579383134842","35.00300266640261","0.0","14","300","64","40","2052","-5016","22168","6","150","149.76","113.90","35.85","19.52","66.4","13.08","0","0.00","DUALSPOT-UV-BLUE-GREEN-RED-IR","578500","613077","903253","30.623330","13.011890","0.016999","723102","821537","834894","20.604616","8.110589","0.019089","735064","816189","833898","17.510278","6.691435","0.018644","772132","826562","885457","14.026041","5.141068","0.016936","715098","872772","965886","9.137781","2.597572","0.002070","3609","5863","7528","3280","4570","5407","3189","4144","4735","3193","3823","4188","3128","3171","3188","DualSpot on"
"MA200-0420","42451","68","1","1.10","1.6","2023-07-11T00:55:00","120","2023/07/11","00:55:00","-15.795781433582306","35.00298816617578","0.1","14","300","64","39","1956","-5096","22484","6","150","148.77","114.18","34.59","19.57","66.8","13.24","0","0.00","DUALSPOT-UV-BLUE-GREEN-RED-IR","576534","613019","906411","31.323990","13.367496","0.017266","721751","822229","837491","21.108618","8.334937","0.020691","728960","811420","830530","17.948280","6.875988","0.021606","771785","827982","888263","14.391118","5.285053","0.022439","710050","868084","961522","9.395479","2.687969","0.019271","3604","6038","7849","3272","4807","5809","3184","4429","5202","3207","4176","4737","3152","3650","3849","DualSpot on"
"MA200-0420","42452","68","1","1.10","1.6","2023-07-11T01:00:00","120","2023/07/11","01:00:00","-15.795775175094604","35.00298299943097","0.0","14","300","64","39","2000","-5012","23596","6","150","149.65","113.57","36.07","19.67","67.0","13.38","90448","18.56","DUALSPOT-UV-BLUE-GREEN-RED-IR","570719","609091","903993","32.042466","13.739204","0.016353","716045","818134","835309","21.624156","8.571838","0.019668","728739","813292","834123","18.396640","7.072911","0.020841","766993","824668","886116","14.762568","5.439480","0.022248","711183","870894","965628","9.659777","2.785413","0.019075","3715","6052","7805","3365","4868","5855","3277","4532","5315","3281","4294","4886","3250","3773","3985","DualSpot on"
"MA200-0420","42453","68","1","1.10","1.6","2023-07-11T01:05:00","120","2023/07/11","01:05:00","-15.795768320560455","35.00297199958004","0.0","14","300","64","39","2004","-5125","22466","6","150","149.89","113.74","36.14","19.72","66.9","13.39","0","0.00","DUALSPOT-UV-BLUE-GREEN-RED-IR","567293","607336","904649","32.728340","14.102448","0.016484","713188","816948","836063","22.121502","8.808741","0.020493","725828","811922","834340","18.830206","7.270297","0.021957","764605","823751","886497","15.122003","5.595478","0.024295","709233","869911","965472","9.916880","2.884144","0.022913","3541","5903","7690","3241","4859","5929","3164","4534","5395","3170","4330","5011","3157","3816","4086","DualSpot on"
"MA200-0420","42454","68","1","1.10","1.6","2023-07-11T01:10:00","120","2023/07/11","01:10:00","-15.795792698860168","35.00300933327526","0.0","14","300","64","38","1952","-5000","22772","6","150","150.54","114.14","36.40","19.75","66.9","13.42","0","0.00","DUALSPOT-UV-BLUE-GREEN-RED-IR","563734","605326","904666","33.368328","14.439510","0.016020","710335","815632","836573","22.588952","9.030310","0.019814","722945","810460","834374","19.236516","7.453001","0.020845","762255","822850","886778","15.461831","5.738809","0.021928","707833","869522","965883","10.156109","2.970962","0.016070","3293","5439","7075","3036","4512","5496","2955","4167","4933","2987","3950","4519","2927","3331","3499","DualSpot on"
"MA200-0420","42455","68","1","1.10","1.6","2023-07-11T01:15:00","120","2023/07/11","01:15:00","-15.795789003372192","35.003006333019584","0.0","14","300","64","38","1920","-5012","23650","6","150","149.82","113.94","35.88","19.77","66.8","13.42","0","0.00","DUALSPOT-UV-BLUE-GREEN-RED-IR","560823","603943","905598","33.982588","14.770260","0.016381","707379","814176","836880","23.039588","9.247211","0.020351","720304","809276","834676","19.632630","7.635007","0.021851","760333","822264","887436","15.790086","5.881111","0.023754","706330","868907","966072","10.388950","3.059378","0.021742","3166","5414","7142","2931","4481","5520","2886","4211","5054","2890","3979","4625","2854","3442","3687","DualSpot on"
"MA200-0420","42456","68","1","1.10","1.6","2023-07-11T01:20:00","120","2023/07/11","01:20:00","-15.795781910419464","35.002988833002746","0.0","14","300","64","37","1969","-5030","22507","6","150","150.15","113.98","36.17","19.80","66.7","13.42","0","0.00","DUALSPOT-UV-BLUE-GREEN-RED-IR","558251","602913","906914","34.596356","15.088409","0.015294","705325","813713","838160","23.489440","9.457354","0.018795","713946","803828","830482","20.023120","7.810201","0.020191","758891","822262","888641","16.117815","6.020304","0.021766","705318","868915","966909","10.620491","3.147768","0.021090","3162","5166","6716","2925","4307","5238","2844","4021","4774","2884","3861","4443","2837","3414","3656","DualSpot on"
"MA200-0420","42457","68","1","1.10","1.6","2023-07-11T01:25:00","120","2023/07/11","01:25:00","-15.795789122581482","35.002988499589264","0.0","15","300","64","36","1903","-5008","22588","6","150","148.10","114.61","33.49","19.87","67.1","13.58","0","0.00","DUALSPOT-UV-BLUE-GREEN-RED-IR","555986","602051","908322","35.159472","15.381920","0.016558","697891","806946","832762","23.904348","9.645225","0.020061","712128","803450","831420","20.387826","7.967542","0.021525","757632","822381","889847","16.421194","6.141195","0.022378","700288","863906","962057","10.834358","3.222640","0.020300","2885","5147","6906","2683","4158","5156","2641","3900","4707","2655","3621","4198","2606","3123","3341","DualSpot on"
"MA200-0420","42458","68","1","1.10","1.6","2023-07-11T01:30:00","120","2023/07/11","01:30:00","-15.795808672904968","35.00296483305283","0.0","15","300","64","36","1943","-5028","22416","6","150","150.15","114.22","35.93","19.90","66.6","13.50","0","0.00","DUALSPOT-UV-BLUE-GREEN-RED-IR","553777","601066","909351","35.666604","15.659645","0.015958","701481","812672","840264","24.284040","9.835829","0.020606","710504","803007","832317","20.723382","8.127431","0.022129","756442","822348","890985","16.704124","6.269747","0.024888","699275","863754","962669","11.040850","3.303638","0.023608","2607","4540","6053","2464","3932","4932","2439","3694","4505","2485","3589","4253","2525","3149","3415","DualSpot on"
"MA200-0420","42459","68","1","1.10","1.6","2023-07-11T01:35:00","120","2023/07/11","01:35:00","-15.795776784420013","35.00299249961972","0.1","15","300","64","36","1875","-5008","22391","6","150","149.56","113.78","35.78","19.92","66.2","13.43","90452","18.75","DUALSPOT-UV-BLUE-GREEN-RED-IR","552151","600522","910890","36.119024","15.914604","0.016228","700089","812508","841586","24.630312","10.009498","0.020325","708506","802053","832557","21.028308","8.273294","0.021980","754776","821763","891367","16.962656","6.385379","0.023809","698223","863453","963033","11.228474","3.374944","0.020465","2335","4185","5643","2256","3598","4517","2224","3384","4137","2279","3242","3823","2303","2784","2990","DualSpot on"
"MA200-0420","42460","68","1","1.10","1.6","2023-07-11T01:40:00","120","2023/07/11","01:40:00","-15.795791983604431","35.002997166477144","0.0","14","300","64","35","1904","-5020","22183","6","150","149.59","113.76","35.82","19.94","66.1","13.42","0","0.00","DUALSPOT-UV-BLUE-GREEN-RED-IR","549829","599191","911145","36.573100","16.164028","0.015627","692247","804755","834978","24.975860","10.181613","0.019839","706761","801369","833023","21.334284","8.418057","0.021258","753738","821760","892393","17.219314","6.498102","0.022532","697282","863253","963514","11.412724","3.446474","0.021917","2344","4089","5471","2251","3561","4463","2232","3354","4086","2263","3156","3698","2262","2789","3017","DualSpot on"
"MA200-0420","42461","68","1","1.10","1.6","2023-07-11T01:45:00","120","2023/07/11","01:45:00","-15.795794486999512","35.00300749996677","0.1","14","300","64","35","1932","-5000","22596","6","150","150.28","113.64","36.64","19.96","66.4","13.50","0","0.00","DUALSPOT-UV-BLUE-GREEN-RED-IR","543421","593701","905041","37.045468","16.410103","0.014171","690649","804556","836173","25.333312","10.347198","0.016763","705168","801021","833874","21.648404","8.558526","0.018022","746340","815022","886078","17.483146","6.609448","0.018979","696716","863571","964602","11.599941","3.517349","0.017230","2441","3944","5139","2331","3349","4052","2294","3182","3763","2329","3048","3485","2301","2701","2876","DualSpot on"
"MA200-0420","42462","68","1","1.10","1.6","2023-07-11T01:50:00","120","2023/07/11","01:50:00","-15.795779824256897","35.00299949944019","0.1","14","300","64","34","1891","-5000","22483","6","150","149.44","113.43","36.01","20.01","66.9","13.66","90448","18.88","DUALSPOT-UV-BLUE-GREEN-RED-IR","542396","593934","907519","37.530772","16.653923","0.013630","689984","805356","838308","25.694654","10.508555","0.015862","700276","796875","830611","21.967014","8.695304","0.016766","746387","816347","888427","17.750850","6.718222","0.017492","696857","864751","966552","11.788956","3.589928","0.019639","2513","3976","5144","2361","3321","3986","2332","3153","3691","2367","3030","3434","2327","2815","3029","DualSpot on"
"MA200-0420","42463","68","1","1.10","1.6","2023-07-11T01:55:00","120","2023/07/11","01:55:00","-15.79578572511673","35.00302033289336","0.0","14","300","64","34","1852","-5016","22404","6","150","149.35","113.42","35.93","20.05","66.9","13.70","90444","18.88","DUALSPOT-UV-BLUE-GREEN-RED-IR","541319","593647","909190","37.946372","16.889924","0.015502","689394","805800","840065","26.012534","10.667537","0.019040","699391","796964","831810","22.250398","8.828061","0.019891","745429","816313","889301","17.990728","6.824074","0.021552","696471","865210","967642","11.964664","3.655223","0.016679","2152","3858","5226","2077","3280","4116","2074","3067","3721","2121","2955","3465","2164","2538","2703","DualSpot on"
"MA200-0420","42464","68","1","1.10","1.6","2023-07-11T02:00:00","120","2023/07/11","02:00:00","-15.79578584432602","35.00300500006415","0.0","14","300","64","33","1848","-4988","22528","6","150","150.15","113.85","36.30","20.09","66.6","13.66","90444","18.94","DUALSPOT-UV-BLUE-GREEN-RED-IR","538193","591457","908041","38.370388","17.127670","0.015066","685561","802711","838286","26.336116","10.829885","0.018736","696570","795015","830948","22.536218","8.964423","0.020047","743388","815234","889126","18.233148","6.930285","0.020642","694394","863555","966526","12.139839","3.721766","0.017818","2187","3846","5184","2107","3315","4159","2084","3118","3802","2136","2935","3425","2149","2560","2742","DualSpot on"
"MA200-0420","42465","68","1","1.10","1.6","2023-07-11T02:05:00","120","2023/07/11","02:05:00","-15.795795679092407","35.002993166213855","0.0","14","300","64","33","1908","-4950","22550","6","150","152.30","115.05","37.25","20.12","66.5","13.69","90452","19.00","DUALSPOT-UV-BLUE-GREEN-RED-IR","531960","586088","902175","38.898624","17.398530","0.013204","679278","797048","833904","26.744342","11.018209","0.015684","695090","794925","832155","22.900212","9.126563","0.016792","742752","816027","891099","18.543180","7.062590","0.018301","689960","859231","962456","12.363838","3.810113","0.019390","2696","4271","5544","2630","3748","4531","2626","3613","4267","2703","3563","4092","2719","3313","3577","DualSpot on"
"MA200-0420","42466","68","1","1.10","1.6","2023-07-11T02:10:00","120","2023/07/11","02:10:00","-15.795784533023834","35.002984333084896","0.0","15","300","64","33","1840","-4964","22572","6","150","150.21","113.86","36.35","20.18","66.6","13.76","0","0.00","DUALSPOT-UV-BLUE-GREEN-RED-IR","530835","586628","906387","39.559576","17.759506","0.014239","678157","798326","837648","27.343162","11.302215","0.016563","693428","795542","834943","23.462050","9.376828","0.016922","735314","810256","886722","19.048466","7.270924","0.016821","688913","860117","964865","12.756657","3.951120","0.011971","3409","5832","7807","3898","5792","7126","4096","5716","6794","4452","5750","6551","4819","5419","5688","DualSpot on"
"MA200-0420","42467","68","1","1.10","1.6","2023-07-11T02:15:00","120","2023/07/11","02:15:00","-15.795776009559631","35.00298333307728","0.0","13","300","64","33","1876","-5004","22480","6","150","149.32","113.55","35.77","20.22","66.4","13.76","0","0.00","DUALSPOT-UV-BLUE-GREEN-RED-IR","528623","585654","907466","40.098336","18.045788","0.013849","675862","797455","838474","27.786790","11.510206","0.016361","686582","789424","830024","23.868180","9.557472","0.017062","733535","809954","887696","19.406442","7.419710","0.017562","687474","859773","965447","13.027760","4.049657","0.014003","2786","4700","6267","2896","4310","5310","2969","4192","5009","3163","4173","4798","3335","3848","4079","DualSpot on"
"MA200-0420","42468","68","1","1.10","1.6","2023-07-11T02:20:00","120","2023/07/11","02:20:00","-15.795786559581757","35.00302283302881","0.0","13","300","64","32","1879","-4975","22637","6","150","150.35","113.60","36.75","20.27","66.3","13.77","90460","19.19","DUALSPOT-UV-BLUE-GREEN-RED-IR","528164","586403","910933","40.560932","18.299286","0.013765","675579","798565","841096","28.138480","11.683168","0.016729","686529","790693","832591","24.179814","9.705074","0.018058","734303","812002","890997","19.670702","7.538890","0.019816","687926","861340","967945","13.220993","4.127658","0.020026","2391","4051","5415","2295","3488","4336","2277","3334","4042","2333","3253","3824","2376","2964","3231","DualSpot on"
"MA200-0420","42469","68","1","1.10","1.6","2023-07-11T02:25:00","120","2023/07/11","02:25:00","-15.79577261209488","35.00300333322957","0.1","13","300","64","32","1857","-4934","22588","6","150","149.67","113.64","36.03","20.35","67.2","14.07","90468","19.31","DUALSPOT-UV-BLUE-GREEN-RED-IR","523424","582133","906207","40.932816","18.506672","0.014188","670122","793381","836784","28.426038","11.815035","0.015235","686058","791294","834178","24.434428","9.812640","0.014618","728025","806106","885324","19.887314","7.619613","0.011134","683809","857150","963722","13.378662","4.173311","-0.010782","1922","3380","4584","1875","2713","3308","1860","2478","2893","1912","2247","2456","1938","1770","1693","DualSpot on"
"MA200-0420","42470","68","1","1.10","1.6","2023-07-11T02:30:00","120","2023/07/11","02:30:00","-15.795801520347595","35.002986666280776","0.1","13","300","64","32","1872","-5016","22632","6","150","150.15","114.03","36.12","20.44","66.8","14.05","90480","19.31","DUALSPOT-UV-BLUE-GREEN-RED-IR","521931","581413","907187","41.348856","18.749222","0.014654","669268","793464","838246","28.741538","11.982470","0.018672","684649","790749","834710","24.716498","9.955095","0.020180","726513","805449","885551","20.128074","7.734799","0.022516","682921","856948","964161","13.558487","4.247895","0.022907","2143","3944","5438","2051","3436","4426","2053","3274","4097","2118","3199","3874","2203","2884","3195","DualSpot on"
"MA200-0420","42471","68","1","1.10","1.6","2023-07-11T02:35:00","120","2023/07/11","02:35:00","-15.795809507369995","35.00298549956642","0.0","13","300","64","31","1864","-4904","22524","6","150","149.69","113.74","35.95","20.47","67.0","14.13","90480","19.31","DUALSPOT-UV-BLUE-GREEN-RED-IR","520140","580743","908257","41.800356","18.979976","0.012694","668036","793525","839551","29.075860","12.135124","0.014889","682917","790089","835097","25.009394","10.083678","0.015780","725681","805693","886754","20.373090","7.838703","0.017531","681890","856543","964374","13.733372","4.317127","0.019604","2331","3770","4967","2178","3148","3842","2137","2969","3531","2161","2899","3361","2147","2690","2939","DualSpot on"
"MA200-0420","42472","68","1","1.10","1.6","2023-07-11T02:40:00","120","2023/07/11","02:40:00","-15.795796036720276","35.00300383311696","0.1","13","300","64","31","1850","-4933","22508","6","150","149.60","113.64","35.96","20.47","67.0","14.13","0","0.00","DUALSPOT-UV-BLUE-GREEN-RED-IR","518566","579956","909154","42.217096","19.217324","0.014090","666438","792736","840014","29.386096","12.292761","0.017359","677317","784684","830444","25.283502","10.216301","0.018598","725223","806218","888222","20.604688","7.943319","0.019911","681378","856798","965269","13.903591","4.383827","0.018568","2153","3876","5316","2023","3249","4131","2002","3061","3780","2044","2918","3467","2092","2591","2820","DualSpot on"
"MA200-0420","42473","68","1","1.10","1.6","2023-07-11T02:45:00","120","2023/07/11","02:45:00","-15.795790135860443","35.00300033343956","0.0","13","300","64","30","1803","-5044","22708","6","150","149.85","113.71","36.14","20.47","65.9","13.87","0","0.00","DUALSPOT-UV-BLUE-GREEN-RED-IR","515489","577323","907289","42.593284","19.462216","0.015465","663116","789751","838310","29.671892","12.465058","0.020467","678761","787241","834370","25.536724","10.361279","0.022485","722044","803491","886230","20.821810","8.057485","0.024796","679198","854855","963780","14.067631","4.453152","0.023130","1943","3979","5693","1863","3534","4744","1848","3330","4341","1915","3169","3960","2015","2679","2987","DualSpot on"
"MA200-0420","42474","68","1","1.10","1.6","2023-07-11T02:50:00","120","2023/07/11","02:50:00","-15.795801877975464","35.00298733287491","0.0","13","300","64","30","1908","-4954","22379","6","150","149.67","113.97","35.70","20.47","65.9","13.88","90476","19.31","DUALSPOT-UV-BLUE-GREEN-RED-IR","513708","576451","908054","43.018020","19.690728","0.013241","661359","788980","838812","29.986862","12.614523","0.015694","677408","786866","835041","25.814298","10.486591","0.016517","720034","802315","885834","21.050728","8.154118","0.017199","678258","854501","963974","14.225693","4.512224","0.015501","2188","3759","5085","2048","3103","3870","2022","2914","3524","2015","2715","3158","1937","2311","2485","DualSpot on"
"MA200-0420","42475","68","1","1.10","1.6","2023-07-11T02:55:00","120","2023/07/11","02:55:00","-15.79581069946289","35.00298766628839","0.1","12","300","64","30","1875","-4870","22495","6","150","150.41","113.90","36.51","20.47","65.6","13.81","90476","19.31","DUALSPOT-UV-BLUE-GREEN-RED-IR","511569","575063","907994","43.441132","19.932632","0.013618","659511","787907","838974","30.299524","12.778249","0.017259","675738","785983","835251","26.087832","10.622878","0.018528","719058","802196","886625","21.281052","8.262924","0.020513","677316","854111","964218","14.389957","4.580937","0.021490","2181","3892","5342","2034","3324","4265","1993","3099","3859","2028","2990","3600","2014","2629","2916","DualSpot on"
"MA200-0420","42476","68","1","1.10","1.6","2023-07-11T03:00:00","120","2023/07/11","03:00:00","-15.795789361000061","35.00298449979164","0.0","12","300","64","30","1856","-4984","22580","6","150","150.42","113.81","36.61","20.47","65.0","13.67","90480","19.25","DUALSPOT-UV-BLUE-GREEN-RED-IR","508944","573185","907223","43.873508","20.176648","0.013281","656760","785828","838188","30.618638","12.945412","0.017021","673084","783949","834245","26.367370","10.764526","0.018691","716227","800010","885196","21.516018","8.374803","0.020452","675248","852349","962851","14.557823","4.651720","0.021529","2231","3914","5347","2078","3384","4341","2039","3211","4020","2071","3065","3699","2060","2700","3001","DualSpot on"
"MA200-0420","42477","68","1","1.10","1.6","2023-07-11T03:05:00","120","2023/07/11","03:05:00","-15.795769333839417","35.0029878327623","0.1","12","300","64","29","1827","-4964","22584","6","150","149.94","113.47","36.47","20.47","65.0","13.67","90484","19.25","DUALSPOT-UV-BLUE-GREEN-RED-IR","506831","572003","907544","44.313580","20.418582","0.012831","654749","784710","838334","30.942148","13.106038","0.015706","671694","783522","834935","26.650142","10.898563","0.016719","714730","799409","885474","21.752644","8.482306","0.018577","674831","852665","963880","14.725056","4.719358","0.018717","2277","3896","5280","2113","3265","4111","2068","3051","3731","2092","2957","3510","2058","2591","2842","DualSpot on"
"MA200-0420","42478","68","1","1.10","1.6","2023-07-11T03:10:00","120","2023/07/11","03:10:00","-15.795767664909363","35.002968666143715","0.1","11","300","64","29","1827","-4984","22604","6","150","150.21","113.90","36.31","20.47","65.6","13.81","90484","19.25","DUALSPOT-UV-BLUE-GREEN-RED-IR","502027","567627","902823","44.733936","20.654388","0.013084","649538","779664","834177","31.239242","13.245688","0.014459","667657","779935","832070","26.905004","11.009876","0.014315","717796","803876","891184","21.963116","8.561813","0.010592","671853","849760","961020","14.869785","4.760590","-0.012468","2167","3814","5226","1933","2851","3526","1857","2545","3021","1853","2196","2415","1775","1586","1497","DualSpot on"
"MA200-0420","42479","68","1","1.10","1.6","2023-07-11T03:15:00","120","2023/07/11","03:15:00","-15.79576861858368","35.00299199973233","0.0","11","300","64","29","1875","-4945","22491","6","150","149.94","113.85","36.10","20.47","65.8","13.84","90492","19.31","DUALSPOT-UV-BLUE-GREEN-RED-IR","498941","566721","906334","45.756288","21.210354","0.012488","647721","780056","837221","31.891528","13.565969","0.015316","666117","780371","834621","27.445220","11.262342","0.016238","710338","797427","885690","22.393506","8.752987","0.017728","671861","851250","963746","15.150345","4.871411","0.017557","5274","9046","12306","4247","6577","8303","3939","5807","7106","3792","5313","6289","3442","4288","4690","DualSpot on"
"MA200-0420","42480","68","1","1.10","1.6","2023-07-11T03:20:00","120","2023/07/11","03:20:00","-15.795771777629852","35.00298449979164","0.1","11","300","64","29","1856","-4940","22444","6","150","149.72","113.83","35.89","20.47","64.3","13.49","90488","19.19","DUALSPOT-UV-BLUE-GREEN-RED-IR","496268","564360","904657","46.093344","21.434112","0.014621","645245","777893","836239","32.151798","13.725559","0.019361","662903","777347","832551","27.675922","11.400011","0.021784","713241","801392","891119","22.591916","8.861295","0.024177","673386","853897","967386","15.297386","4.937917","0.025556","1739","3662","5333","1695","3296","4489","1682","3184","4237","1748","3027","3853","1804","2588","2962","DualSpot on"
"MA200-0420","42481","68","1","1.10","1.6","2023-07-11T03:25:00","120","2023/07/11","03:25:00","-15.79577374458313","35.00296333339065","0.1","11","300","64","28","1845","-4929","22416","6","150","149.47","113.91","35.55","20.31","63.7","13.20","90492","19.00","DUALSPOT-UV-BLUE-GREEN-RED-IR","494627","563263","904689","46.441800","21.640122","0.013481","643294","776422","835854","32.412658","13.870082","0.017751","661495","776535","832632","27.904756","11.518517","0.018954","706170","794210","883918","22.780676","8.954436","0.021469","668616","848464","961758","15.429298","4.992517","0.021086","1796","3403","4805","1697","3013","3997","1667","2767","3540","1662","2628","3253","1617","2145","2397","DualSpot on"
"MA200-0420","42482","68","1","1.10","1.6","2023-07-11T03:30:00","120","2023/07/11","03:30:00","-15.795781791210175","35.002977666212246","0.1","12","300","64","28","1876","-4916","22564","6","150","150.02","113.51","36.51","20.20","63.0","12.92","90508","18.88","DUALSPOT-UV-BLUE-GREEN-RED-IR","495588","565303","909908","46.823104","21.854084","0.012444","645026","779520","840420","32.690888","14.019235","0.016474","658700","774153","831139","28.147396","11.644687","0.018211","709023","798259","889315","22.981064","9.052829","0.020229","670942","852037","966425","15.563442","5.054682","0.025377","1973","3442","4727","1817","3028","3938","1774","2869","3641","1771","2703","3309","1650","2378","2728","DualSpot on"
"MA200-0420","42483","68","1","1.10","1.6","2023-07-11T03:35:00","120","2023/07/11","03:35:00","-15.79577898979187","35.00297799962573","0.0","12","300","64","28","1848","-4996","22688","6","150","149.72","113.79","35.93","20.07","63.1","12.83","90532","18.75","DUALSPOT-UV-BLUE-GREEN-RED-IR","489750","559983","903699","47.301872","22.105324","0.011714","643639","779242","841509","33.020188","14.175971","0.014253","658660","775326","833483","28.426230","11.774169","0.015672","709829","800213","892351","23.206534","9.150270","0.016303","667493","848389","962843","15.706497","5.113447","0.019643","2471","4107","5542","2145","3233","4052","2034","2991","3668","1987","2720","3197","1756","2284","2539","DualSpot on"
"MA200-0420","42484","68","1","1.10","1.6","2023-07-11T03:40:00","120","2023/07/11","03:40:00","-15.795775473117828","35.00297549972311","0.0","12","300","64","27","1848","-4940","22552","6","150","149.47","113.60","35.87","19.94","62.1","12.46","0","0.00","DUALSPOT-UV-BLUE-GREEN-RED-IR","487647","558509","903127","47.672716","22.315732","0.012579","636331","771348","834198","33.291168","14.324807","0.016966","656414","773525","832569","28.661132","11.899289","0.018845","707583","798454","891283","23.402132","9.250214","0.021601","666268","847390","962313","15.837158","5.174576","0.026332","1917","3445","4789","1768","3075","4063","1716","2895","3733","1727","2795","3493","1606","2380","2756","DualSpot on"
"MA200-0420","42485","68","1","1.10","1.6","2023-07-11T03:45:00","120","2023/07/11","03:45:00","-15.795772731304169","35.00297866645269","0.0","12","300","64","27","1843","-4920","22524","6","150","149.74","113.85","35.89","19.76","62.1","12.29","0","0.00","DUALSPOT-UV-BLUE-GREEN-RED-IR","487385","558835","905171","47.974436","22.487092","0.012536","636143","771913","835699","33.518002","14.438613","0.015204","656560","774404","834289","28.858756","11.994099","0.016345","702348","793183","886041","23.563584","9.320811","0.016567","667530","849558","965095","15.939491","5.213149","0.014133","1556","2804","3905","1477","2350","3011","1441","2193","2727","1422","1973","2333","1255","1501","1620","DualSpot on"
"MA200-0420","42486","68","1","1.10","1.6","2023-07-11T03:50:00","120","2023/07/11","03:50:00","-15.795774400234222","35.00298066646792","0.0","12","300","64","27","1864","-4924","22416","6","150","150.41","113.94","36.47","19.62","62.9","12.35","90544","18.25","DUALSPOT-UV-BLUE-GREEN-RED-IR","485771","557722","904782","48.266888","22.644002","0.011608","634738","771067","835615","33.734100","14.537339","0.012716","654868","773262","833713","29.045960","12.074604","0.012751","706348","798449","892422","23.717566","9.381454","0.011642","666867","849244","965078","16.033592","5.246848","0.009371","1507","2527","3428","1406","2007","2462","1364","1832","2166","1355","1668","1873","1153","1290","1357","DualSpot on"
"MA200-0420","42487","68","1","1.10","1.6","2023-07-11T03:55:00","120","2023/07/11","03:55:00","-15.795766055583954","35.00296666636132","0.0","12","300","64","26","1808","-4940","22628","6","150","149.85","113.67","36.18","19.51","62.6","12.16","90560","18.13","DUALSPOT-UV-BLUE-GREEN-RED-IR","485809","558661","907905","48.589296","22.815650","0.011508","635227","772626","838313","33.964592","14.657092","0.015506","655201","774451","835883","29.245592","12.176181","0.017315","702228","794497","888722","23.880644","9.461534","0.019826","668200","851353","968010","16.140205","5.299600","0.028024","1665","2786","3779","1503","2453","3175","1458","2331","2953","1439","2220","2733","1310","2037","2392","DualSpot on"
"MA200-0420","42488","68","1","1.10","1.6","2023-07-11T04:00:00","120","2023/07/11","04:00:00","-15.79577898979187","35.00297349970788","0.0","13","300","64","26","1808","-4908","22640","6","150","149.95","113.70","36.25","19.35","62.4","11.96","90556","17.94","DUALSPOT-UV-BLUE-GREEN-RED-IR","484466","557610","907391","48.825820","22.952282","0.012393","633523","771136","837444","34.141216","14.749860","0.015604","650554","769487","831137","29.399448","12.254048","0.017071","701090","793732","888352","24.008016","9.520620","0.017909","663842","846214","962445","16.220970","5.332001","0.017137","1221","2214","3094","1151","1897","2464","1123","1783","2255","1123","1635","1971","992","1248","1374","DualSpot on"
"MA200-0420","42489","68","1","1.10","1.6","2023-07-11T04:05:00","120","2023/07/11","04:05:00","-15.795773565769196","35.00297233299352","0.0","13","300","64","26","1808","-4896","22428","6","150","150.15","113.93","36.22","19.25","63.3","12.10","90556","17.88","DUALSPOT-UV-BLUE-GREEN-RED-IR","482950","556830","907433","49.134804","23.095768","0.009466","632116","770479","837510","34.362388","14.841277","0.010062","649243","768832","831073","29.587962","12.331182","0.011150","700060","793344","888464","24.161916","9.579823","0.010688","663189","845887","962452","16.314468","5.370556","0.018817","1592","2327","2978","1439","1871","2199","1373","1768","2050","1355","1640","1827","1146","1487","1654","DualSpot on"
"MA200-0420","42490","68","1","1.10","1.6","2023-07-11T04:10:00","120","2023/07/11","04:10:00","-15.7957883477211","35.002988499589264","0.0","13","300","64","25","1852","-4952","22612","6","150","149.52","114.25","35.27","19.13","62.2","11.73","90572","17.69","DUALSPOT-UV-BLUE-GREEN-RED-IR","482620","556724","908497","49.322128","23.228032","0.014369","631727","770312","838128","34.503808","14.934608","0.019341","648819","768642","831524","29.711540","12.407275","0.021227","700365","794040","889749","24.266038","9.636842","0.023165","663936","847161","964178","16.384140","5.400442","0.022431","963","2202","3305","917","1961","2758","897","1791","2431","914","1621","2088","851","1183","1346","DualSpot on"
"MA200-0420","42491","68","1","1.10","1.6","2023-07-11T04:15:00","120","2023/07/11","04:15:00","-15.795778155326843","35.00298066646792","0.0","11","300","64","25","1824","-4956","22860","6","150","149.76","113.55","36.21","18.96","62.6","11.65","90588","17.56","DUALSPOT-UV-BLUE-GREEN-RED-IR","482235","557117","910564","49.625288","23.382320","0.010677","631836","771333","840048","34.710344","15.029737","0.012658","649456","770189","833843","29.886028","12.485299","0.013670","695494","789150","884779","24.404444","9.693521","0.013127","665636","849801","967511","16.471714","5.434688","0.015325","1568","2502","3335","1348","1947","2405","1275","1788","2157","1222","1570","1799","1077","1321","1441","DualSpot on"
"MA200-0420","42492","68","1","1.10","1.6","2023-07-11T04:20:00","120","2023/07/11","04:20:00","-15.795766234397888","35.00297833303921","0.0","11","300","64","24","1908","-4808","22004","6","150","150.56","113.97","36.58","18.84","62.8","11.60","90584","17.44","DUALSPOT-UV-BLUE-GREEN-RED-IR","477958","553186","905687","49.994172","23.564956","0.010129","627150","766601","835807","34.964680","15.147440","0.012526","649683","771362","835915","30.104112","12.584607","0.013897","696395","790946","887470","24.582650","9.773273","0.016089","662227","845896","963571","16.583668","5.488777","0.025940","1901","2932","3851","1654","2385","2943","1588","2253","2731","1568","2187","2595","1372","2065","2408","DualSpot on"
"MA200-0420","42493","68","1","1.10","1.6","2023-07-11T04:25:00","120","2023/07/11","04:25:00","-15.795742690563202","35.00297866645269","0.0","11","300","64","24","1903","-4952","22776","6","150","149.69","113.59","36.11","18.76","64.7","11.96","0","0.00","DUALSPOT-UV-BLUE-GREEN-RED-IR","474574","550710","903768","50.496368","23.801346","0.009433","628804","770070","840528","35.257160","15.254873","0.006104","647253","769665","834766","30.342082","12.666556","0.004126","694567","789876","886761","24.768116","9.830966","-0.001485","661080","845073","962995","16.692341","5.523602","0.000721","2596","3845","4958","1908","2205","2432","1739","1884","1988","1638","1603","1580","1336","1347","1352","DualSpot on"
"MA200-0420","42494","68","1","1.10","1.6","2023-07-11T04:30:00","120","2023/07/11","04:30:00","-15.795767784118652","35.00298066646792","0.0","11","300","68","24","1827","-4924","22256","7","150","150.39","115.84","34.54","18.72","64.4","11.87","0","0.00","DUALSPOT-UV-BLUE-GREEN-RED-IR","812779","712364","906398","0.000000","0.000000","0.000000","906224","904462","836383","0.000000","0.000000","0.000000","884999","879460","830798","0.000000","0.000000","0.000000","902521","883369","890111","0.000000","0.000000","0.000000","785132","896078","961009","0.000000","0.000000","0.000000","","","","","","","","","","","","","","","","Tape advance-DualSpot on"
"MA200-0420","42495","68","1","1.10","1.6","2023-07-11T04:35:00","120","2023/07/11","04:35:00","-15.795749843120575","35.00296733295545","0.0","11","300","68","24","1784","-5000","22340","7","150","149.38","115.92","33.46","18.61","63.8","11.61","0","0.00","DUALSPOT-UV-BLUE-GREEN-RED-IR","813120","715075","911111","0.000000","0.000000","0.000000","908346","908162","840438","0.000000","0.000000","0.000000","887285","882889","834560","0.000000","0.000000","0.000000","898681","880459","887609","0.000000","0.000000","0.000000","787749","899519","964955","0.000000","0.000000","0.000000","","","","","","","","","","","","","","","","Tape advance-DualSpot on"
"MA200-0420","42496","68","1","1.10","1.6","2023-07-11T04:40:00","120","2023/07/11","04:40:00","-15.795738458633423","35.002955166390166","0.1","11","300","64","23","1779","-4862","22466","7","150","149.86","116.48","33.38","18.52","64.9","11.80","0","0.00","DUALSPOT-UV-BLUE-GREEN-RED-IR","803864","710150","906052","0.589915","0.137138","0.000000","900499","902411","835531","0.280600","0.046682","0.000000","881724","878908","831087","0.208806","0.032341","0.000000","899797","882610","889963","0.144046","0.020034","0.000000","784583","896497","961764","0.066915","0.005932","0.000000","2974","2413","2974","1785","1036","1785","1488","804","1488","1240","602","1240","802","248","802","DualSpot on"
"MA200-0420","42497","68","1","1.10","1.6","2023-07-11T04:45:00","120","2023/07/11","04:45:00","-15.795755982398987","35.00300149992108","0.0","11","300","64","23","1840","-4856","22468","7","150","150.30","116.28","34.02","18.43","65.1","11.77","90612","17.06","DUALSPOT-UV-BLUE-GREEN-RED-IR","797536","708055","905308","1.298463","0.348272","0.000000","896751","900887","835032","0.643771","0.161283","0.000000","879359","878235","831176","0.489270","0.121480","0.000000","898321","882382","890285","0.343567","0.082713","0.000000","784072","896545","962136","0.171699","0.037245","0.000000","3579","3645","3579","2315","2497","2315","2002","2175","2002","1721","1848","1721","1258","1285","1258","DualSpot on"
"MA200-0420","42498","68","1","1.10","1.6","2023-07-11T04:50:00","120","2023/07/11","04:50:00","-15.79575401544571","35.002954832976684","0.0","11","300","64","23","1796","-4924","22644","7","150","149.53","116.33","33.20","18.36","65.4","11.75","90616","17.00","DUALSPOT-UV-BLUE-GREEN-RED-IR","791821","705774","903612","1.831652","0.485219","0.000000","899561","905783","840162","0.942122","0.229865","0.000000","881362","881820","834988","0.721782","0.172680","0.000000","894377","879655","887860","0.512045","0.119740","0.000000","787046","900570","966634","0.259155","0.056870","0.000000","2692","2422","2692","1901","1531","1901","1659","1280","1659","1453","1118","1453","1050","825","1050","DualSpot on"
"MA200-0420","42499","68","1","1.10","1.6","2023-07-11T04:55:00","120","2023/07/11","04:55:00","-15.795748591423035","35.0029669997748","0.1","11","300","64","23","1840","-4848","22584","7","150","149.63","116.03","33.59","18.28","65.9","11.80","90616","16.94","DUALSPOT-UV-BLUE-GREEN-RED-IR","793196","709209","908954","2.252695","0.590677","0.000000","895631","903458","838390","1.172387","0.279980","0.000000","878208","879910","833511","0.902938","0.211459","0.000000","898694","884856","893289","0.643682","0.145190","0.000000","785308","899032","965093","0.323652","0.067312","0.000000","2131","1843","2131","1471","1105","1471","1296","958","1296","1138","760","1138","776","434","776","DualSpot on"
"MA200-0420","42500","68","1","1.10","1.6","2023-07-11T05:00:00","120","2023/07/11","05:00:00","-15.795765101909637","35.002957166405395","0.0","11","300","64","22","1876","-4844","22424","7","150","149.77","115.88","33.90","18.21","66.6","11.88","90616","16.81","DUALSPOT-UV-BLUE-GREEN-RED-IR","786491","705335","904938","2.657506","0.697193","0.000000","896893","906250","841430","1.389306","0.330286","0.000000","874174","877024","831058","1.071447","0.248927","0.000000","894416","881486","890121","0.763809","0.168264","0.000000","782920","896793","962749","0.382152","0.075297","0.000000","2051","1845","2051","1387","1100","1387","1207","917","1207","1040","682","1040","705","329","705","DualSpot on"
"MA200-0420","42501","68","1","1.10","1.6","2023-07-11T05:05:00","120","2023/07/11","05:05:00","-15.795771598815918","35.00296049984172","0.0","11","300","64","22","1816","-4828","22272","7","150","149.77","116.14","33.63","18.14","65.7","11.62","90624","16.75","DUALSPOT-UV-BLUE-GREEN-RED-IR","786390","707827","909895","3.214617","0.887012","0.061069","891649","902700","839137","1.702284","0.449102","0.000000","875400","879620","834353","1.322001","0.345820","0.000000","890138","878256","887543","0.951921","0.242768","0.000000","785311","900122","966744","0.491006","0.118154","0.000000","2817","3315","3505","1997","2619","1997","1791","2392","1791","1624","2222","1624","1309","1780","1309","DualSpot on"
"MA200-0420","42502","68","1","1.10","1.6","2023-07-11T05:10:00","120","2023/07/11","05:10:00","-15.795760691165924","35.002981666242704","0.1","12","300","64","21","1868","-4832","22220","7","150","150.21","116.35","33.86","18.04","65.7","11.52","90632","16.63","DUALSPOT-UV-BLUE-GREEN-RED-IR","777986","703765","906429","3.900255","1.079607","-0.012973","884327","897996","835682","2.110576","0.556319","0.000000","870443","876800","832411","1.655066","0.433421","0.000000","892379","882133","892046","1.203864","0.307696","0.000000","782395","897724","964525","0.633686","0.153920","0.000000","3461","3340","3294","2601","2347","2601","2376","2147","2376","2172","1923","2172","1713","1475","1713","DualSpot on"
"MA200-0420","42503","68","1","1.10","1.6","2023-07-11T05:15:00","120","2023/07/11","05:15:00","-15.79575902223587","35.00298483297229","0.0","12","300","64","21","1796","-4844","22376","7","150","149.44","116.26","33.17","17.97","66.5","11.65","90640","16.63","DUALSPOT-UV-BLUE-GREEN-RED-IR","772932","702484","906385","4.551829","1.259677","-0.009988","881138","897421","835925","2.504974","0.652414","0.000000","866902","875354","831682","1.973814","0.509381","0.000000","888984","880418","890771","1.444688","0.361786","0.000000","780430","896403","963394","0.766136","0.182717","0.000000","3291","3188","3148","2514","2147","2514","2276","1901","2276","2078","1635","2078","1591","1212","1591","DualSpot on"
"MA200-0420","42504","68","1","1.10","1.6","2023-07-11T05:20:00","120","2023/07/11","05:20:00","-15.795773923397064","35.00297133275308","0.1","12","300","64","21","1827","-4932","22604","7","150","149.89","116.03","33.85","17.96","66.9","11.72","0","0.00","DUALSPOT-UV-BLUE-GREEN-RED-IR","767319","699810","904264","5.045242","1.403858","0.000438","883470","901663","840539","2.790635","0.728183","0.000000","863441","873321","830250","2.204162","0.568110","0.000000","885965","878556","889275","1.615543","0.402548","0.000000","778940","895325","962441","0.860376","0.205101","0.000000","2497","2501","2503","1825","1659","1825","1648","1440","1648","1477","1208","1477","1134","923","1134","DualSpot on"
"MA200-0420","42505","68","1","1.10","1.6","2023-07-11T05:25:00","120","2023/07/11","05:25:00","-15.79576712846756","35.002972999354824","0.1","12","300","64","21","1780","-4932","22684","7","150","150.00","116.51","33.49","17.93","66.6","11.62","0","0.00","DUALSPOT-UV-BLUE-GREEN-RED-IR","769467","704106","911243","5.538110","1.561790","0.024912","880445","900317","840013","3.069687","0.818985","0.049755","861607","872782","830335","2.426624","0.640398","0.000000","884073","877654","888860","1.780495","0.455942","0.000000","778300","895121","962522","0.953327","0.236475","0.000000","2484","2770","2882","1775","2010","2095","1585","1792","1585","1420","1599","1420","1114","1308","1114","DualSpot on"
"MA200-0420","42506","68","1","1.10","1.6","2023-07-11T05:30:00","120","2023/07/11","05:30:00","-15.79577761888504","35.002968832850456","0.1","12","300","64","20","1768","-4848","22824","7","150","149.96","115.92","34.04","17.89","66.8","11.63","90660","16.56","DUALSPOT-UV-BLUE-GREEN-RED-IR","765761","703324","911510","6.050234","1.703172","-0.015066","877357","899156","839517","3.361642","0.889635","-0.093648","864794","877614","835343","2.659494","0.695568","0.000000","882709","877513","889001","1.953234","0.496839","0.000000","777567","894957","962587","1.051574","0.260719","0.000000","2594","2439","2378","1867","1538","1420","1667","1345","1667","1495","1205","1495","1184","994","1184","DualSpot on"
"MA200-0420","42507","68","1","1.10","1.6","2023-07-11T05:35:00","120","2023/07/11","05:35:00","-15.79577499628067","35.00300299981609","0.2","12","300","64","20","1743","-4864","22760","7","150","150.21","116.04","34.18","17.85","66.8","11.59","90664","16.56","DUALSPOT-UV-BLUE-GREEN-RED-IR","759620","701110","910649","6.753088","1.921104","0.010178","873673","897812","839249","3.748202","1.004433","0.003011","861768","876442","834975","2.966386","0.784456","0.000000","880293","876504","888594","2.181584","0.560228","0.000000","776494","894562","962451","1.178831","0.293482","0.000000","3557","3745","3820","2469","2490","2497","2195","2159","2195","1974","1860","1974","1531","1339","1531","DualSpot on"
"MA200-0420","42508","68","1","1.10","1.6","2023-07-11T05:40:00","120","2023/07/11","05:40:00","-15.79577499628067","35.00299816625193","0.1","12","300","64","20","1791","-4891","22437","7","150","149.36","115.96","33.40","17.85","66.7","11.57","90668","16.56","DUALSPOT-UV-BLUE-GREEN-RED-IR","750829","697469","908620","7.701057","2.218916","0.014685","867428","894718","837632","4.274911","1.159167","0.006247","856950","874102","833801","3.384960","0.905484","0.001571","875647","873810","886681","2.494021","0.649212","0.000000","778882","898474","967136","1.354288","0.340294","0.000000","4801","5237","5413","3367","3434","3459","2996","3008","3012","2703","2672","2703","2113","1957","2113","DualSpot on"
"MA200-0420","42509","68","1","1.10","1.6","2023-07-11T05:45:00","120","2023/07/11","05:45:00","-15.795786023139954","35.00299233291298","0.2","12","300","64","20","1760","-4792","22240","7","150","149.44","115.88","33.56","17.82","66.6","11.52","90668","16.44","DUALSPOT-UV-BLUE-GREEN-RED-IR","746802","695958","907949","8.162752","2.361982","0.010969","864896","893787","837420","4.545724","1.236659","-0.003699","854729","873221","833471","3.602332","0.966298","-0.013544","874138","873362","886585","2.656173","0.692863","0.000000","777787","897805","966652","1.447244","0.366744","0.000000","2340","2503","2570","1732","1711","1703","1557","1504","1484","1403","1304","1403","1120","1100","1120","DualSpot on"
"MA200-0420","42510","68","1","1.10","1.6","2023-07-11T05:50:00","120","2023/07/11","05:50:00","-15.795770764350891","35.002970999572426","0.1","12","300","64","19","1732","-4840","22588","7","150","150.00","116.05","33.96","17.76","66.9","11.52","90680","16.38","DUALSPOT-UV-BLUE-GREEN-RED-IR","740918","693224","905823","8.715748","2.521251","-0.002601","866580","897731","841809","4.866850","1.315337","-0.058965","851131","871263","832098","3.860384","1.026952","-0.094880","877635","878201","891867","2.849388","0.735769","0.000000","775699","896151","965115","1.552930","0.386794","0.000000","2798","2754","2736","2051","1717","1594","1846","1482","1351","1670","1267","1670","1272","824","1272","DualSpot on"
"MA200-0420","42511","68","1","1.10","1.6","2023-07-11T05:55:00","120","2023/07/11","05:55:00","-15.795763969421387","35.00293183303438","0.1","12","300","64","19","1800","-4888","22700","7","150","149.63","115.80","33.83","17.72","67.7","11.66","90688","16.38","DUALSPOT-UV-BLUE-GREEN-RED-IR","736524","691914","905400","9.274937","2.668367","-0.017494","856662","889802","834853","5.195075","1.380193","-0.151674","848225","870168","831414","4.123259","1.075768","-0.235779","874994","876966","890898","3.047347","0.770132","-0.389975","774658","895807","964846","1.661260","0.405502","0.000000","2836","2554","2440","2101","1421","1175","1884","1198","955","1715","1019","783","1306","772","1306","DualSpot on"
"MA200-0420","42512","68","1","1.10","1.6","2023-07-11T06:00:00","120","2023/07/11","06:00:00","-15.795755743980408","35.00297816609964","0.0","13","300","64","18","1788","-4796","22548","7","150","149.38","115.76","33.62","17.69","68.0","11.70","90692","16.38","DUALSPOT-UV-BLUE-GREEN-RED-IR","732172","690123","904614","9.773716","2.836134","0.018642","860214","895342","840953","5.504083","1.479917","0.023986","845801","869163","831134","4.377431","1.154315","0.018284","872934","876128","890571","3.241466","0.825286","-0.009256","773567","895281","964600","1.774816","0.432687","0.000000","2530","2931","3094","1978","2199","2279","1822","1939","1981","1682","1645","1633","1370","1129","1370","DualSpot on"
"MA200-0420","42513","68","1","1.10","1.6","2023-07-11T06:05:00","120","2023/07/11","06:05:00","-15.795758843421936","35.00300066662021","0.2","13","300","64","18","1776","-4904","22244","7","150","150.15","116.63","33.51","17.69","68.0","11.72","90696","16.44","DUALSPOT-UV-BLUE-GREEN-RED-IR","729536","689987","905719","10.260658","2.987833","0.010348","851493","888246","834891","5.801314","1.561486","-0.011291","844710","869632","832093","4.619408","1.219570","-0.019731","872901","877288","892176","3.428263","0.876153","-0.022036","773590","896012","965685","1.888801","0.466703","0.000000","2452","2658","2743","1889","1804","1773","1722","1616","1578","1606","1522","1493","1365","1417","1365","DualSpot on"
"MA200-0420","42514","68","1","1.10","1.6","2023-07-11T06:10:00","120","2023/07/11","06:10:00","-15.795766234397888","35.00296333339065","0.0","13","300","64","18","1833","-4825","22366","7","150","150.28","116.15","34.12","17.74","68.5","11.87","0","0.00","DUALSPOT-UV-BLUE-GREEN-RED-IR","728032","690791","908070","10.721992","3.116790","-0.006850","851839","890404","837487","6.070661","1.617097","-0.112199","844331","870720","833552","4.840761","1.262194","-0.180350","865459","870987","886038","3.595441","0.902415","-0.456145","773647","896855","966688","1.985797","0.478601","0.000000","2332","2219","2173","1719","1208","1022","1582","1037","844","1444","772","546","1166","487","1166","DualSpot on"
"MA200-0420","42515","68","1","1.10","1.6","2023-07-11T06:15:00","120","2023/07/11","06:15:00","-15.795754134654999","35.00297566619702","0.0","13","300","64","17","1800","-4840","22700","7","150","149.79","116.00","33.79","17.78","68.6","11.93","0","0.00","DUALSPOT-UV-BLUE-GREEN-RED-IR","726005","690838","909397","11.149599","3.259405","0.015262","850533","890696","838384","6.335968","1.697867","0.009193","843470","871186","834514","5.057180","1.325518","0.001231","865661","872216","887718","3.763670","0.950386","-0.007659","773951","897909","968119","2.089897","0.505332","0.000000","2165","2479","2609","1695","1772","1800","1548","1556","1558","1454","1424","1414","1253","1105","1253","DualSpot on"
"MA200-0420","42516","68","1","1.10","1.6","2023-07-11T06:20:00","120","2023/07/11","06:20:00","-15.79574567079544","35.00298466626555","0.1","13","300","64","17","1852","-4812","22348","7","150","149.89","115.60","34.29","17.83","68.5","11.96","90728","16.63","DUALSPOT-UV-BLUE-GREEN-RED-IR","720134","687062","905591","11.543652","3.386510","0.009548","851373","893119","841290","6.584412","1.769924","-0.004743","838686","867506","831486","5.265433","1.384944","-0.010298","867176","874798","890727","3.927871","0.997033","-0.015263","770427","894469","964682","2.193855","0.535657","0.000000","2002","2177","2250","1593","1557","1545","1495","1438","1418","1425","1364","1344","1256","1235","1256","DualSpot on"
