"Serial number","Datum ID","Session ID","Data format version","Firmware version","App version","Date / time local","Timezone offset (mins)","Date local (yyyy/MM/dd)","Time local (hh:mm:ss)","GPS lat (ddmm.mmmmm)","GPS long (dddmm.mmmmm)","GPS speed (km/h)","GPS sat count","Timebase (s)","Status","Battery remaining (%)","Accel X","Accel Y","Accel Z","Tape position","Flow setpoint (mL/min)","Flow total (mL/min)","Flow1 (mL/min)","Flow2 (mL/min)","Sample temp (C)","Sample RH (%)","Sample dewpoint (C)","Internal pressure (Pa)","Internal temp (C)","Optical config","UV Sen1","UV Sen2","UV Ref","UV ATN1","UV ATN2","UV K","Blue Sen1","Blue Sen2","Blue Ref","Blue ATN1","Blue ATN2","Blue K","Green Sen1","Green Sen2","Green Ref","Green ATN1","Green ATN2","Green K","Red Sen1","Red Sen2","Red Ref","Red ATN1","Red ATN2","Red K","IR Sen1","IR Sen2","IR Ref","IR ATN1","IR ATN2","IR K","UV BC1","UV BC2","UV BCc","Blue BC1","Blue BC2","Blue BCc","Green BC1","Green BC2","Green BCc","Red BC1","Red BC2","Red BCc","IR BC1","IR BC2","IR BCc","Readable status"
"MA200-0416","31589","92","1","1.10","1.4","2023-05-29T16:29:30","120","2023/05/29","16:29:30","0","0","0.0","1","30","66","55","-22812","-3876","-11768","8","150","149.64","112.91","36.73","28.82","33.3","11.06","90436","28.00","DUALSPOT-UV-BLUE-GREEN-RED-IR","846883","727155","905589","0.000000","0.000000","0.000000","800223","909381","762714","0.000000","0.000000","0.000000","894314","912899","814442","0.000000","0.000000","0.000000","876224","929117","860465","0.000000","0.000000","0.000000","741971","850667","951539","0.000000","0.000000","0.000000","","","","","","","","","","","","","","","","Start up"
"MA200-0416","31590","92","1","1.10","1.4","2023-05-29T16:30:00","120","2023/05/29","16:30:00","0","0","0.0","3","30","66","55","-22716","-4152","-12044","8","150","149.80","113.13","36.67","28.82","33.4","11.11","90436","28.13","DUALSPOT-UV-BLUE-GREEN-RED-IR","839522","721272","898514","0.000000","0.000000","0.000000","794713","903396","757877","0.000000","0.000000","0.000000","897450","916372","817684","0.000000","0.000000","0.000000","881769","935216","866228","0.000000","0.000000","0.000000","745068","854387","955776","0.000000","0.000000","0.000000","","","","","","","","","","","","","","","","Start up"
"MA200-0416","31591","92","1","1.10","1.4","2023-05-29T16:30:30","120","2023/05/29","16:30:30","0","0","0.0","6","30","66","54","-23256","-4376","-10736","8","150","150.41","113.80","36.61","28.82","33.4","11.13","90436","28.13","DUALSPOT-UV-BLUE-GREEN-RED-IR","846307","727584","906652","0.000000","0.000000","0.000000","799916","909701","763320","0.000000","0.000000","0.000000","893387","912475","814366","0.000000","0.000000","0.000000","877157","930494","861984","0.000000","0.000000","0.000000","741567","850481","951507","0.000000","0.000000","0.000000","","","","","","","","","","","","","","","","Start up"
"MA200-0416","31592","92","1","1.10","1.4","2023-05-29T16:31:00","120","2023/05/29","16:31:00","0","0","0.0","6","30","66","55","-21940","-4712","-12384","8","150","149.94","113.59","36.35","28.82","33.4","11.13","90436","28.19","DUALSPOT-UV-BLUE-GREEN-RED-IR","847223","728809","908397","0.000000","0.000000","0.000000","800359","910567","764140","0.000000","0.000000","0.000000","893812","913167","815072","0.000000","0.000000","0.000000","878719","932367","863818","0.000000","0.000000","0.000000","742432","851595","952798","0.000000","0.000000","0.000000","","","","","","","","","","","","","","","","Start up"
"MA200-0416","31593","92","1","1.10","1.4","2023-05-29T16:31:30","120","2023/05/29","16:31:30","0","0","0.0","6","30","66","54","-21672","-3232","-13376","8","150","150.29","113.72","36.57","28.82","33.4","11.13","90460","28.25","DUALSPOT-UV-BLUE-GREEN-RED-IR","846210","728352","908079","0.000000","0.000000","0.000000","799788","910236","763994","0.000000","0.000000","0.000000","893232","912824","814866","0.000000","0.000000","0.000000","876627","930363","862035","0.000000","0.000000","0.000000","741798","850984","952147","0.000000","0.000000","0.000000","","","","","","","","","","","","","","","","Start up"
"MA200-0416","31594","92","1","1.10","1.4","2023-05-29T16:32:00","120","2023/05/29","16:32:00","0","0","0.0","6","30","64","54","-24268","-2100","-10356","8","150","149.45","114.05","35.40","28.82","33.4","11.13","90476","28.31","DUALSPOT-UV-BLUE-GREEN-RED-IR","842667","725756","905058","0.000000","0.000000","0.000000","797027","907425","761760","0.000000","0.000000","0.000000","894827","914721","816652","0.000000","0.000000","0.000000","879790","933895","865388","0.000000","0.000000","0.000000","743650","853225","954733","0.000000","0.000000","0.000000","","","","","","","","","","","","","","","",""
"MA200-0416","31595","92","1","1.10","1.4","2023-05-29T16:32:30","120","2023/05/29","16:32:30","0","0","0.0","7","30","64","54","-23676","-4340","-9740","8","150","149.55","113.52","36.03","28.83","33.4","11.14","90492","28.31","DUALSPOT-UV-BLUE-GREEN-RED-IR","841422","725201","904651","0.102116","0.030000","0.000000","796417","907152","761682","0.063937","0.018669","0.000000","894862","915120","817136","0.051509","0.014960","0.000000","874472","928499","860483","0.038105","0.011163","0.000000","743899","853646","955278","0.023811","0.007882","0.000000","5283","4891","5283","4175","3841","4175","3767","3447","3767","3367","3108","3367","2930","3056","2930",""
"MA200-0416","31596","92","1","1.10","1.4","2023-05-29T16:33:00","120","2023/05/29","16:33:00","0","0","0.0","8","30","64","54","-23516","-3555","-10656","8","150","150.15","114.16","35.99","28.83","33.4","11.14","90588","28.31","DUALSPOT-UV-BLUE-GREEN-RED-IR","841561","726189","906348","0.274709","0.080869","0.000000","796840","908358","762932","0.177431","0.050592","0.000000","894201","914998","817249","0.140410","0.040089","0.000000","874138","928594","860737","0.107276","0.031805","0.000000","743678","853675","955412","0.067024","0.020436","0.000000","8880","8301","8880","7370","6575","7370","6465","5796","6465","6079","5753","6079","5288","4872","5288",""
"MA200-0416","31597","92","1","1.10","1.4","2023-05-29T16:33:30","120","2023/05/29","16:33:30","0","0","0.0","8","30","64","54","-21600","-7352","-13276","8","150","150.09","113.72","36.37","28.84","33.5","11.17","90564","28.38","DUALSPOT-UV-BLUE-GREEN-RED-IR","838539","725061","905678","0.520807","0.149955","0.000000","794575","907158","762384","0.359880","0.101995","0.000000","888324","910134","813285","0.289011","0.082450","0.000000","874132","929518","861934","0.224769","0.064885","0.000000","743663","854238","956273","0.143497","0.041316","0.000000","12710","11156","12710","11893","10477","11893","10848","9669","10848","10365","9125","10365","9393","8019","9393",""
"MA200-0416","31598","92","1","1.10","1.4","2023-05-29T16:34:00","120","2023/05/29","16:34:00","0","0","0.0","7","30","64","53","-21544","-4692","-14056","8","150","150.49","114.00","36.49","28.85","33.4","11.16","90396","28.38","DUALSPOT-UV-BLUE-GREEN-RED-IR","835395","723695","904666","0.791432","0.229532","0.000000","792235","905731","761630","0.561911","0.161153","0.000000","890349","913280","816471","0.457870","0.129675","0.000000","870759","926798","859740","0.359135","0.102925","0.000000","742013","852871","954981","0.232856","0.066927","0.000000","13943","12809","13943","13137","12018","13137","12297","10745","12297","11824","10459","11824","10949","9805","10949",""
"MA200-0416","31599","92","1","1.10","1.4","2023-05-29T16:34:30","120","2023/05/29","16:34:30","0","0","0.0","6","30","64","53","-21441","-5383","-13450","8","150","149.99","114.12","35.87","28.86","33.4","11.14","90384","28.38","DUALSPOT-UV-BLUE-GREEN-RED-IR","836282","725510","907504","1.008336","0.297899","0.000000","793281","907857","763757","0.715893","0.207036","0.000000","886298","909879","813762","0.585704","0.169407","0.000000","872240","928963","862001","0.458967","0.133353","0.000000","738184","848788","950620","0.296827","0.086110","0.000000","11164","11195","11164","10003","9483","10003","9300","9196","9300","8776","8510","8776","7830","7470","7830",""
"MA200-0416","31600","92","1","1.10","1.4","2023-05-29T16:35:00","120","2023/05/29","16:35:00","0","0","0.0","10","30","64","54","-22046","-4976","-13219","8","150","150.01","113.92","36.09","28.87","33.3","11.11","0","0.00","DUALSPOT-UV-BLUE-GREEN-RED-IR","833354","724615","907284","1.337960","0.396486","0.000000","791351","907136","763659","0.949347","0.276065","0.000000","884639","909384","813759","0.776338","0.225281","0.000000","872710","930442","863740","0.605458","0.175028","0.000000","738537","849730","951886","0.387506","0.113788","0.000000","16995","16046","16995","15192","14180","15192","13893","12854","13893","12901","11586","12901","11119","10714","11119",""
"MA200-0416","31601","92","1","1.10","1.4","2023-05-29T16:35:30","120","2023/05/29","16:35:30","0","0","0.0","10","30","64","53","-21732","-5412","-13523","8","150","150.57","114.10","36.47","28.88","33.2","11.10","0","0.00","DUALSPOT-UV-BLUE-GREEN-RED-IR","832614","725064","908447","1.521735","0.451215","0.000000","790435","907176","764063","1.088255","0.315303","0.000000","883832","909440","814134","0.891137","0.257807","0.000000","871908","930305","863864","0.697374","0.201547","0.000000","737966","849530","951898","0.445995","0.129881","0.000000","9460","8813","9460","9025","7975","9025","8353","7403","8353","8082","7294","8082","7160","6163","7160",""
"MA200-0416","31602","92","1","1.10","1.4","2023-05-29T16:36:00","120","2023/05/29","16:36:00","0","0","0.0","9","30","64","53","-21864","-6415","-13012","8","150","150.62","114.52","36.10","28.89","33.2","11.09","90300","28.44","DUALSPOT-UV-BLUE-GREEN-RED-IR","832347","725932","910163","1.749139","0.521020","0.000000","790108","907839","765020","1.263863","0.369173","0.000000","883487","909963","814938","1.036488","0.301414","0.000000","871820","930929","864738","0.813627","0.236648","0.000000","738211","850190","952824","0.520669","0.153645","0.000000","11663","11356","11663","11367","11061","11367","10537","10027","10537","10184","9753","10184","9109","9194","9109",""
"MA200-0416","31603","92","1","1.10","1.4","2023-05-29T16:36:30","120","2023/05/29","16:36:30","0","0","0.0","10","30","64","53","-21568","-6972","-12923","8","150","149.80","113.84","35.96","28.90","33.1","11.07","90248","28.44","DUALSPOT-UV-BLUE-GREEN-RED-IR","827224","723180","907686","2.105470","0.630149","0.000000","786735","905662","763795","1.536935","0.450349","0.000000","879776","907582","813392","1.263385","0.368516","0.000000","868437","928471","862911","0.993365","0.289946","0.000000","736491","848901","951719","0.635885","0.189013","0.000000","18385","17823","18385","17783","16733","17783","16548","15491","16548","15840","14868","15840","14138","13738","14138",""
"MA200-0416","31604","92","1","1.10","1.4","2023-05-29T16:37:00","120","2023/05/29","16:37:00","0","0","0.0","10","30","64","53","-21215","-11292","-12526","8","150","149.73","113.63","36.10","28.90","33.1","11.05","90216","28.44","DUALSPOT-UV-BLUE-GREEN-RED-IR","821110","719515","904013","2.468953","0.745311","0.000000","786557","907233","765755","1.830756","0.539720","0.000000","880027","909346","815496","1.515138","0.444047","0.000000","869700","931078","865834","1.198101","0.351470","0.000000","736686","849886","953201","0.775215","0.232549","0.000000","18789","18736","18789","19169","18351","19169","18394","17369","18394","18077","17097","18077","17129","16846","17129",""
"MA200-0416","31605","92","1","1.10","1.4","2023-05-29T16:37:30","120","2023/05/29","16:37:30","0","0","0.0","11","30","64","53","-18692","-2664","-18236","8","150","149.63","114.20","35.43","28.90","33.1","11.05","90240","28.44","DUALSPOT-UV-BLUE-GREEN-RED-IR","819355","719361","904613","2.748618","0.832199","0.000000","780493","901543","761455","2.052223","0.606376","0.000000","878882","909331","815946","1.702517","0.500881","0.000000","867793","930017","865246","1.348185","0.396579","0.000000","736212","849943","953559","0.874849","0.261633","0.000000","14383","14404","14383","14376","13946","14376","13622","13317","13622","13185","12773","13185","12187","11467","12187",""
"MA200-0416","31606","92","1","1.10","1.4","2023-05-29T16:38:00","120","2023/05/29","16:38:00","0","0","0.0","12","30","64","53","-18860","-3212","-17616","8","150","149.45","114.08","35.36","28.92","33.0","11.05","90316","28.44","DUALSPOT-UV-BLUE-GREEN-RED-IR","818835","719404","904950","2.858693","0.867971","0.000000","784844","907123","766337","2.135450","0.632757","0.000000","878142","908969","815771","1.770490","0.521390","0.000000","868033","930612","865905","1.403814","0.413346","0.000000","735836","849694","953383","0.910501","0.272374","0.000000","5667","5941","5667","5408","5530","5408","4946","4815","4946","4892","4756","4892","4365","4242","4365",""
"MA200-0416","31607","92","1","1.10","1.4","2023-05-29T16:38:30","120","2023/05/29","16:38:30","-15.785314500331879","35.004256332758814","0.1","9","30","64","53","-19416","-4696","-17040","8","150","149.76","113.69","36.07","28.94","33.0","11.05","90316","28.50","DUALSPOT-UV-BLUE-GREEN-RED-IR","822329","723009","909793","2.965621","0.899404","0.000000","782976","905469","765118","2.214151","0.654090","0.000000","876664","907888","814921","1.835042","0.538241","0.000000","866829","929647","865135","1.453936","0.425970","0.000000","735369","849346","953048","0.942369","0.280972","0.000000","5524","5117","5524","5131","4384","5131","4713","3878","4713","4423","3511","4423","3915","3329","3915",""
"MA200-0416","31608","92","1","1.10","1.4","2023-05-29T16:39:00","120","2023/05/29","16:39:00","-15.785337209701538","35.00424566632137","0.1","9","30","64","53","-19316","-4464","-17108","8","150","150.16","113.68","36.48","28.94","33.0","11.03","90320","28.50","DUALSPOT-UV-BLUE-GREEN-RED-IR","818658","720171","906477","3.047898","0.926170","0.006415","779927","902290","762583","2.274203","0.673456","0.000000","878303","909871","816836","1.885700","0.553679","0.000000","862856","925661","861537","1.494157","0.439083","0.000000","737200","851623","955683","0.969240","0.288211","0.000000","4250","4309","4335","3915","3935","3915","3699","3513","3699","3549","3606","3549","3301","2772","3301",""
"MA200-0416","31609","92","1","1.10","1.4","2023-05-29T16:39:30","120","2023/05/29","16:39:30","-15.785356342792511","35.00423716567457","0.1","8","30","64","53","-19344","-4464","-17012","8","150","149.45","113.76","35.68","28.97","32.9","11.03","90324","28.56","DUALSPOT-UV-BLUE-GREEN-RED-IR","818509","720456","907029","3.132808","0.952533","-0.004698","779728","902438","762833","2.336001","0.691879","0.000000","874372","906100","813588","1.935685","0.569134","0.000000","864135","927281","863137","1.534247","0.450402","0.000000","733334","847302","950919","0.995632","0.297429","0.000000","4383","4339","4320","4027","3827","4027","3647","3596","3647","3535","3182","3535","3240","3608","3240",""
"MA200-0416","31610","92","1","1.10","1.4","2023-05-29T16:40:00","120","2023/05/29","16:40:00","-15.7853325009346","35.00413899915293","0.8","9","30","64","53","-19532","-4480","-17124","8","150","149.70","113.56","36.13","28.98","32.9","11.04","90320","28.56","DUALSPOT-UV-BLUE-GREEN-RED-IR","818990","721261","908240","3.205787","0.974985","-0.015574","780592","903750","764071","2.388465","0.708229","0.000000","874725","906746","814235","1.978570","0.580793","0.000000","864213","927592","863492","1.567465","0.459235","0.000000","733308","847399","951080","1.017150","0.303154","0.000000","3774","3649","3595","3424","3354","3424","3135","2678","3135","2934","2452","2934","2647","2213","2647",""
"MA200-0416","31611","92","1","1.10","1.4","2023-05-29T16:40:30","120","2023/05/29","16:40:30","-15.78565239906311","35.00431733299047","1.7","10","30","64","53","-19636","-3352","-16896","8","150","149.42","114.00","35.41","29.00","32.9","11.06","90340","28.63","DUALSPOT-UV-BLUE-GREEN-RED-IR","819170","721817","909185","3.284058","0.997747","-0.030731","780755","904340","764662","2.444660","0.723571","0.000000","874425","906741","814378","2.024597","0.592947","0.000000","864857","928503","864449","1.603615","0.468426","0.000000","733413","847669","951424","1.040931","0.309040","0.000000","4032","3775","3662","3654","3211","3654","3351","2849","3351","3181","2603","3181","2914","2321","2914",""
"MA200-0416","31612","92","1","1.10","1.4","2023-05-29T16:41:00","120","2023/05/29","16:41:00","-15.785873353481293","35.00486300000921","0.7","10","30","64","53","-19553","-5888","-16492","8","150","149.67","113.96","35.70","29.01","32.9","11.07","90316","28.63","DUALSPOT-UV-BLUE-GREEN-RED-IR","813164","717375","904088","3.430010","1.043943","0.004240","780244","904576","765175","2.554041","0.756372","0.000000","874966","908011","815780","2.115905","0.620245","0.000000","865682","929959","866018","1.675136","0.489223","0.000000","734192","848913","952997","1.086578","0.322809","0.000000","7522","7599","7633","7115","6810","7115","6651","6347","6651","6296","5843","6296","5595","5387","5595",""
"MA200-0416","31613","92","1","1.10","1.4","2023-05-29T16:41:30","120","2023/05/29","16:41:30","-15.785784721374512","35.005022498779","2.7","11","30","64","53","-20148","-7832","-15468","8","150","150.62","113.96","36.66","29.04","32.9","11.11","90304","28.69","DUALSPOT-UV-BLUE-GREEN-RED-IR","811240","717235","904864","3.755568","1.148771","0.000359","774638","899617","761561","2.806377","0.832683","0.000000","873250","907549","815877","2.322888","0.682354","0.000000","864553","929828","866311","1.838200","0.537723","0.000000","733538","848721","953105","1.191562","0.355682","0.000000","16779","16794","16801","16414","15431","16414","15078","14065","15078","14355","13272","14355","12868","12526","12868",""
"MA200-0416","31614","92","1","1.10","1.4","2023-05-29T16:42:00","120","2023/05/29","16:42:00","-15.785825192928314","35.005301165394485","0.1","11","30","64","53","-19352","-6160","-16660","8","150","149.33","113.49","35.84","29.05","32.9","11.10","90296","28.69","DUALSPOT-UV-BLUE-GREEN-RED-IR","810607","717808","906253","3.984213","1.222013","0.005068","773999","900008","762325","2.979857","0.886655","0.000000","872415","907612","816288","2.466643","0.726389","0.000000","863861","929856","866648","1.952318","0.572860","0.000000","733230","848819","953453","1.263507","0.377998","0.000000","11833","12002","12077","11332","11163","11332","10516","10200","10516","10088","9835","10088","8856","8698","8856",""
"MA200-0416","31615","92","1","1.10","1.4","2023-05-29T16:42:30","120","2023/05/29","16:42:30","-15.7858225107193","35.00527533236891","0.0","10","30","64","53","-19428","-6292","-16500","8","150","149.39","113.88","35.50","29.07","32.9","11.12","90292","28.69","DUALSPOT-UV-BLUE-GREEN-RED-IR","809287","717903","907147","4.267194","1.312164","0.007183","773108","900284","763051","3.210735","0.957578","-0.006635","871688","908019","817095","2.666789","0.786554","0.000000","857294","923798","861380","2.118470","0.621253","0.000000","733240","849486","954484","1.380741","0.413688","0.000000","14594","14914","15056","15029","14809","14715","14591","14069","14591","14637","13675","14637","14380","14043","14380",""
"MA200-0416","31616","92","1","1.10","1.4","2023-05-29T16:43:00","120","2023/05/29","16:43:00","-15.785849392414093","35.005256332457066","0.0","9","30","64","52","-19396","-6392","-17064","8","150","149.63","113.68","35.95","29.09","32.8","11.10","90296","28.75","DUALSPOT-UV-BLUE-GREEN-RED-IR","808164","717570","907059","4.398376","1.352779","-0.007064","772631","900408","763391","3.314411","0.988544","-0.025876","870537","907416","816746","2.755928","0.812494","0.000000","857520","924499","862189","2.190341","0.641137","0.000000","732776","849249","954360","1.430147","0.427430","0.000000","6777","6636","6573","6760","6385","6226","6509","5990","6509","6342","5549","6342","6071","5340","6071",""
"MA200-0416","31617","92","1","1.10","1.4","2023-05-29T16:43:30","120","2023/05/29","16:43:30","-15.785029411315918","35.005502165295184","5.7","9","30","64","52","-18372","-4071","-18028","8","150","149.67","113.84","35.83","29.12","32.8","11.10","90248","28.81","DUALSPOT-UV-BLUE-GREEN-RED-IR","808538","718562","908742","4.522900","1.393577","0.012315","772017","900344","763546","3.409862","1.017351","-0.018327","866443","903688","813603","2.835184","0.835609","0.000000","858701","926230","863991","2.253533","0.660246","0.000000","733617","850532","955957","1.474603","0.441243","0.000000","6424","6687","6803","6215","5959","5850","5780","5355","5780","5569","5350","5569","5455","5384","5455",""
"MA200-0416","31618","92","1","1.10","1.4","2023-05-29T16:44:00","120","2023/05/29","16:44:00","-15.784904062747955","35.006224832031876","5.1","10","30","64","53","-18724","-3048","-18272","8","150","150.39","113.48","36.92","29.13","32.8","11.11","90272","28.81","DUALSPOT-UV-BLUE-GREEN-RED-IR","807242","718269","908854","4.711860","1.453662","-0.007164","771812","900921","764327","3.552782","1.060081","-0.036724","870131","908196","817976","2.956414","0.872408","0.000000","857866","925891","863886","2.350755","0.688350","0.000000","732879","849980","955487","1.537736","0.461207","0.000000","9780","9559","9461","9336","8580","8259","8869","8275","8869","8595","7637","8595","7771","7554","7771",""
"MA200-0416","31619","92","1","1.10","1.4","2023-05-29T16:44:30","120","2023/05/29","16:44:30","-15.785621881484985","35.00763266580179","7.0","9","30","64","52","-19816","-1788","-17472","8","150","149.90","114.16","35.73","29.15","32.8","11.13","90340","28.81","DUALSPOT-UV-BLUE-GREEN-RED-IR","806492","718087","908905","4.814596","1.486925","0.009828","771222","900668","764343","3.627711","1.083934","0.006530","865342","903603","813945","3.016185","0.889378","-0.050371","858820","927223","865253","2.397509","0.701468","0.000000","733232","850575","956251","1.570209","0.470830","0.000000","5285","5467","5548","4865","4948","4983","4346","3942","3773","4108","3683","4108","3973","3762","3973",""
"MA200-0416","31620","92","1","1.10","1.4","2023-05-29T16:45:00","120","2023/05/29","16:45:00","-15.785978078842163","35.008498998358846","3.1","9","30","64","52","-19404","-4012","-16892","8","150","149.96","114.16","35.80","29.16","32.8","11.14","90372","28.81","DUALSPOT-UV-BLUE-GREEN-RED-IR","801254","713967","904057","4.922129","1.522090","0.011854","771703","901770","765460","3.706664","1.107883","-0.013217","865715","904401","814857","3.080863","0.909495","-0.003808","858279","927007","865205","2.449188","0.718486","0.000000","729101","846015","951208","1.602897","0.480815","0.000000","5532","5769","5875","5126","4959","4887","4703","4665","4649","4541","4768","4541","3999","3896","3999",""
"MA200-0416","31621","92","1","1.10","1.4","2023-05-29T16:45:30","120","2023/05/29","16:45:30","-15.786263048648834","35.00956516433507","3.9","9","30","64","52","-19064","-1864","-17848","8","150","150.17","114.00","36.17","29.18","32.8","11.16","90352","28.81","DUALSPOT-UV-BLUE-GREEN-RED-IR","799265","713146","903493","5.103574","1.578979","-0.003426","770726","901527","765577","3.845906","1.150644","-0.012503","863783","903174","814028","3.198278","0.943463","-0.044737","857639","926932","865359","2.540635","0.743663","0.000000","727986","845054","950329","1.663045","0.499662","0.000000","9348","9237","9187","9054","8763","8639","8550","7796","7480","8047","6983","8047","7370","7278","7370",""
"MA200-0416","31622","92","1","1.10","1.4","2023-05-29T16:46:00","120","2023/05/29","16:46:00","-15.786827206611633","35.01100349705666","7.3","9","30","64","52","-18360","-4612","-17584","8","150","149.82","114.00","35.82","29.20","32.8","11.20","90332","28.81","DUALSPOT-UV-BLUE-GREEN-RED-IR","795103","711077","901939","5.441178","1.687120","0.005059","767283","899251","764324","4.113686","1.232677","-0.008979","861060","901783","813344","3.422368","1.011669","-0.013560","854412","924677","863765","2.722936","0.798010","0.000000","730987","849338","955485","1.787221","0.535514","0.000000","17393","17733","17886","17413","16978","16792","16319","15809","15595","16043","15223","16043","15216","13983","15216",""
"MA200-0416","31623","92","1","1.10","1.4","2023-05-29T16:46:30","120","2023/05/29","16:46:30","-15.787558853626251","35.01285283174366","8.2","10","30","64","52","-18200","-3500","-18280","8","150","150.58","113.78","36.80","29.21","32.8","11.21","90392","28.88","DUALSPOT-UV-BLUE-GREEN-RED-IR","796181","712733","904432","5.602004","1.738685","-0.002254","763519","895437","761337","4.233068","1.269393","-0.017787","861639","902991","814650","3.524166","1.042437","-0.029066","856014","926866","865984","2.803937","0.822687","0.000000","727398","845430","951261","1.840295","0.551004","0.000000","8301","8230","8198","7778","7396","7233","7427","6941","6737","7142","6727","7142","6516","5880","6516",""
"MA200-0416","31624","92","1","1.10","1.4","2023-05-29T16:47:00","120","2023/05/29","16:47:00","-15.787706792354584","35.01299733109772","7.5","12","30","64","52","-18673","-5526","-17703","8","150","149.94","113.96","35.98","29.23","32.8","11.23","90408","28.88","DUALSPOT-UV-BLUE-GREEN-RED-IR","793825","711586","903612","5.783427","1.797529","0.006613","766397","899844","765453","4.375696","1.312435","-0.015361","860511","902601","814667","3.643733","1.078182","-0.022354","855810","927338","866691","2.898690","0.850206","0.000000","726946","845346","951346","1.905149","0.571111","0.000000","9350","9606","9722","9278","8869","8693","8710","8248","8054","8341","7674","8341","7949","7807","7949",""
"MA200-0416","31625","92","1","1.10","1.4","2023-05-29T16:47:30","120","2023/05/29","16:47:30","-15.787370324134827","35.01152533106506","3.7","12","30","64","52","-17666","-4229","-19370","8","150","149.32","114.00","35.31","29.23","32.8","11.23","90368","28.88","DUALSPOT-UV-BLUE-GREEN-RED-IR","793284","712228","905089","6.033579","1.877927","0.008574","765258","899674","765720","4.570502","1.371706","-0.005701","859798","902863","815259","3.811526","1.128655","-0.011236","848635","920429","860559","3.036492","0.890052","-0.034213","726645","845550","951803","2.000516","0.598268","0.000000","12888","13372","13591","12667","12442","12346","12219","11866","11717","12127","11320","10985","11686","10742","11686",""
"MA200-0416","31626","92","1","1.10","1.4","2023-05-29T16:48:00","120","2023/05/29","16:48:00","-15.787423431873322","35.01099849678576","0.8","10","30","64","52","-18180","-4112","-18676","8","150","150.14","114.04","36.10","29.24","32.8","11.20","90372","28.88","DUALSPOT-UV-BLUE-GREEN-RED-IR","791417","711372","904474","6.186586","1.928215","0.008508","764246","899258","765680","4.687712","1.407384","-0.012383","858514","902196","814903","3.910618","1.157546","-0.032312","848044","920330","860664","3.115207","0.912404","-0.054712","725938","845020","951393","2.053957","0.614852","0.000000","7880","8181","8318","7619","7326","7201","7213","6644","6404","6924","6211","5916","6546","6417","6546",""
"MA200-0416","31627","92","1","1.10","1.4","2023-05-29T16:48:30","120","2023/05/29","16:48:30","-15.78746348619461","35.01071966346353","2.5","10","30","64","52","-17772","-2936","-19296","8","150","150.16","114.12","36.04","29.27","32.7","11.20","90384","28.88","DUALSPOT-UV-BLUE-GREEN-RED-IR","789170","711285","905518","6.551390","2.042385","-0.002015","758214","894171","762055","4.980988","1.493156","-0.023684","856425","901775","815146","4.160046","1.226854","-0.049349","852069","926216","866735","3.321284","0.967896","-0.079018","725050","844939","951712","2.193807","0.652199","0.000000","18775","18607","18531","19051","17643","17040","18145","15966","15055","18116","15448","14350","17119","14476","17119",""
"MA200-0416","31628","92","1","1.10","1.4","2023-05-29T16:49:00","120","2023/05/29","16:49:00","-15.78754734992981","35.01031333114952","1.4","12","30","64","52","-17788","-4508","-19016","8","150","149.61","114.34","35.26","29.28","32.7","11.19","90396","28.94","DUALSPOT-UV-BLUE-GREEN-RED-IR","787990","711742","907012","6.921071","2.162693","0.010761","757056","894349","762792","5.273048","1.583297","0.000231","855208","901862","815749","4.410494","1.302867","-0.005192","844951","919607","860976","3.524350","1.026850","-0.025550","724454","844917","952029","2.329916","0.693505","0.000000","18989","20040","20517","18935","18951","18958","18184","17897","17777","17817","16774","16345","16628","16364","16628",""
"MA200-0416","31629","92","1","1.10","1.4","2023-05-29T16:49:30","120","2023/05/29","16:49:30","-15.787555158138275","35.00986866466701","1.2","11","30","64","51","-17862","-3433","-19066","8","150","150.36","114.52","35.84","29.30","32.6","11.19","90412","28.94","DUALSPOT-UV-BLUE-GREEN-RED-IR","785286","709976","905211","7.056129","2.208412","0.015055","755248","892877","761764","5.375312","1.614107","-0.010485","853452","900559","814780","4.495030","1.327794","-0.019897","843590","918618","860228","3.595622","1.047575","-0.030898","723449","844061","951188","2.375965","0.707314","0.000000","6927","7492","7750","6619","6372","6266","6128","5774","5625","6244","5801","5619","5617","5382","5617",""
"MA200-0416","31630","92","1","1.10","1.4","2023-05-29T16:50:00","120","2023/05/29","16:50:00","-15.787575364112854","35.00968783162534","1.6","11","30","64","52","-18260","-3955","-18496","8","150","149.49","114.38","35.10","29.31","32.6","11.18","90424","29.00","DUALSPOT-UV-BLUE-GREEN-RED-IR","787154","712311","908624","7.199016","2.255901","0.014967","756078","894471","763428","5.483854","1.649286","0.013531","854537","902278","816573","4.586834","1.355474","-0.005570","846395","922158","863710","3.668417","1.069408","-0.009046","724953","846101","953642","2.425077","0.722791","0.000000","7337","7945","8223","7034","7429","7598","6663","6546","6497","6385","6239","6179","5998","6158","5998",""
"MA200-0416","31631","92","1","1.10","1.4","2023-05-29T16:50:30","120","2023/05/29","16:50:30","-15.787553191184998","35.00940116401762","1.8","11","30","64","52","-18184","-3116","-18840","8","150","149.39","114.40","34.99","29.33","32.6","11.20","90432","29.00","DUALSPOT-UV-BLUE-GREEN-RED-IR","786091","712136","908906","7.350386","2.305994","0.014536","755394","894432","763668","5.595393","1.683551","0.001157","853994","902315","816857","4.681545","1.384287","-0.001599","846372","922660","864398","3.741947","1.090210","-0.031599","724625","846047","953730","2.476045","0.737664","0.000000","7771","8409","8701","7227","7260","7275","6873","6837","6822","6448","5965","5766","6223","5938","6223",""
"MA200-0416","31632","92","1","1.10","1.4","2023-05-29T16:51:00","120","2023/05/29","16:51:00","-15.787424981594086","35.00883183069527","3.1","11","30","64","51","-18032","-3771","-18696","8","150","149.70","114.60","35.10","29.35","32.6","11.20","90452","29.00","DUALSPOT-UV-BLUE-GREEN-RED-IR","785342","712153","909304","7.515401","2.359556","0.010668","755489","895281","764621","5.721170","1.721073","-0.006747","853159","902045","816831","4.785615","1.414483","-0.016887","846686","923508","865380","3.827274","1.114785","-0.024002","724764","846524","954413","2.534977","0.754745","0.000000","8457","8963","9194","8136","7924","7833","7539","7142","6975","7470","7024","6841","7183","6798","7183",""
"MA200-0416","31633","92","1","1.10","1.4","2023-05-29T16:51:30","120","2023/05/29","16:51:30","-15.787361025810242","35.00862366426736","0.0","11","30","64","52","-18096","-3692","-18828","8","150","149.96","114.56","35.40","29.36","32.5","11.20","90464","29.06","DUALSPOT-UV-BLUE-GREEN-RED-IR","779529","707573","903916","7.650017","2.404043","0.012006","755651","896105","765578","5.819256","1.749891","-0.013033","848802","897996","813367","4.867762","1.437824","-0.026524","845870","923088","865126","3.892704","1.132350","-0.058384","724871","846957","954989","2.578615","0.767972","0.000000","6901","7380","7600","6347","6034","5899","5953","5473","5272","5730","4977","4669","5321","5218","5321",""
"MA200-0416","31634","92","1","1.10","1.4","2023-05-29T16:52:00","120","2023/05/29","16:52:00","-15.787333250045776","35.008458332158625","0.4","12","30","64","51","-18303","-4030","-18634","8","150","150.01","114.25","35.75","29.37","32.5","11.21","90464","29.06","DUALSPOT-UV-BLUE-GREEN-RED-IR","779270","708117","905095","7.817840","2.459316","0.009092","750799","891129","761596","5.948277","1.790327","0.000356","848536","898421","813994","4.975623","1.469874","-0.015509","846061","923868","866057","3.979893","1.157504","-0.031107","724893","847293","955563","2.635875","0.783443","0.000000","8627","9080","9287","8371","8384","8389","7837","7442","7276","7656","7058","6812","7001","6044","7001",""
"MA200-0416","31635","92","1","1.10","1.4","2023-05-29T16:52:30","120","2023/05/29","16:52:30","-15.787298619747162","35.00831783283502","0.6","12","30","64","51","-18196","-3957","-18546","8","150","149.09","114.88","34.21","29.41","32.5","11.22","90468","29.13","DUALSPOT-UV-BLUE-GREEN-RED-IR","775672","706015","903107","8.052716","2.536878","0.017038","752198","893936","764488","6.128554","1.846851","0.011479","846353","897053","813165","5.127454","1.516407","0.007755","844195","922629","865237","4.101247","1.194179","0.005005","723094","845724","954021","2.717912","0.808385","0.000000","12009","13317","13918","11633","12248","12514","10973","11293","11427","10598","10755","10820","9976","10185","9976",""
"MA200-0416","31636","92","1","1.10","1.4","2023-05-29T16:53:00","120","2023/05/29","16:53:00","-15.787260174751282","35.00789549946785","0.8","13","30","64","51","-18452","-5020","-18116","8","150","150.01","114.84","35.17","29.42","32.5","11.23","90464","29.13","DUALSPOT-UV-BLUE-GREEN-RED-IR","776752","708324","906993","8.328427","2.631532","0.018066","747926","890215","761870","6.344426","1.916410","0.010986","845935","897807","814348","5.309546","1.573687","0.007032","839317","918241","861559","4.245476","1.238811","0.003468","719648","842192","950330","2.811946","0.838228","0.000000","14101","15809","16598","13935","14663","14979","13164","13523","13674","12600","12733","12788","11438","11854","11438",""
"MA200-0416","31637","92","1","1.10","1.4","2023-05-29T16:53:30","120","2023/05/29","16:53:30","-15.78729099035263","35.00769083201885","0.6","13","30","64","51","-18352","-4704","-18260","8","150","149.53","114.34","35.19","29.44","32.5","11.25","90460","29.19","DUALSPOT-UV-BLUE-GREEN-RED-IR","774700","708448","908359","8.652979","2.734407","0.004838","746885","891061","763322","6.603449","1.994068","-0.005829","844081","897573","814808","5.524785","1.636999","-0.012157","837608","917842","861728","4.418622","1.287484","-0.031527","723184","847263","956468","2.926620","0.871807","0.000000","16672","17170","17401","16794","16360","16172","15629","14937","14645","15193","13876","13335","14010","13329","14010",""
"MA200-0416","31638","92","1","1.10","1.4","2023-05-29T16:54:00","120","2023/05/29","16:54:00","-15.787282645702362","35.00762333255261","0.7","13","30","64","51","-18256","-3704","-18412","8","150","149.55","114.77","34.78","29.46","32.5","11.25","90460","29.19","DUALSPOT-UV-BLUE-GREEN-RED-IR","769804","706404","907354","9.234106","2.931268","0.015962","742816","888765","762433","7.078273","2.146007","0.010519","840558","896091","814394","5.932235","1.763623","0.005933","834319","916130","860914","4.750335","1.389432","0.004171","716645","840759","949722","3.147813","0.941006","0.014068","29739","33248","34880","30669","32388","33136","29473","30228","30548","28996","29410","29582","26922","27796","28169",""
"MA200-0416","31639","92","1","1.10","1.4","2023-05-29T16:54:30","120","2023/05/29","16:54:30","-15.787327826023102","35.007355666253716","1.7","13","30","64","51","-18300","-3660","-18660","8","150","149.45","114.52","34.93","29.48","32.5","11.27","90456","29.19","DUALSPOT-UV-BLUE-GREEN-RED-IR","769590","707336","909312","9.528603","3.031889","0.015739","742807","889904","763863","7.308095","2.220304","0.010856","840789","897368","815961","6.129367","1.825690","0.007188","836645","919541","864424","4.909776","1.438200","0.000836","717861","842655","952147","3.254675","0.975592","0.024701","15104","16921","17769","14877","15769","16159","14291","14753","14950","13968","14008","14025","13035","13833","14174",""
"MA200-0416","31640","92","1","1.10","1.4","2023-05-29T16:55:00","120","2023/05/29","16:55:00","-15.787486493587494","35.00669216597453","3.1","14","30","64","51","-18430","-3965","-18315","8","150","149.57","114.96","34.61","29.50","32.5","11.29","90432","29.19","DUALSPOT-UV-BLUE-GREEN-RED-IR","764159","703238","904622","9.720840","3.098169","0.018077","742914","890934","765129","7.456763","2.267974","0.011472","840174","897479","816370","6.254900","1.865332","0.010421","835672","919114","864325","5.011194","1.468956","0.002043","717383","842491","952167","3.321859","0.994099","-0.041563","9822","11248","11916","9587","10211","10484","9066","9509","9698","8851","8915","8942","8164","7470","7173",""
"MA200-0416","31641","92","1","1.10","1.4","2023-05-29T16:55:30","120","2023/05/29","16:55:30","-15.787931144237518","35.0061899991706","3.9","13","30","64","51","-18668","-5564","-17740","8","150","149.39","114.64","34.75","29.52","32.5","11.31","90432","29.25","DUALSPOT-UV-BLUE-GREEN-RED-IR","760800","701387","903034","9.959398","3.177906","0.013164","740346","889156","764090","7.648391","2.328611","0.007772","837933","896193","815659","6.416291","1.914506","0.001154","833515","917681","863362","5.143224","1.508283","-0.004874","716203","841703","951546","3.410705","1.021614","0.008818","12222","13478","14066","12391","12936","13175","11688","11749","11775","11554","11355","11272","10826","11061","11162",""
"MA200-0416","31642","92","1","1.10","1.4","2023-05-29T16:56:00","120","2023/05/29","16:56:00","-15.788613498210907","35.00535599887371","5.0","14","30","64","51","-18324","-4540","-18480","8","150","149.70","114.16","35.54","29.54","32.5","11.33","90408","29.25","DUALSPOT-UV-BLUE-GREEN-RED-IR","761321","702978","905842","10.221933","3.266559","0.010842","740437","890443","765644","7.860215","2.394725","0.000488","838026","897312","817082","6.599081","1.969671","-0.006885","835818","921105","866929","5.291327","1.551652","-0.017305","716968","843160","953461","3.512331","1.052152","-0.014810","13507","14653","15191","13755","13792","13808","13293","12887","12715","13015","12243","11923","12435","12004","11820",""
"MA200-0416","31643","92","1","1.10","1.4","2023-05-29T16:56:30","120","2023/05/29","16:56:30","-15.787606477737427","35.00518299872056","4.9","15","30","64","51","-19168","-3796","-17600","8","150","150.49","114.57","35.92","29.57","32.4","11.33","0","0.00","DUALSPOT-UV-BLUE-GREEN-RED-IR","759079","702331","906003","10.539711","3.377058","0.013113","738956","890115","766018","8.114192","2.478296","0.008190","836087","896598","817032","6.820583","2.042102","0.008460","834145","920404","866728","5.472983","1.607841","-0.003561","716151","842896","953544","3.636413","1.090646","-0.004222","16291","18067","18904","16433","17246","17603","16051","16740","17034","15907","15692","15603","15129","14969","14900",""
"MA200-0416","31644","92","1","1.10","1.4","2023-05-29T16:57:00","120","2023/05/29","16:57:00","-15.78708529472351","35.00521599827334","4.9","14","30","64","51","-19792","-4680","-17160","8","150","149.63","114.60","35.03","29.59","32.4","11.33","0","0.00","DUALSPOT-UV-BLUE-GREEN-RED-IR","758165","702404","906690","10.730696","3.442682","0.014389","733530","884532","761591","8.263903","2.526456","0.008478","831370","892300","813427","6.947136","2.079278","-0.008502","827444","913675","860676","5.577726","1.639824","-0.000287","715980","843140","954054","3.708934","1.112776","-0.000691","9788","11002","11575","9684","10191","10414","9168","8810","8656","9169","9159","9155","8840","8824","8817",""
"MA200-0416","31645","92","1","1.10","1.4","2023-05-29T16:57:30","120","2023/05/29","16:57:30","-15.786571145057678","35.00532066542655","0.6","14","30","64","51","-19172","-3036","-17364","8","150","149.45","114.60","34.85","29.60","32.3","11.30","90336","29.31","DUALSPOT-UV-BLUE-GREEN-RED-IR","753874","701256","907192","11.224688","3.616745","0.016909","729914","883151","761676","8.666756","2.660406","0.013714","827708","890986","813368","7.288373","2.190852","0.013334","831815","920678","868268","5.852079","1.726811","0.009760","714426","842660","954211","3.895744","1.172980","0.020244","25318","29339","31250","26060","28496","29575","24721","26582","27382","24018","25044","25473","22771","24134","24721",""
"MA200-0416","31646","92","1","1.10","1.4","2023-05-29T16:58:00","120","2023/05/29","16:58:00","-15.785973012447357","35.005381998606026","5.4","14","30","64","51","-18684","-5304","-17444","8","150","149.40","114.38","35.02","29.62","32.2","11.28","90304","29.31","DUALSPOT-UV-BLUE-GREEN-RED-IR","750202","700778","908837","11.957678","3.885707","0.018992","726996","882852","762873","9.271773","2.868141","0.016114","828448","894622","817978","7.811165","2.365505","0.014785","821593","911807","860942","6.284896","1.866274","0.011018","712601","841994","954232","4.185855","1.265079","0.011956","37641","45107","48701","39213","43971","46101","37947","41402","42902","37965","39950","40789","35432","36735","37299",""
"MA200-0416","31647","92","1","1.10","1.4","2023-05-29T16:58:30","120","2023/05/29","16:58:30","-15.784722685813904","35.00561799900606","2.5","14","30","64","50","-19224","-3339","-16728","8","150","149.63","114.20","35.43","29.63","32.2","11.29","90244","29.31","DUALSPOT-UV-BLUE-GREEN-RED-IR","747323","699884","909071","12.408506","4.051777","0.017538","724319","881535","762636","9.645738","2.997535","0.014855","821928","889297","813951","8.134621","2.473795","0.012548","821017","912677","862454","6.549944","1.951128","0.006634","711969","842224","955004","4.363689","1.321804","0.008891","23187","27530","29636","24275","27074","28335","23514","25375","26188","23284","24027","24342","21753","22365","22631",""
"MA200-0416","31648","92","1","1.10","1.4","2023-05-29T16:59:00","120","2023/05/29","16:59:00","-15.784991145133972","35.00633116532117","4.0","14","30","64","51","-19332","-2452","-17896","8","150","149.90","114.28","35.62","29.64","32.2","11.28","90284","29.38","DUALSPOT-UV-BLUE-GREEN-RED-IR","745520","699037","908579","12.630665","4.132227","0.015362","723379","881313","762835","9.826351","3.058685","0.011338","820723","888818","813865","8.290976","2.525132","0.008623","819449","911632","861772","6.679435","1.992094","0.003160","711220","841770","954711","4.451397","1.349232","0.001111","11418","13267","14166","11716","12727","13185","11358","11967","12233","11368","11540","11613","10721","10758","10774",""
"MA200-0416","31649","92","1","1.10","1.4","2023-05-29T16:59:30","120","2023/05/29","16:59:30","-15.785650551319122","35.0076514990069","8.2","13","30","64","50","-19556","-1968","-17688","8","150","149.33","114.40","34.93","29.66","32.2","11.28","90352","29.31","DUALSPOT-UV-BLUE-GREEN-RED-IR","742083","696553","905809","12.793011","4.188928","0.013786","721240","879412","761508","9.952949","3.098596","0.004545","822460","891361","816436","8.400601","2.557927","-0.003546","816608","909050","859547","6.768651","2.018296","-0.008458","709113","839640","952463","4.512939","1.367268","-0.013516","8335","9535","10120","8203","8471","8592","7955","7795","7725","7824","7526","7400","7515","7213","7082",""
"MA200-0416","31650","92","1","1.10","1.4","2023-05-29T17:00:00","120","2023/05/29","17:00:00","-15.786227524280548","35.00947749707848","7.2","13","30","64","50","-19554","-3820","-16687","8","150","149.96","114.60","35.36","29.67","32.1","11.28","90360","29.31","DUALSPOT-UV-BLUE-GREEN-RED-IR","742380","697721","908003","12.981937","4.255457","0.013367","720750","879756","762226","10.106904","3.151489","0.013993","818512","887918","813681","8.534247","2.601057","0.007243","818160","911510","862198","6.878817","2.052122","-0.001045","710100","841299","954570","4.590809","1.391869","0.007191","9683","11049","11716","9959","11088","11599","9682","10125","10320","9644","9596","9575","9492","9718","9816",""
"MA200-0416","31651","92","1","1.10","1.4","2023-05-29T17:00:30","120","2023/05/29","17:00:30","-15.786855697631836","35.011069162748754","4.5","14","30","64","50","-19180","-4452","-16084","8","150","150.23","114.98","35.25","29.67","32.1","11.25","90356","29.31","DUALSPOT-UV-BLUE-GREEN-RED-IR","740991","697720","908932","13.259922","4.357404","0.017048","719648","879807","762872","10.334565","3.227932","0.011757","817006","887509","813803","8.729822","2.665120","0.010258","816444","910609","861818","7.040483","2.105265","0.013249","709316","841010","954599","4.700063","1.426271","0.007927","14200","16985","18348","14678","16074","16708","14121","15086","15510","14106","15123","15557","13273","13631","13787",""
"MA200-0416","31652","92","1","1.10","1.4","2023-05-29T17:01:00","120","2023/05/29","17:01:00","-15.787515699863434","35.012769998051226","8.2","14","30","64","49","-17964","-2424","-19260","8","150","149.76","114.56","35.20","29.68","32.1","11.26","90408","29.31","DUALSPOT-UV-BLUE-GREEN-RED-IR","736639","695369","907168","13.600849","4.479957","0.014851","716437","877728","761882","10.608339","3.321148","0.012803","813861","885704","812881","8.964122","2.742879","0.011526","812556","907624","859599","7.232722","2.166837","0.007864","706895","838966","952754","4.832369","1.469930","0.019846","17479","20446","21904","17716","19629","20500","16980","18337","18936","16835","17546","17851","16133","17324","17844",""
"MA200-0416","31653","92","1","1.10","1.4","2023-05-29T17:01:30","120","2023/05/29","17:01:30","-15.788048505783081","35.01337666623294","5.6","14","30","64","50","-18828","-5996","-19268","8","150","150.03","114.72","35.31","29.68","32.1","11.28","90440","29.31","DUALSPOT-UV-BLUE-GREEN-RED-IR","735117","695527","908522","14.024208","4.629005","0.012601","715396","878071","762896","10.940664","3.430469","0.008319","812232","885357","813203","9.248415","2.833056","0.004557","812836","909215","861606","7.467682","2.238362","-0.002137","706621","839491","953745","4.995804","1.519458","-0.004545","21676","24793","26328","21475","22951","23625","20574","21202","21480","20548","20322","20225","19901","19594","19460",""
"MA200-0416","31654","92","1","1.10","1.4","2023-05-29T17:02:00","120","2023/05/29","17:02:00","-15.787385523319244","35.01184749789536","3.0","14","30","64","50","-18320","-4556","-18464","8","150","149.99","114.57","35.41","29.70","32.1","11.29","90380","29.31","DUALSPOT-UV-BLUE-GREEN-RED-IR","731350","694243","908499","14.473364","4.790394","0.013504","711726","875910","762050","11.299195","3.551090","0.010116","809998","884956","813756","9.555792","2.933632","0.008165","810709","908612","861814","7.721308","2.319019","0.005138","705466","839237","954068","5.170625","1.573211","-0.001458","23026","26768","28619","23198","25251","26192","22273","23579","24158","22209","22851","23126","21315","21204","21156",""
"MA200-0416","31655","92","1","1.10","1.4","2023-05-29T17:02:30","120","2023/05/29","17:02:30","-15.787373781204224","35.01151449792087","1.0","14","30","64","50","-17588","-4220","-19172","8","150","149.45","114.40","35.05","29.70","32.1","11.27","90372","29.31","DUALSPOT-UV-BLUE-GREEN-RED-IR","727162","692685","908290","15.028366","4.989982","0.013745","709404","875572","762838","11.730026","3.693956","0.009159","811116","888438","817928","9.923531","3.053122","0.008119","808013","907463","861557","8.023594","2.414077","0.004552","703781","838426","953736","5.378746","1.638030","0.004349","28495","33450","35913","27918","30220","31279","26687","28307","29026","26510","27212","27515","25413","25837","26022",""
"MA200-0416","31656","92","1","1.10","1.4","2023-05-29T17:03:00","120","2023/05/29","17:03:00","-15.787387132644653","35.01131516415626","1.8","13","30","64","49","-17676","-4328","-18916","8","150","149.33","114.28","35.05","29.70","32.0","11.24","90376","29.31","DUALSPOT-UV-BLUE-GREEN-RED-IR","724570","691969","908689","15.461756","5.146841","0.013757","707204","874609","762793","12.057841","3.804767","0.010783","808587","887240","817514","10.206653","3.144418","0.006791","806098","906623","861360","8.256372","2.486610","0.002727","702570","837862","953518","5.539810","1.684507","-0.016725","22274","26289","28292","21265","23440","24443","20568","21628","22100","20435","20764","20906","19688","18526","18018",""
"MA200-0416","31657","92","1","1.10","1.4","2023-05-29T17:03:30","120","2023/05/29","17:03:30","-15.787436306476593","35.010963996872306","1.2","13","30","64","49","-18200","-3868","-18992","8","150","150.03","114.16","35.87","29.71","32.0","11.25","90384","29.31","DUALSPOT-UV-BLUE-GREEN-RED-IR","721575","690661","908072","15.809864","5.272890","0.011779","705124","873600","762559","12.323365","3.891456","0.004393","803158","882592","813821","10.431334","3.215509","0.000973","805572","907196","862372","8.439304","2.542108","-0.006130","702258","838193","954269","5.662737","1.723230","0.000668","17910","20641","22008","17242","17917","18229","16339","16455","16507","16076","15523","15285","15042","15081","15099",""
"MA200-0416","31658","92","1","1.10","1.4","2023-05-29T17:04:00","120","2023/05/29","17:04:00","-15.787456631660461","35.01073483005166","0.9","13","30","64","49","-17652","-2860","-19196","8","150","149.37","114.50","34.87","29.72","32.0","11.26","90392","29.38","DUALSPOT-UV-BLUE-GREEN-RED-IR","718666","689333","907432","16.143408","5.394769","0.014309","702817","872229","762033","12.584867","3.978723","0.009775","804763","885719","817272","10.656326","3.286385","0.004460","801765","904104","859913","8.625611","2.598661","-0.000525","700399","836762","953014","5.792932","1.763011","0.000849","17109","20531","22249","16930","18554","19305","16313","16876","17127","16324","16272","16250","15884","15938","15962",""
"MA200-0416","31659","92","1","1.10","1.4","2023-05-29T17:04:30","120","2023/05/29","17:04:30","-15.787494957447052","35.01043449807912","1.4","14","30","64","49","-17624","-3864","-18908","8","150","149.50","114.06","35.44","29.73","32.0","11.27","90404","29.38","DUALSPOT-UV-BLUE-GREEN-RED-IR","717818","689984","909411","16.469448","5.516687","0.014221","702247","873001","763330","12.832130","4.062217","0.008773","799790","881519","813952","10.867138","3.356909","0.009182","803382","907003","863145","8.799000","2.653831","0.003775","700781","837909","954642","5.909826","1.797976","-0.009609","16790","20205","21925","16071","17464","18110","15345","16520","17046","15251","15617","15775","14316","13781","13547",""
"MA200-0416","31660","92","1","1.10","1.4","2023-05-29T17:05:00","120","2023/05/29","17:05:00","-15.787560522556305","35.01002449821681","1.2","13","30","64","49","-17692","-3923","-19184","8","150","149.59","114.42","35.17","29.74","32.0","11.28","90424","29.44","DUALSPOT-UV-BLUE-GREEN-RED-IR","709401","683374","901891","16.822044","5.648493","0.014591","700820","872739","763810","13.098043","4.153520","0.011166","798875","881836","814850","11.092848","3.429812","0.006169","802861","907566","864174","8.983890","2.711337","0.001854","700392","838187","955340","6.036596","1.837138","0.001172","18100","22011","23988","17228","19244","20180","16377","17208","17580","16212","16403","16486","15477","15554","15587",""
"MA200-0416","31661","92","1","1.10","1.4","2023-05-29T17:05:30","120","2023/05/29","17:05:30","-15.78754734992981","35.00987699814141","1.3","13","30","72","49","-17484","-2992","-19408","8","150","150.24","114.19","36.05","29.75","32.0","11.27","90428","29.44","DUALSPOT-UV-BLUE-GREEN-RED-IR","612056","590791","780672","17.148450","5.770834","0.012843","698623","871441","763308","13.346270","4.238035","0.007739","796860","880841","814529","11.303559","3.498411","0.003843","799601","904947","862161","9.157748","2.766525","0.000873","698712","836837","954121","6.154846","1.873502","-0.006251","16789","19935","21531","16114","17381","17970","15319","15800","16015","15274","15360","15397","14465","14093","13929",""
"MA200-0416","31662","92","1","1.10","1.4","2023-05-29T17:06:00","120","2023/05/29","17:06:00","-15.787537395954132","35.00963349826634","0.1","14","30","64","49","-18356","-2988","-17756","8","150","150.36","114.65","35.72","29.76","32.0","11.28","0","0.00","DUALSPOT-UV-BLUE-GREEN-RED-IR","704993","682011","902463","17.515764","5.910774","0.014376","698290","872573","765029","13.620879","4.332466","0.009703","795660","880923","815192","11.536777","3.574931","0.006208","800636","907293","864897","9.346790","2.825057","-0.000943","699208","838155","956014","6.283340","1.913469","-0.000357","18817","23013","25150","17756","19600","20460","16888","17787","18191","16542","16441","16398","15656","15632","15621",""
"MA200-0416","31663","92","1","1.10","1.4","2023-05-29T17:06:30","120","2023/05/29","17:06:30","-15.787548303604126","35.009623165242374","0.1","13","30","64","49","-18212","-3104","-18832","8","150","149.43","114.50","34.93","29.77","32.0","11.29","0","0.00","DUALSPOT-UV-BLUE-GREEN-RED-IR","703559","681940","903413","17.832806","6.030864","0.014992","697159","872517","765579","13.860907","4.413988","0.010275","794434","880744","815532","11.739423","3.640276","0.006488","800253","907875","865883","9.513403","2.876454","0.001642","694571","833236","950769","6.398102","1.948919","0.002749","16263","20191","22198","15541","17300","18121","14694","15529","15905","14599","14761","14831","14001","14176","14252",""
"MA200-0416","31664","92","1","1.10","1.4","2023-05-29T17:07:00","120","2023/05/29","17:07:00","-15.787523031234741","35.009630830958486","0.2","13","30","64","49","-18244","-3120","-18824","8","150","149.83","114.44","35.39","29.78","31.9","11.28","90436","29.50","DUALSPOT-UV-BLUE-GREEN-RED-IR","702056","681713","904042","18.109156","6.134794","0.013602","695759","871948","765641","14.071766","4.486616","0.010172","793479","880749","816016","11.918199","3.697294","0.003644","799789","908294","866667","9.660634","2.920895","-0.003678","694082","833285","951083","6.501772","1.980098","-0.006323","14183","17248","18819","13659","15213","15941","12969","13375","13558","12907","12598","12464","12654","12307","12155",""
"MA200-0416","31665","92","1","1.10","1.4","2023-05-29T17:07:30","120","2023/05/29","17:07:30","-15.787526726722717","35.00963049847633","0.1","13","30","64","49","-18416","-3128","-18468","8","150","150.09","114.08","36.01","29.80","31.9","11.30","90444","29.50","DUALSPOT-UV-BLUE-GREEN-RED-IR","700989","681733","904952","18.372588","6.235779","0.013335","691012","867120","761907","14.269641","4.551889","0.004341","792534","880701","816427","12.089081","3.753543","0.004828","798734","907959","866690","9.802458","2.964335","-0.004539","693696","833366","951467","6.598537","2.008359","-0.018262","13563","16470","17964","12858","13436","13707","12435","12967","13206","12472","12101","11941","11849","10962","10574",""
"MA200-0416","31666","92","1","1.10","1.4","2023-05-29T17:08:00","120","2023/05/29","17:08:00","-15.787545323371887","35.00948949716985","0.6","13","30","64","49","-18124","-3971","-18656","8","150","149.73","114.75","34.98","29.81","31.9","11.29","90448","29.56","DUALSPOT-UV-BLUE-GREEN-RED-IR","701074","682773","907150","18.604154","6.325151","0.015449","690578","867537","762743","14.445054","4.614414","0.013798","788030","876543","812968","12.237852","3.803259","0.010025","792648","901775","861138","9.925173","3.002935","0.004416","693595","833741","952109","6.684122","2.034414","-0.000266","11852","15008","16633","11332","13251","14153","10763","11800","12268","10728","11071","11220","10418","10405","10400",""
"MA200-0416","31667","92","1","1.10","1.4","2023-05-29T17:08:30","120","2023/05/29","17:08:30","-15.787526547908783","35.00931566487998","1.0","13","30","64","49","-17896","-3787","-19080","8","150","149.90","114.28","35.62","29.83","31.9","11.29","90456","29.56","DUALSPOT-UV-BLUE-GREEN-RED-IR","699381","682102","907076","18.840468","6.417997","0.015039","689613","867322","763027","14.618994","4.674835","0.009863","790491","880169","816744","12.387509","3.852331","0.005679","791988","901798","861503","10.046316","3.041738","0.003813","692900","833364","951960","6.768549","2.061861","0.008631","12145","15311","16947","11283","12576","13184","10872","11439","11695","10635","10930","11058","10320","10765","10960",""
"MA200-0416","31668","92","1","1.10","1.4","2023-05-29T17:09:00","120","2023/05/29","17:09:00","-15.787405669689178","35.00877866521478","2.5","13","30","64","49","-17664","-4068","-18348","8","150","150.30","114.19","36.11","29.85","31.9","11.30","90476","29.56","DUALSPOT-UV-BLUE-GREEN-RED-IR","697060","681128","906942","19.159124","6.544740","0.014688","687818","866495","763006","14.877772","4.769380","0.012512","785399","875757","813268","12.610114","3.930133","0.010521","791804","902690","862903","10.233358","3.104698","0.008283","692770","833973","953053","6.900804","2.104765","0.005206","16390","20616","22809","16799","19410","20642","16184","17888","18660","16433","17493","17955","16179","16598","16782",""
"MA200-0416","31669","92","1","1.10","1.4","2023-05-29T17:09:30","120","2023/05/29","17:09:30","-15.787256479263306","35.00806616526097","1.4","14","30","64","49","-17903","-4092","-18534","8","150","149.76","114.80","34.97","29.87","31.9","11.32","90484","29.56","DUALSPOT-UV-BLUE-GREEN-RED-IR","696043","681092","907644","19.382596","6.627699","0.012873","687230","866817","763704","15.055527","4.828048","0.007279","783718","874791","812800","12.766115","3.980481","0.006242","790270","901773","862332","10.363056","3.144383","0.000628","691614","833159","952386","6.993871","2.131343","-0.014094","11433","13935","15235","11478","12438","12891","11282","11954","12259","11334","11386","11409","11325","10618","10309",""
"MA200-0416","31670","92","1","1.10","1.4","2023-05-29T17:10:00","120","2023/05/29","17:10:00","-15.787264823913574","35.00778383249417","1.2","14","30","64","49","-18126","-4684","-18115","8","150","150.09","114.48","35.61","29.88","31.9","11.34","90484","29.63","DUALSPOT-UV-BLUE-GREEN-RED-IR","694631","680829","908168","19.631206","6.718023","0.010355","685571","865936","763492","15.260442","4.897220","0.007293","782827","874933","813383","12.945066","4.037189","0.002033","790009","902468","863419","10.512587","3.189087","-0.005647","691336","833454","952993","7.098930","2.161448","-0.018035","12755","14896","16009","13269","14398","14931","12977","13219","13328","13104","12592","12370","12820","11808","11365",""
"MA200-0416","31671","92","1","1.10","1.4","2023-05-29T17:10:30","120","2023/05/29","17:10:30","-15.787271499633789","35.007638165261596","0.0","13","30","64","49","-17888","-2916","-19604","8","150","150.23","115.12","35.11","29.88","31.8","11.32","90476","29.63","DUALSPOT-UV-BLUE-GREEN-RED-IR","693936","680920","908940","19.831040","6.797977","0.016226","685141","866255","764172","15.423325","4.954197","0.011533","782180","874975","813786","13.088445","4.085964","0.010971","789162","902160","863405","10.630311","3.226471","0.005248","691032","833515","953324","7.182861","2.188127","0.007961","10196","13375","15033","10489","12029","12758","10340","11533","12074","10260","10682","10866","10185","10614","10802",""
"MA200-0416","31672","92","1","1.10","1.4","2023-05-29T17:11:00","120","2023/05/29","17:11:00","-15.78734415769577","35.00728449923918","4.7","13","30","64","49","-18752","-5032","-17612","8","150","149.54","114.00","35.54","29.89","31.8","11.33","90468","29.63","DUALSPOT-UV-BLUE-GREEN-RED-IR","691297","679730","908404","20.107520","6.895067","0.008021","682921","865010","763770","15.652442","5.028988","0.004141","780282","874277","813753","13.285280","4.147058","-0.000489","788283","902432","864177","10.794178","3.275841","-0.004700","690200","833327","953484","7.295456","2.220308","-0.018636","14244","16044","16984","14898","15599","15931","14334","14271","14242","14421","13936","13724","13797","12648","12145",""
"MA200-0416","31673","92","1","1.10","1.4","2023-05-29T17:11:30","120","2023/05/29","17:11:30","-15.787595510482788","35.00653383228928","4.5","13","30","64","49","-18208","-3944","-18748","8","150","149.39","114.28","35.11","29.90","31.8","11.33","0","0.00","DUALSPOT-UV-BLUE-GREEN-RED-IR","687303","678327","908388","20.703408","7.106943","0.009343","679902","864038","764096","16.164520","5.193592","0.003960","776561","872712","813378","13.736814","4.286324","0.000426","785012","900956","863702","11.173502","3.386116","-0.007459","688367","832582","953286","7.550750","2.291988","-0.018652","30626","35449","37970","33218","34760","35489","32803","32936","32996","33301","31515","30739","31206","28523","27354",""
"MA200-0416","31674","92","1","1.10","1.4","2023-05-29T17:12:00","120","2023/05/29","17:12:00","-15.788128554821014","35.00597533257678","2.2","13","30","64","48","-18833","-5500","-17600","8","150","150.16","114.00","36.16","29.91","31.8","11.34","0","0.00","DUALSPOT-UV-BLUE-GREEN-RED-IR","684345","677110","908148","21.099828","7.259334","0.011577","677449","862853","763989","16.493574","5.311096","0.009494","774333","871935","813468","14.025836","4.384136","0.006331","782908","900023","863502","11.411795","3.463405","0.002756","687013","831900","953008","7.717182","2.345242","0.001625","20424","24754","27025","21397","24091","25370","21048","22458","23099","20970","21445","21651","20394","20574","20653",""
"MA200-0416","31675","92","1","1.10","1.4","2023-05-29T17:12:30","120","2023/05/29","17:12:30","-15.788617074489594","35.005180332344025","3.5","14","30","64","49","-19236","-4160","-17492","8","150","150.09","114.56","35.54","29.91","31.8","11.34","90416","29.63","DUALSPOT-UV-BLUE-GREEN-RED-IR","674037","673524","909120","22.457072","7.784836","0.012259","667771","858094","763666","17.675504","5.737245","0.010964","765195","868480","813769","15.066508","4.748487","0.010499","775363","897494","864111","12.294271","3.761530","0.009253","682224","830147","953320","8.345909","2.553212","0.010457","69587","86859","96023","76484","88902","94869","75419","85125","89591","77284","84169","87205","76668","81756","83998",""
"MA200-0416","31676","92","1","1.10","1.4","2023-05-29T17:13:00","120","2023/05/29","17:13:00","-15.787640511989594","35.005101665854454","5.1","13","30","64","48","-18500","-4100","-17032","8","150","149.90","114.20","35.69","29.91","31.8","11.34","0","0.00","DUALSPOT-UV-BLUE-GREEN-RED-IR","662896","667312","905442","23.894116","8.375482","0.013668","659085","852558","761875","18.883616","6.197090","0.012964","760463","868382","816508","16.124311","5.133569","0.012069","766399","891747","860997","13.178061","4.069340","0.010767","676991","826806","951269","8.947887","2.754413","0.010175","73910","97190","109755","78423","95502","103845","76901","89566","95481","77642","86516","90480","73636","78741","81012",""
"MA200-0416","31677","92","1","1.10","1.4","2023-05-29T17:13:30","120","2023/05/29","17:13:30","-15.787242531776428","35.004705999512225","2.5","13","30","64","48","-18064","-232","-18888","8","150","149.66","114.09","35.57","29.90","31.8","11.30","0","0.00","DUALSPOT-UV-BLUE-GREEN-RED-IR","660763","666822","906425","24.432016","8.599930","0.014035","657321","852251","762684","19.356378","6.379701","0.013566","754165","862961","812440","16.550100","5.291539","0.013181","765068","891822","861976","13.545472","4.200351","0.012714","676022","826747","951898","9.213257","2.845731","0.014145","27693","37057","42144","30720","38054","41659","30985","36866","39631","32310","36948","39032","32493","35859","37363",""
"MA200-0416","31678","92","1","1.10","1.4","2023-05-29T17:14:00","120","2023/05/29","17:14:00","-15.787207663059235","35.00430249935016","2.4","15","30","64","48","-17988","336","-19948","8","150","149.84","114.29","35.55","29.89","31.7","11.27","90428","29.50","DUALSPOT-UV-BLUE-GREEN-RED-IR","658026","665876","906861","24.887176","8.788826","0.013689","654634","850932","762745","19.764066","6.536730","0.013285","755336","866391","816802","16.920502","5.429136","0.013147","767521","896614","867586","13.867234","4.313993","0.011851","674104","825693","951389","9.444935","2.924441","0.012478","23390","31208","35477","26443","32744","35858","26905","32133","34603","28244","32070","33798","28316","30928","32099",""
"MA200-0416","31679","92","1","1.10","1.4","2023-05-29T17:14:30","120","2023/05/29","17:14:30","-15.787024855613708","35.00314666656777","10.3","15","30","64","48","-18248","-5012","-17784","8","150","149.73","114.09","35.64","29.89","31.7","11.25","90444","29.50","DUALSPOT-UV-BLUE-GREEN-RED-IR","652934","662344","903618","25.313442","8.967482","0.013665","650129","846966","760303","20.146776","6.685985","0.013447","751921","864278","815860","17.269054","5.559778","0.013173","757871","886964","859170","14.167794","4.422456","0.012983","671735","823938","950105","9.665436","3.000740","0.013958","21945","29440","33551","24868","31042","34109","25365","30429","32834","26431","30529","32389","26999","29903","31210",""
"MA200-0416","31680","92","1","1.10","1.4","2023-05-29T17:15:00","120","2023/05/29","17:15:00","-15.786753237247467","35.00120449985843","0.8","15","30","64","48","-18296","-4476","-18272","8","150","149.45","113.80","35.64","29.87","31.7","11.23","90428","29.44","DUALSPOT-UV-BLUE-GREEN-RED-IR","650974","662530","906097","25.885578","9.209465","0.013611","647988","846912","761821","20.667816","6.891973","0.013663","748580","862988","816149","17.740036","5.740267","0.014004","761115","893164","866502","14.579407","4.573482","0.013715","670013","823517","950665","9.969975","3.107222","0.014509","29528","39877","45591","33941","42843","47297","34359","42042","45717","36287","42511","45356","37382","41734","43704",""
"MA200-0416","31681","92","1","1.10","1.4","2023-05-29T17:15:30","120","2023/05/29","17:15:30","-15.786566972732544","34.999986350536346","14.0","16","30","64","48","-18720","-3744","-17760","8","150","149.83","113.80","36.03","29.85","31.7","11.20","90464","29.44","DUALSPOT-UV-BLUE-GREEN-RED-IR","646448","659456","903553","26.279228","9.381632","0.014171","648013","848826","764713","21.022076","7.034343","0.013713","745075","860739","815104","18.060154","5.864024","0.013662","757913","890996","865366","14.856279","4.677719","0.014569","672111","827244","955696","10.171761","3.179954","0.016495","20317","28069","32373","23076","29296","32423","23353","28519","31003","24408","29028","31150","24769","28202","29763",""
"MA200-0416","31682","92","1","1.10","1.4","2023-05-29T17:16:00","120","2023/05/29","17:16:00","-15.786201894283295","34.99730783700943","2.4","16","30","64","48","-17995","-3733","-18616","8","150","149.90","113.80","36.09","29.83","31.7","11.20","90404","29.38","DUALSPOT-UV-BLUE-GREEN-RED-IR","644830","660868","908673","26.823654","9.614164","0.013079","641615","844261","762952","21.530402","7.238443","0.013287","738020","856168","812922","18.518910","6.041818","0.013383","749803","884824","861240","15.253192","4.823231","0.012176","666920","823201","952581","10.468304","3.285061","0.013975","28098","37841","43284","33113","41921","46382","33467","40897","44495","34991","40448","42972","36401","40681","42638",""
"MA200-0416","31683","92","1","1.10","1.4","2023-05-29T17:16:30","120","2023/05/29","17:16:30","-15.7871675491333","34.99776703119278","5.1","17","30","64","48","-18452","-5188","-18732","8","150","150.20","114.06","36.14","29.80","31.6","11.13","90444","29.31","DUALSPOT-UV-BLUE-GREEN-RED-IR","639615","658747","909425","27.925938","10.109699","0.014192","636442","841505","763179","22.560492","7.674301","0.014939","732799","854064","813554","19.478294","6.433903","0.015508","744891","882744","861661","16.105490","5.158931","0.016358","663722","821962","953030","11.113449","3.526798","0.018989","56762","80536","94026","66950","89407","100984","69832","90072","100056","74968","93193","101783","79014","93441","100148",""
"MA200-0416","31684","92","1","1.10","1.4","2023-05-29T17:17:00","120","2023/05/29","17:17:00","-15.787891924381256","34.99858194589615","9.9","17","30","64","48","-17720","-4400","-18692","8","150","149.83","113.84","35.99","29.77","31.6","11.12","90488","29.31","DUALSPOT-UV-BLUE-GREEN-RED-IR","636911","656827","907803","28.288834","10.270893","0.013744","634118","839466","762011","22.886606","7.809074","0.013900","734590","857177","817179","19.779358","6.553334","0.013955","743014","881464","860964","16.374058","5.261028","0.014040","662632","821325","952746","11.313412","3.599491","0.015941","18723","26309","30633","21236","27763","31143","21955","27552","30326","23668","28463","30733","24537","28218","29935",""
"MA200-0416","31685","92","1","1.10","1.4","2023-05-29T17:17:30","120","2023/05/29","17:17:30","-15.789786696434021","34.99824732542038","7.2","17","30","64","48","-18932","-4580","-18584","8","150","149.70","114.24","35.46","29.74","31.6","11.09","90508","29.25","DUALSPOT-UV-BLUE-GREEN-RED-IR","635004","655440","906489","28.439140","10.339111","0.014795","633195","838890","761836","23.008350","7.859142","0.014365","733125","856026","816423","19.886262","6.596290","0.015387","746029","885579","865314","16.466732","5.296528","0.015587","661379","820109","951567","11.379780","3.623057","0.015333","7727","11300","13341","7900","10468","11800","7769","10058","11194","8138","10045","10949","8115","9284","9830",""
"MA200-0416","31686","92","1","1.10","1.4","2023-05-29T17:18:00","120","2023/05/29","17:18:00","-15.790728330612183","34.99745088815689","8.8","17","30","64","48","-18564","-4616","-17688","8","150","149.70","114.28","35.42","29.72","31.7","11.09","90640","29.13","DUALSPOT-UV-BLUE-GREEN-RED-IR","632719","653401","904031","28.547024","10.388340","0.014928","634910","841547","764501","23.096608","7.893491","0.012119","732347","855489","816140","19.967018","6.626564","0.011961","745266","884995","864914","16.537729","5.321800","0.010867","660901","819771","951281","11.433800","3.639169","-0.005103","5544","8164","9662","5725","7190","7950","5866","7096","7707","6232","7159","7598","6603","6355","6239",""
"MA200-0416","31687","92","1","1.10","1.4","2023-05-29T17:18:30","120","2023/05/29","17:18:30","-15.79337191581726","34.99749553203583","9.8","17","30","64","48","-18552","-6675","-16628","8","150","149.90","114.32","35.58","29.67","31.8","11.11","90716","29.13","DUALSPOT-UV-BLUE-GREEN-RED-IR","635429","656734","909257","28.662560","10.438915","0.013610","633176","839807","763268","23.186854","7.928856","0.012187","730128","853421","814459","20.049222","6.657475","0.011859","741976","881584","861811","16.607670","5.346805","0.010837","662951","822614","954829","11.483730","3.657182","0.016496","5936","8350","9732","5852","7369","8157","5969","7213","7832","6137","7051","7485","6101","7073","7527",""
"MA200-0416","31688","92","1","1.10","1.4","2023-05-29T17:19:00","120","2023/05/29","17:19:00","-15.795419812202454","34.997507214546204","2.2","17","30","64","48","-20452","-4600","-16128","8","150","149.90","114.24","35.66","29.63","31.8","11.09","90588","29.06","DUALSPOT-UV-BLUE-GREEN-RED-IR","632221","654362","907034","28.923432","10.557690","0.014502","630737","837565","761837","23.385390","8.010715","0.014032","727755","851529","813204","20.220104","6.724798","0.013953","744903","885859","866503","16.752399","5.401725","0.014421","661415","821292","953604","11.585060","3.692827","0.013570","13412","19566","23103","12883","17020","19175","12418","15676","17299","12710","15453","16758","12390","13965","14702",""
"MA200-0416","31689","92","1","1.10","1.4","2023-05-29T17:19:30","120","2023/05/29","17:19:30","-15.795535206794739","34.99985444545746","10.7","17","30","64","47","-20076","-3020","-20252","8","150","149.45","114.12","35.32","29.59","31.8","11.05","90692","29.00","DUALSPOT-UV-BLUE-GREEN-RED-IR","627946","650844","903131","29.188656","10.674118","0.013613","630971","838870","763695","23.602718","8.100797","0.014426","728786","853658","815848","20.409702","6.801033","0.015170","740382","881317","862573","16.914398","5.463958","0.015526","658991","818842","951140","11.701168","3.734832","0.016980","13650","19359","22650","14117","18904","21406","13793","17917","19978","14241","17675","19313","14212","16611","17736",""
"MA200-0416","31690","92","1","1.10","1.4","2023-05-29T17:20:00","120","2023/05/29","17:20:00","-15.794924080371857","35.00209016655572","0.1","17","30","64","47","-18128","-5140","-17596","8","150","150.28","114.50","35.78","29.54","31.9","11.05","90496","28.94","DUALSPOT-UV-BLUE-GREEN-RED-IR","626042","649643","902426","29.415508","10.780079","0.014907","629346","837562","763081","23.782760","8.177585","0.015025","727895","853388","816104","20.570950","6.866878","0.015327","739602","881092","862822","17.049406","5.517656","0.016857","658733","819015","951678","11.796261","3.769452","0.016545","11636","17393","20724","11656","15909","18137","11691","15278","17075","11829","15056","16600","11601","13515","14414",""
"MA200-0416","31691","92","1","1.10","1.4","2023-05-29T17:20:30","120","2023/05/29","17:20:30","-15.794939637184143","35.00246849958785","1.9","17","30","64","47","-18244","-5540","-17884","8","150","150.03","113.60","36.42","29.50","31.8","10.99","90484","28.88","DUALSPOT-UV-BLUE-GREEN-RED-IR","628349","652482","906921","29.548890","10.841557","0.013831","627252","835306","761339","23.893390","8.224882","0.014107","725748","851327","814466","20.668190","6.908809","0.016513","742934","885495","867387","17.134124","5.551463","0.015510","657267","817468","950066","11.855675","3.792073","0.018228","6896","9913","11662","7219","9626","10889","7106","9557","10788","7481","9312","10189","7305","8675","9320",""
"MA200-0416","31692","92","1","1.10","1.4","2023-05-29T17:21:00","120","2023/05/29","17:21:00","-15.795917809009552","35.002317999489605","2.9","17","30","64","47","-24316","-8296","-3655","8","150","150.35","114.17","36.18","29.46","31.8","10.95","90448","28.81","DUALSPOT-UV-BLUE-GREEN-RED-IR","624673","649214","903006","29.694370","10.907604","0.013673","624682","832506","759222","24.015394","8.276577","0.014139","726566","852920","816335","20.777350","6.951689","0.012736","738359","880599","862938","17.227436","5.588597","0.015935","658660","819552","952777","11.919430","3.817792","0.024030","7484","10721","12600","7922","10591","11994","7938","9838","10794","8199","10296","11302","7800","9929","10932",""
"MA200-0416","31693","92","1","1.10","1.4","2023-05-29T17:21:30","120","2023/05/29","17:21:30","-15.796073496341705","35.00280433264561","0.2","17","30","64","47","-24060","-8248","-3739","8","150","149.90","114.48","35.42","29.41","31.8","10.90","90452","28.75","DUALSPOT-UV-BLUE-GREEN-RED-IR","623722","649035","903642","29.880340","10.994114","0.014841","627492","837038","763974","24.169384","8.347751","0.017795","725871","852808","816797","20.910668","7.013517","0.020510","737387","879957","862831","17.340386","5.641365","0.024829","658324","819589","953091","12.000389","3.846509","0.014784","9541","14347","17144","9971","14898","17497","9668","14493","16928","9898","14948","17382","9879","11326","12009",""
"MA200-0416","31694","92","1","1.10","1.4","2023-05-29T17:22:00","120","2023/05/29","17:22:00","-15.795936167240143","35.002833999926224","2.9","16","30","64","47","-12556","-22920","3228","8","150","150.36","114.28","36.08","29.36","31.9","10.90","90456","28.69","DUALSPOT-UV-BLUE-GREEN-RED-IR","625070","651277","907699","30.145744","11.105000","0.011233","625078","834740","762462","24.374482","8.430351","0.012164","724084","851492","816043","21.083322","7.083058","0.013919","734739","877515","860847","17.476780","5.695266","0.015559","656800","818149","951729","12.095802","3.880793","0.013978","13640","18052","20625","13304","16972","18911","12543","16002","17752","11974","14988","16446","11663","13274","14036",""
"MA200-0416","31695","92","1","1.10","1.4","2023-05-29T17:22:30","120","2023/05/29","17:22:30","-15.795639872550964","35.00276583293453","0.1","16","30","64","47","-12608","-23020","2948","8","150","150.49","114.48","36.01","29.32","31.9","10.87","90452","28.63","DUALSPOT-UV-BLUE-GREEN-RED-IR","620332","647136","902752","30.355324","11.197105","0.012722","625303","835946","764110","24.551248","8.502169","0.012563","721067","848753","813966","21.239850","7.144165","0.012543","736968","880969","864681","17.614660","5.745852","0.011238","654696","816069","949687","12.195042","3.918005","0.018082","10752","15022","17518","11446","14784","16552","11351","14087","15474","12083","14093","15066","12109","14434","15535",""
"MA200-0416","31696","92","1","1.10","1.4","2023-05-29T17:23:00","120","2023/05/29","17:23:00","-15.795624494552612","35.00274766632356","0.1","16","30","64","47","-12012","-22924","3612","8","150","150.41","114.26","36.15","29.29","31.9","10.85","90456","28.63","DUALSPOT-UV-BLUE-GREEN-RED-IR","621060","648566","905562","30.552574","11.287376","0.013571","625246","836644","765281","24.718422","8.573366","0.014017","720952","849358","815021","21.389294","7.206506","0.015175","737591","882384","866527","17.743222","5.798244","0.016895","655292","817252","951382","12.287807","3.953591","0.019423","10139","14668","17322","10846","14602","16596","10858","14318","16077","11288","14542","16121","11341","13753","14897",""
"MA200-0416","31697","92","1","1.10","1.4","2023-05-29T17:23:30","120","2023/05/29","17:23:30","-15.79565715789795","35.00276766647585","0.1","16","30","64","46","-12157","-22653","2776","8","150","153.40","113.13","40.27","29.24","32.0","10.87","90456","28.63","DUALSPOT-UV-BLUE-GREEN-RED-IR","618385","646495","903509","30.755096","11.381092","0.010485","623461","835063","764418","24.889092","8.645994","0.009256","719229","848073","814305","21.542022","7.269960","0.009348","734436","879275","863939","17.874476","5.852473","0.010781","653665","815694","949905","12.381344","3.989112","0.007237","10515","13667","15519","11184","13368","14531","11208","13081","14035","11640","13509","14418","11550","12320","12687",""
