"Serial number","Datum ID","Session ID","Data format version","Firmware version","App version","Date / time local","Timezone offset (mins)","Date local (yyyy/MM/dd)","Time local (hh:mm:ss)","GPS lat (ddmm.mmmmm)","GPS long (dddmm.mmmmm)","GPS speed (km/h)","GPS sat count","Timebase (s)","Status","Battery remaining (%)","Accel X","Accel Y","Accel Z","Tape position","Flow setpoint (mL/min)","Flow total (mL/min)","Flow1 (mL/min)","Flow2 (mL/min)","Sample temp (C)","Sample RH (%)","Sample dewpoint (C)","Internal pressure (Pa)","Internal temp (C)","Optical config","UV Sen1","UV Sen2","UV Ref","UV ATN1","UV ATN2","UV K","Blue Sen1","Blue Sen2","Blue Ref","Blue ATN1","Blue ATN2","Blue K","Green Sen1","Green Sen2","Green Ref","Green ATN1","Green ATN2","Green K","Red Sen1","Red Sen2","Red Ref","Red ATN1","Red ATN2","Red K","IR Sen1","IR Sen2","IR Ref","IR ATN1","IR ATN2","IR K","UV BC1","UV BC2","UV BCc","Blue BC1","Blue BC2","Blue BCc","Green BC1","Green BC2","Green BCc","Red BC1","Red BC2","Red BCc","IR BC1","IR BC2","IR BCc","Readable status"
"MA200-0416","27493","81","1","1.10","1.4","2023-05-24T13:47:00","120","2023/05/24","13:47:00","-15.794189870357513","35.08374231308699","0.3","16","30","66","67","-6743","-2780","22272","8","150","147.11","112.53","34.59","30.87","42.6","16.68","88572","30.06","DUALSPOT-UV-BLUE-GREEN-RED-IR","892052","765514","944288","0.000000","0.000000","0.000000","811373","917749","764549","0.000000","0.000000","0.000000","905289","919766","815378","0.000000","0.000000","0.000000","891312","939852","866956","0.000000","0.000000","0.000000","755953","868155","956284","0.000000","0.000000","0.000000","","","","","","","","","","","","","","","","Start up"
"MA200-0416","27494","81","1","1.10","1.4","2023-05-24T13:47:31","120","2023/05/24","13:47:31","-15.79406362771988","35.0837494879961","0.4","16","30","66","67","-6770","-2883","22154","8","150","149.94","114.59","35.35","30.92","41.9","16.48","88580","30.31","DUALSPOT-UV-BLUE-GREEN-RED-IR","856323","735349","907332","0.000000","0.000000","0.000000","809215","915673","762988","0.000000","0.000000","0.000000","903408","918159","814121","0.000000","0.000000","0.000000","883599","931985","859861","0.000000","0.000000","0.000000","754013","866137","954201","0.000000","0.000000","0.000000","","","","","","","","","","","","","","","","Start up"
"MA200-0416","27495","81","1","1.10","1.4","2023-05-24T13:48:01","120","2023/05/24","13:48:01","-15.794024467468262","35.08366499096155","0.4","16","30","66","68","-6868","-2972","22132","8","150","149.96","114.80","35.16","30.94","41.4","16.31","88580","30.44","DUALSPOT-UV-BLUE-GREEN-RED-IR","852677","732605","904128","0.000000","0.000000","0.000000","807120","913593","761369","0.000000","0.000000","0.000000","905679","920700","816482","0.000000","0.000000","0.000000","888013","936814","864416","0.000000","0.000000","0.000000","751831","863812","951694","0.000000","0.000000","0.000000","","","","","","","","","","","","","","","","Start up"
"MA200-0416","27496","81","1","1.10","1.4","2023-05-24T13:48:30","120","2023/05/24","13:48:30","-15.793883919715881","35.0835689753294","0.2","16","30","66","67","-7096","-3220","22928","8","150","149.94","115.38","34.56","30.97","41.0","16.19","88588","30.50","DUALSPOT-UV-BLUE-GREEN-RED-IR","853985","734135","906186","0.000000","0.000000","0.000000","808713","915648","763202","0.000000","0.000000","0.000000","906087","921336","817133","0.000000","0.000000","0.000000","888872","937900","865516","0.000000","0.000000","0.000000","752200","864365","952359","0.000000","0.000000","0.000000","","","","","","","","","","","","","","","","Start up"
"MA200-0416","27497","81","1","1.10","1.4","2023-05-24T13:49:01","120","2023/05/24","13:49:01","-15.794111609458923","35.083336152136326","62041.0","16","30","66","67","-6843","-2880","22144","8","150","150.56","115.04","35.52","31.00","40.8","16.12","88592","30.56","DUALSPOT-UV-BLUE-GREEN-RED-IR","853266","733926","906100","0.000000","0.000000","0.000000","807724","914860","762643","0.000000","0.000000","0.000000","901765","917192","813544","0.000000","0.000000","0.000000","883644","932583","860626","0.000000","0.000000","0.000000","753035","865437","953595","0.000000","0.000000","0.000000","","","","","","","","","","","","","","","","Start up"
"MA200-0416","27498","81","1","1.10","1.4","2023-05-24T13:49:30","120","2023/05/24","13:49:30","-15.796019494533539","35.08525548130274","11.3","16","30","64","67","-6847","-2928","22020","8","150","149.43","114.95","34.48","31.02","40.5","16.05","88588","30.63","DUALSPOT-UV-BLUE-GREEN-RED-IR","855316","736193","909107","0.000000","0.000000","0.000000","809836","917581","764991","0.000000","0.000000","0.000000","902819","918495","814774","0.000000","0.000000","0.000000","885784","935020","862946","0.000000","0.000000","0.000000","754189","866924","955259","0.000000","0.000000","0.000000","","","","","","","","","","","","","","","",""
"MA200-0416","27499","81","1","1.10","1.4","2023-05-24T13:50:01","120","2023/05/24","13:50:01","-15.795898616313934","35.08539315313101","1.0","16","30","64","67","-6756","-2920","21848","8","150","150.03","115.47","34.55","31.06","40.4","16.01","88588","30.69","DUALSPOT-UV-BLUE-GREEN-RED-IR","855689","736956","910289","0.085815","0.022716","0.000000","809730","917831","765301","0.052147","0.013965","0.000000","903146","919131","815423","0.039690","0.010698","0.000000","886335","935784","863747","0.029075","0.007546","0.000000","754502","867400","955839","0.019191","0.004625","0.000000","4365","3861","4365","3347","2996","3347","2853","2570","2853","2526","2191","2526","2321","1869","2321",""
"MA200-0416","27500","81","1","1.10","1.4","2023-05-24T13:50:30","120","2023/05/24","13:50:30","-15.794644951820374","35.08422414213419","4.4","16","30","64","67","-6772","-2932","21944","8","150","149.53","115.92","33.61","31.08","40.2","15.97","88588","30.69","DUALSPOT-UV-BLUE-GREEN-RED-IR","849113","731717","904026","0.169802","0.045598","0.000000","806011","913900","762136","0.101738","0.027544","0.000000","903091","919320","815652","0.078839","0.020933","0.000000","886929","936622","864541","0.057572","0.014424","0.000000","750094","862420","950392","0.039415","0.009551","0.000000","4255","3999","4255","3171","2995","3171","2803","2528","2803","2466","2053","2466","2437","2047","2437",""
"MA200-0416","27501","81","1","1.10","1.4","2023-05-24T13:51:00","120","2023/05/24","13:51:00","-15.792236089706421","35.081304647028446","7.1","16","30","64","67","-6736","-2876","22196","8","150","150.23","115.47","34.75","31.11","40.1","15.96","88592","30.75","DUALSPOT-UV-BLUE-GREEN-RED-IR","847062","730470","902624","0.253503","0.065702","0.000000","804480","912526","761067","0.150578","0.040168","0.000000","902588","919062","815521","0.115674","0.030016","0.000000","886172","936020","864058","0.085151","0.021583","0.000000","749387","861731","949691","0.056859","0.014543","0.000000","4257","3397","4257","3135","2693","3135","2648","2170","2648","2396","2066","2396","2110","2006","2110",""
"MA200-0416","27502","81","1","1.10","1.4","2023-05-24T13:51:31","120","2023/05/24","13:51:31","-15.791306555271149","35.082838982343674","5.6","16","30","64","67","-6996","-3000","22120","8","150","149.90","115.59","34.30","31.13","40.0","15.94","88588","30.81","DUALSPOT-UV-BLUE-GREEN-RED-IR","847322","731202","903768","0.351003","0.091615","0.000000","804858","913339","761842","0.204849","0.054121","0.000000","902535","919303","815805","0.156516","0.039196","0.000000","886986","937096","865130","0.114917","0.027830","0.000000","749963","862528","950593","0.075323","0.018037","0.000000","4954","4437","4954","3480","3015","3480","2933","2221","2933","2583","1826","2583","2231","1422","2231",""
"MA200-0416","27503","81","1","1.10","1.4","2023-05-24T13:52:00","120","2023/05/24","13:52:00","-15.792139887809753","35.08318431675434","3.5","16","30","64","67","-6804","-2844","22168","8","150","149.98","115.39","34.59","31.16","40.0","15.95","88588","30.81","DUALSPOT-UV-BLUE-GREEN-RED-IR","849629","733615","906987","0.437820","0.113559","0.000000","806952","916034","764219","0.253868","0.065988","0.000000","899609","916544","813451","0.192356","0.048863","0.000000","881939","931926","860403","0.141638","0.034172","0.000000","751748","864670","952997","0.092021","0.023043","0.000000","4419","3726","4419","3149","2543","3149","2578","2320","2578","2323","1839","2323","2021","2021","2021",""
"MA200-0416","27504","81","1","1.10","1.4","2023-05-24T13:52:31","120","2023/05/24","13:52:31","0","0","0.0","16","30","64","67","-6792","-2712","21708","8","150","149.89","115.13","34.75","31.20","39.9","15.96","88592","30.88","DUALSPOT-UV-BLUE-GREEN-RED-IR","849735","734139","907787","0.509560","0.132232","0.000000","806320","915617","763947","0.297468","0.076759","0.000000","900035","917227","814111","0.226724","0.057363","0.000000","882634","932859","861317","0.166016","0.040031","0.000000","752023","865108","953516","0.109008","0.027406","0.000000","3659","3155","3659","2807","2297","2807","2478","2030","2478","2124","1691","2124","2061","1753","2061",""
"MA200-0416","27505","81","1","1.10","1.4","2023-05-24T13:53:01","120","2023/05/24","13:53:01","0","0","0.0","16","30","64","67","-6911","-2960","21872","8","150","149.37","115.11","34.27","31.22","39.8","15.95","88588","30.88","DUALSPOT-UV-BLUE-GREEN-RED-IR","849776","734568","908499","0.585684","0.152278","0.000000","806644","916288","764577","0.341349","0.089073","0.000000","900308","917727","814604","0.261152","0.066304","0.000000","883436","933878","862316","0.191837","0.045878","0.000000","752380","865639","954144","0.126436","0.031426","0.000000","3884","3436","3884","2826","2663","2826","2483","2166","2483","2250","1711","2250","2115","1638","2115",""
"MA200-0416","27506","81","1","1.10","1.4","2023-05-24T13:53:31","120","2023/05/24","13:53:31","0","0","0.0","16","30","64","67","-6836","-2824","22112","8","150","149.57","115.12","34.45","31.25","39.8","15.95","88588","30.94","DUALSPOT-UV-BLUE-GREEN-RED-IR","850282","735372","909662","0.653257","0.170871","0.000000","807783","917868","765997","0.383830","0.100940","0.000000","900233","917887","814842","0.293410","0.074130","0.000000","883163","933778","862258","0.216764","0.051332","0.000000","752340","865673","954264","0.144184","0.036261","0.000000","3447","3170","3447","2735","2553","2735","2326","1886","2326","2172","1588","2172","2153","1960","2153",""
"MA200-0416","27507","81","1","1.10","1.4","2023-05-24T13:54:00","120","2023/05/24","13:54:00","0","0","0.0","15","30","64","66","-6911","-2968","21668","8","150","150.20","115.11","35.09","31.27","39.7","15.93","88588","30.94","DUALSPOT-UV-BLUE-GREEN-RED-IR","848694","734433","908686","0.735947","0.192623","0.000000","806520","916793","765162","0.431483","0.111722","0.000000","899023","916900","814044","0.330335","0.082242","0.000000","882015","932776","861393","0.244098","0.058318","0.000000","751324","864633","953125","0.161243","0.040532","0.000000","4219","3640","4219","3068","2277","3068","2663","1919","2663","2382","1997","2382","2070","1700","2070",""
"MA200-0416","27508","81","1","1.10","1.4","2023-05-24T13:54:31","120","2023/05/24","13:54:31","0","0","0.0","15","30","64","67","-6868","-2840","21832","8","150","149.96","115.00","34.97","31.30","39.6","15.95","88588","31.00","DUALSPOT-UV-BLUE-GREEN-RED-IR","842649","729802","903194","0.841622","0.219249","0.000000","802769","912944","762098","0.492990","0.126993","0.000000","900693","918939","815955","0.377726","0.094997","0.000000","885446","936640","865006","0.275355","0.065607","0.000000","753372","867153","955950","0.182825","0.045578","0.000000","5397","4472","5397","3965","3237","3965","3421","3028","3421","2726","2091","2726","2621","2016","2621",""
"MA200-0416","27509","81","1","1.10","1.4","2023-05-24T13:55:01","120","2023/05/24","13:55:01","0","0","0.0","15","30","64","66","-6672","-3180","22116","8","150","150.43","115.71","34.71","31.34","39.5","15.93","88580","31.00","DUALSPOT-UV-BLUE-GREEN-RED-IR","843025","730502","904244","0.911697","0.238561","0.000000","802959","913422","762577","0.537145","0.139486","0.000000","900925","919383","816389","0.411016","0.102483","0.000000","886125","937559","865899","0.301933","0.070941","0.000000","749089","862319","950643","0.200008","0.050639","0.000000","3557","3267","3557","2828","2668","2828","2388","1790","2388","2304","1541","2304","2074","2036","2074",""
"MA200-0416","27510","81","1","1.10","1.4","2023-05-24T13:55:31","120","2023/05/24","13:55:31","0","0","0.0","15","30","64","66","-6679","-3229","22075","8","150","150.35","115.88","34.48","31.36","39.5","15.93","88580","31.06","DUALSPOT-UV-BLUE-GREEN-RED-IR","841534","729650","903406","0.997492","0.261894","0.000000","802393","913120","762435","0.586217","0.152021","0.000000","900218","918953","816092","0.449180","0.112115","0.000000","884192","935680","864243","0.328880","0.076997","0.000000","752417","866262","955076","0.218782","0.055594","0.000000","4348","3975","4348","3139","2695","3139","2734","2319","2734","2333","1762","2333","2263","2007","2263",""
"MA200-0416","27511","81","1","1.10","1.4","2023-05-24T13:56:01","120","2023/05/24","13:56:01","-15.7941073179245","35.0837534815073","0.4","15","30","64","66","-23592","-7747","-3939","8","150","149.85","115.31","34.54","31.38","39.4","15.90","88572","31.06","DUALSPOT-UV-BLUE-GREEN-RED-IR","845112","733127","907841","1.063782","0.278469","0.000000","804212","915514","764464","0.627630","0.160856","0.000000","896426","915341","812892","0.479620","0.118272","0.000000","879663","931092","860016","0.351649","0.081313","0.000000","749635","863169","951703","0.234098","0.058169","0.000000","3376","2818","3376","2662","1896","2662","2191","1479","2191","1980","1253","1980","1855","1041","1855",""
"MA200-0416","27512","81","1","1.10","1.4","2023-05-24T13:56:30","120","2023/05/24","13:56:30","-15.794120192527771","35.08369681984186","0.3","15","30","64","67","-21992","540","9628","8","150","149.80","115.18","34.61","31.42","39.3","15.93","88572","31.13","DUALSPOT-UV-BLUE-GREEN-RED-IR","845464","733804","908911","1.136305","0.297693","0.000000","805834","917641","766367","0.673061","0.171667","0.000000","901536","920804","817864","0.517356","0.125366","0.000000","879405","930978","860002","0.379115","0.086886","0.000000","749613","863238","951837","0.252908","0.065897","0.000000","3698","3262","3698","2924","2315","2924","2720","1701","2720","2392","1615","2392","2281","3119","2281",""
"MA200-0416","27513","81","1","1.10","1.4","2023-05-24T13:57:01","120","2023/05/24","13:57:01","-15.794161021709442","35.0837113186717","0.2","15","30","64","66","-20980","6384","9372","8","150","149.82","115.35","34.47","31.45","39.3","15.95","88564","31.13","DUALSPOT-UV-BLUE-GREEN-RED-IR","845166","734239","909654","1.235467","0.320299","0.000000","800638","912213","761959","0.734114","0.185365","0.000000","896207","915714","813400","0.561482","0.135975","0.000000","879913","931800","860778","0.412100","0.093377","0.000000","749683","863494","952180","0.275466","0.072259","0.000000","5049","3851","5049","3923","2945","3923","3175","2555","3175","2868","1889","2868","2731","2578","2731",""
"MA200-0416","27514","81","1","1.10","1.4","2023-05-24T13:57:30","120","2023/05/24","13:57:30","-15.79417622089386","35.08374298363924","0.4","15","30","64","66","-21400","6100","9029","8","150","149.95","115.86","34.08","31.49","39.2","15.95","88572","31.19","DUALSPOT-UV-BLUE-GREEN-RED-IR","843079","732898","908185","1.346062","0.347740","0.000000","799378","911149","761175","0.800126","0.201673","0.000000","899792","919714","817041","0.611066","0.147581","0.000000","878566","930583","859729","0.444811","0.100315","0.000000","748672","862439","951081","0.299980","0.078661","0.000000","5606","4728","5606","4223","3546","4223","3553","2826","3553","2832","2042","2832","2955","2623","2955",""
"MA200-0416","27515","81","1","1.10","1.4","2023-05-24T13:58:00","120","2023/05/24","13:58:00","-15.794229209423065","35.08369215577841","0.1","15","30","64","66","-23704","-7820","2328","8","150","149.53","115.05","34.47","31.51","39.2","15.96","88564","31.19","DUALSPOT-UV-BLUE-GREEN-RED-IR","836891","727892","902154","1.413767","0.364034","0.000000","800597","912871","762674","0.842338","0.209909","0.000000","897028","917095","814779","0.644857","0.152808","0.000000","881810","934225","863125","0.470954","0.103951","0.000000","750457","864634","953561","0.316003","0.083394","0.000000","3456","2776","3456","2719","1771","2719","2438","1258","2438","2279","1058","2279","1945","1917","1945",""
"MA200-0416","27516","81","1","1.10","1.4","2023-05-24T13:58:30","120","2023/05/24","13:58:30","-15.79416972398758","35.083674654364586","0.2","14","30","64","66","-23372","-10576","-1124","8","150","149.70","115.28","34.43","31.53","39.2","15.99","88556","31.19","DUALSPOT-UV-BLUE-GREEN-RED-IR","836868","728379","902976","1.503287","0.388267","0.000000","799988","912550","762501","0.896680","0.224763","0.000000","897023","917401","815133","0.686854","0.164037","0.000000","882220","934893","863832","0.501221","0.111240","0.000000","750548","864889","953884","0.338058","0.088167","0.000000","4561","4134","4561","3494","3198","3494","3024","2708","3024","2634","2124","2634","2672","1936","2672",""
"MA200-0416","27517","81","1","1.10","1.4","2023-05-24T13:59:01","120","2023/05/24","13:59:01","-15.794175565242767","35.08368416130543","0.0","13","30","64","66","-23700","-9216","-4116","8","150","149.96","115.35","34.61","31.56","39.3","16.04","88560","31.25","DUALSPOT-UV-BLUE-GREEN-RED-IR","835571","727677","902300","1.587970","0.410154","0.000000","798691","911393","761638","0.948220","0.235784","0.000000","896385","917021","814868","0.726229","0.172507","0.000000","880475","933266","862334","0.530779","0.117528","0.000000","750008","864374","953337","0.357860","0.093425","0.000000","4311","3714","4311","3312","2360","3312","2833","2031","2833","2570","1823","2570","2398","2122","2398",""
"MA200-0416","27518","81","1","1.10","1.4","2023-05-24T13:59:30","120","2023/05/24","13:59:30","-15.794165313243866","35.08370731770992","0.0","13","30","64","66","-23320","-9948","-4856","8","150","149.73","115.29","34.44","31.59","39.4","16.12","88560","31.31","DUALSPOT-UV-BLUE-GREEN-RED-IR","837150","729488","904720","1.664624","0.431056","0.000000","800731","914087","763969","0.994503","0.248022","0.000000","897134","918047","815841","0.762200","0.179338","0.000000","883240","936387","865271","0.555884","0.121891","0.000000","746583","860523","949155","0.375635","0.096305","0.000000","3905","3565","3905","2975","2634","2975","2590","1646","2590","2184","1271","2184","2153","1168","2153",""
"MA200-0416","27519","81","1","1.10","1.4","2023-05-24T14:00:00","120","2023/05/24","14:00:00","-15.794158577919006","35.08370332419872","0.0","13","30","64","66","-23660","-9728","-1911","8","150","149.99","115.45","34.54","31.61","39.6","16.21","88560","31.38","DUALSPOT-UV-BLUE-GREEN-RED-IR","838308","730972","906769","1.753517","0.454389","0.000000","796629","909732","760438","1.045483","0.260288","0.000000","897192","918378","816219","0.799703","0.188767","0.000000","884016","937442","866299","0.585341","0.127834","0.000000","751570","866404","955697","0.394351","0.101906","0.000000","4522","3968","4522","3273","2632","3273","2697","2266","2697","2559","1726","2559","2264","2265","2264",""
"MA200-0416","27520","81","1","1.10","1.4","2023-05-24T14:00:30","120","2023/05/24","14:00:30","-15.794163823127747","35.08369715511799","0.0","13","30","64","66","-23108","-10984","-3160","8","150","150.16","115.95","34.21","31.66","39.8","16.31","88564","31.38","DUALSPOT-UV-BLUE-GREEN-RED-IR","838809","731899","908129","1.841845","0.476663","0.000000","797655","911272","761815","1.097279","0.271993","0.000000","893212","914592","812919","0.840461","0.197887","0.000000","884345","938029","866878","0.614267","0.132978","0.000000","752012","867072","956444","0.415592","0.106679","0.000000","4474","3824","4474","3311","2536","3311","2918","2213","2918","2502","1508","2502","2558","1949","2558",""
"MA200-0416","27521","81","1","1.10","1.4","2023-05-24T14:01:01","120","2023/05/24","14:01:01","-15.794157683849335","35.08369482308626","0.0","13","30","64","66","-23087","-10766","-3812","8","150","150.16","115.75","34.41","31.68","40.0","16.42","88560","31.44","DUALSPOT-UV-BLUE-GREEN-RED-IR","838990","732512","909129","1.931208","0.500698","0.000000","797827","911865","762367","1.149719","0.283962","0.000000","894205","915904","814158","0.881624","0.206267","0.000000","878465","931956","861326","0.643616","0.139261","0.000000","748219","862823","951806","0.435012","0.110847","0.000000","4534","4102","4534","3358","2578","3358","2952","2021","2952","2543","1831","2543","2343","1691","2343",""
"MA200-0416","27522","81","1","1.10","1.4","2023-05-24T14:01:30","120","2023/05/24","14:01:30","-15.794168591499329","35.083688490092754","0.0","13","30","64","66","-23060","-10820","-3984","8","150","150.11","115.87","34.25","31.72","40.2","16.55","88560","31.44","DUALSPOT-UV-BLUE-GREEN-RED-IR","832349","727258","902815","2.028342","0.524671","0.000000","799040","913632","763969","1.209497","0.297189","0.000000","893621","915645","813979","0.925540","0.214445","0.000000","878838","932625","861986","0.674855","0.144816","0.000000","747821","862515","951519","0.457397","0.115674","0.000000","4923","4111","4923","3824","2863","3824","3146","1982","3146","2704","1627","2704","2698","1969","2698",""
"MA200-0416","27523","81","1","1.10","1.4","2023-05-24T14:02:01","120","2023/05/24","14:02:01","-15.794162154197693","35.08369382470846","0.0","13","30","64","65","-23440","-10184","-2688","8","150","150.05","115.45","34.60","31.75","40.2","16.58","88560","31.50","DUALSPOT-UV-BLUE-GREEN-RED-IR","831232","726658","902225","2.099485","0.543819","0.000000","797540","912255","762905","1.255047","0.309927","0.000000","893608","915855","814257","0.961864","0.224518","0.000000","878656","932601","862037","0.701993","0.150925","0.000000","748010","862837","951940","0.474658","0.120304","0.000000","3619","3250","3619","2924","2729","2924","2612","2417","2612","2358","1771","2358","2088","1868","2088",""
"MA200-0416","27524","81","1","1.10","1.4","2023-05-24T14:02:30","120","2023/05/24","14:02:30","-15.794152200222015","35.08369915187359","0.1","14","30","64","66","-22460","-12524","-648","8","150","150.03","115.79","34.24","31.80","40.4","16.67","88556","31.56","DUALSPOT-UV-BLUE-GREEN-RED-IR","833797","729420","905895","2.194787","0.567653","0.000000","800353","915855","766034","1.313901","0.323219","0.000000","894610","917178","815531","1.006133","0.234103","0.000000","881421","935758","864987","0.731545","0.157005","0.000000","749329","864525","953835","0.498132","0.126275","0.000000","4834","4088","4834","3767","2878","3767","3174","2324","3174","2560","1781","2560","2831","2436","2831",""
"MA200-0416","27525","81","1","1.10","1.4","2023-05-24T14:03:00","120","2023/05/24","14:03:00","-15.79414027929306","35.083701983094215","0.5","14","30","64","66","-22692","-11340","-3048","8","150","150.16","115.59","34.57","31.84","40.5","16.76","88560","31.63","DUALSPOT-UV-BLUE-GREEN-RED-IR","835316","731111","908136","2.265272","0.586216","0.000000","796625","911911","762783","1.357925","0.334459","0.000000","894776","917611","815964","1.039159","0.240570","0.000000","883152","937822","866939","0.756710","0.161141","0.000000","749891","865277","954684","0.515989","0.130259","0.000000","3581","3154","3581","2823","2410","2823","2372","1553","2372","2184","1200","2184","2157","1610","2157",""
"MA200-0416","27526","81","1","1.10","1.4","2023-05-24T14:03:31","120","2023/05/24","14:03:31","-15.79414439201355","35.083691984415054","0.1","14","30","64","65","-23000","-10964","-3832","8","150","149.90","115.71","34.18","31.87","40.6","16.85","88560","31.69","DUALSPOT-UV-BLUE-GREEN-RED-IR","833917","730239","907205","2.330244","0.603870","0.000000","795638","911049","762187","1.400643","0.344026","0.000000","894898","917994","816331","1.073372","0.248366","0.000000","874363","928652","858503","0.783175","0.166941","0.000000","749483","864928","954379","0.536043","0.135784","0.000000","3297","3033","3297","2736","2074","2736","2454","1893","2454","2294","1702","2294","2421","2257","2421",""
"MA200-0416","27527","81","1","1.10","1.4","2023-05-24T14:04:00","120","2023/05/24","14:04:00","-15.794160187244415","35.083696492016315","0.0","14","30","64","65","-23324","-10364","-3060","8","150","149.80","115.37","34.42","31.93","40.8","16.95","88560","31.75","DUALSPOT-UV-BLUE-GREEN-RED-IR","830100","727284","903756","2.403366","0.624309","0.000000","798432","914607","765242","1.447701","0.355279","0.000000","892570","915852","814537","1.111204","0.256806","0.000000","878106","932865","862458","0.811481","0.171792","0.000000","747083","862282","951521","0.556097","0.140506","0.000000","3722","3487","3722","3023","2423","3023","2722","2035","2722","2461","1414","2461","2428","1916","2428",""
"MA200-0416","27528","81","1","1.10","1.4","2023-05-24T14:04:30","120","2023/05/24","14:04:30","-15.794162392616272","35.08369432389736","0.0","14","30","64","65","-23648","-9572","-3400","8","150","150.14","115.50","34.64","31.97","40.8","16.99","88564","31.81","DUALSPOT-UV-BLUE-GREEN-RED-IR","830825","728345","905255","2.482244","0.645626","0.000000","794349","910277","761731","1.500218","0.368928","0.000000","892812","916450","815105","1.152920","0.265216","0.000000","879755","934851","864364","0.845378","0.180298","0.000000","747693","863175","952537","0.582805","0.147649","0.000000","4011","3614","4011","3370","2920","3370","2998","2015","2998","2944","2463","2944","3230","2880","3230",""
"MA200-0416","27529","81","1","1.10","1.4","2023-05-24T14:05:01","120","2023/05/24","14:05:01","-15.79416674375534","35.08369515836239","0.1","14","30","64","65","-23396","-9600","-5104","8","150","149.94","115.25","34.68","32.01","40.9","17.06","88568","31.88","DUALSPOT-UV-BLUE-GREEN-RED-IR","829132","728493","906046","2.767468","0.711565","0.000000","793032","910058","761855","1.681077","0.411481","0.000000","891751","916360","815324","1.294899","0.298791","0.000000","880414","936351","865980","0.950503","0.202919","0.000000","747379","863370","952935","0.663549","0.165461","0.000000","14535","11166","14535","11633","9094","11633","10227","8036","10227","9151","6543","9151","9786","7173","9786",""
"MA200-0416","27530","81","1","1.10","1.4","2023-05-24T14:05:30","120","2023/05/24","14:05:30","-15.794169545173645","35.08369382470846","0.0","14","30","64","66","-22936","-11188","-4176","8","150","149.70","115.91","33.79","32.05","40.9","17.10","88568","31.94","DUALSPOT-UV-BLUE-GREEN-RED-IR","829466","729230","907149","2.855301","0.735065","0.000000","793477","910946","762694","1.739663","0.426311","0.000000","892718","917673","816558","1.339721","0.309001","0.000000","881012","937222","866811","0.986009","0.209558","0.000000","747922","864166","953880","0.690319","0.171463","0.000000","4450","4085","4450","3746","3253","3746","3210","2508","3210","3073","1971","3073","3226","2481","3226",""
"MA200-0416","27531","81","1","1.10","1.4","2023-05-24T14:06:00","120","2023/05/24","14:06:00","-15.794171214103699","35.0834933295846","1.0","14","30","64","65","-23176","-11496","-2804","8","150","150.05","115.90","34.14","32.11","40.9","17.17","88588","31.94","DUALSPOT-UV-BLUE-GREEN-RED-IR","829786","729897","908185","2.933025","0.756750","0.000000","794328","912263","763886","1.789301","0.436670","0.000000","891528","916748","815813","1.382357","0.317889","0.000000","873234","929217","859454","1.020008","0.216597","0.000000","747353","863673","953371","0.714088","0.178133","0.000000","3938","3730","3938","3174","2249","3174","3054","2160","3054","2942","2068","2942","2864","2729","2864",""
"MA200-0416","27532","81","1","1.10","1.4","2023-05-24T14:06:30","120","2023/05/24","14:06:30","-15.794207513332367","35.08323363959789","0.8","14","30","64","65","-22684","-11080","-3748","8","150","149.70","115.51","34.18","32.15","41.0","17.22","88624","32.00","DUALSPOT-UV-BLUE-GREEN-RED-IR","828641","729272","907609","3.006602","0.775335","-0.081766","793015","911100","763006","1.839435","0.448680","0.000000","890618","916074","815253","1.421720","0.326281","0.000000","871718","927830","858228","1.050454","0.221413","0.000000","746288","862608","952206","0.736061","0.181252","0.000000","3741","3193","3002","3217","2604","3217","2829","2038","2829","2644","1413","2644","2657","1274","2657",""
"MA200-0416","27533","81","1","1.10","1.4","2023-05-24T14:07:00","120","2023/05/24","14:07:00","-15.79426234960556","35.082967810332775","0.6","14","30","64","65","-23836","-10100","-2904","8","150","149.76","116.23","33.53","32.19","40.9","17.22","88652","32.06","DUALSPOT-UV-BLUE-GREEN-RED-IR","823850","725512","903109","3.090281","0.797739","-0.034806","794894","913623","765202","1.892108","0.462074","0.000000","888030","913694","813214","1.463020","0.335329","0.000000","876100","932724","862797","1.080685","0.226737","0.000000","748711","865557","955579","0.761493","0.187530","0.000000","4228","3924","3818","3359","2960","3359","2950","2239","2950","2609","1592","2609","3056","2615","3056",""
"MA200-0416","27534","81","1","1.10","1.4","2023-05-24T14:07:30","120","2023/05/24","14:07:30","-15.794272005558014","35.08291930705309","0.1","14","30","64","65","-23460","-10016","-2516","8","150","150.09","115.83","34.26","32.25","40.8","17.25","88652","32.13","DUALSPOT-UV-BLUE-GREEN-RED-IR","825596","727436","905643","3.160001","0.816288","-0.049645","792049","910670","762841","1.936930","0.472503","0.000000","888933","914878","814344","1.498341","0.343155","0.000000","877214","934088","864117","1.106941","0.232213","0.000000","749190","866243","956362","0.781351","0.192702","0.000000","3535","3179","3055","2868","2256","2868","2531","1896","2531","2274","1603","2274","2394","2108","2394",""
"MA200-0416","27535","81","1","1.10","1.4","2023-05-24T14:08:01","120","2023/05/24","14:08:01","-15.794280290603638","35.082908637821674","0.0","14","30","64","65","-23396","-10216","-2488","8","150","149.83","116.03","33.80","32.28","41.0","17.34","88648","32.19","DUALSPOT-UV-BLUE-GREEN-RED-IR","824915","727205","905557","3.233355","0.836059","-0.034653","790993","909782","762169","1.982432","0.481807","0.000000","888507","914745","814273","1.534813","0.349145","0.000000","877775","934958","864918","1.134836","0.234979","0.000000","744784","861272","950905","0.800539","0.196348","0.000000","3713","3435","3339","2907","2040","2907","2609","1471","2609","2411","820","2411","2310","1506","2310",""
"MA200-0416","27536","81","1","1.10","1.4","2023-05-24T14:08:30","120","2023/05/24","14:08:30","-15.794302225112915","35.08270847797394","0.8","14","30","64","65","-23060","-10388","-1588","8","150","149.70","115.59","34.10","32.34","41.0","17.40","88668","32.25","DUALSPOT-UV-BLUE-GREEN-RED-IR","829323","731509","911108","3.311555","0.857067","-0.041467","788900","907740","760516","2.032345","0.494825","0.000000","890509","917050","816396","1.572448","0.356876","0.000000","874008","931123","861450","1.164531","0.241667","0.000000","746803","863756","953701","0.821622","0.201547","0.000000","3973","3617","3493","3201","2829","3201","2703","1881","2703","2577","1967","2577","2548","2129","2548",""
"MA200-0416","27537","81","1","1.10","1.4","2023-05-24T14:09:00","120","2023/05/24","14:09:00","-15.794205844402313","35.08252430707216","0.9","14","30","64","65","-22032","-10584","-3252","8","150","150.01","116.43","33.57","32.40","40.9","17.42","88692","32.31","DUALSPOT-UV-BLUE-GREEN-RED-IR","823572","726865","905537","3.390156","0.878770","-0.017910","790365","909742","762311","2.082795","0.507843","0.000000","887363","914083","813849","1.611971","0.366550","0.000000","876251","933766","863943","1.195162","0.247210","0.000000","747799","865072","955205","0.845386","0.207193","0.000000","3965","3796","3738","3212","2874","3212","2818","2392","2818","2639","1656","2639","2851","2349","2851",""
"MA200-0416","27538","81","1","1.10","1.4","2023-05-24T14:09:30","120","2023/05/24","14:09:30","-15.79397451877594","35.08251581341028","1.1","14","30","64","65","-23788","-11644","-2276","8","150","149.94","115.63","34.31","32.45","40.8","17.44","88708","32.38","DUALSPOT-UV-BLUE-GREEN-RED-IR","822724","726550","905326","3.470211","0.901496","-0.017900","789869","909513","762221","2.132863","0.520467","0.000000","886819","913813","813647","1.652128","0.374614","0.000000","876199","933925","864137","1.225483","0.252414","0.000000","743197","859870","949518","0.868089","0.212880","0.000000","4066","3890","3828","3210","2727","3210","2883","1951","2883","2630","1521","2630","2742","2315","2742",""
"MA200-0416","27539","81","1","1.10","1.4","2023-05-24T14:10:00","120","2023/05/24","14:10:00","-15.793732762336731","35.0824843198061","0.7","14","30","64","65","-23988","-9132","232","8","150","150.24","116.06","34.18","32.50","40.6","17.39","88724","32.50","DUALSPOT-UV-BLUE-GREEN-RED-IR","826530","730259","910138","3.542730","0.920391","-0.052131","792232","912545","764837","2.178711","0.532693","0.000000","889750","917099","816672","1.687348","0.382959","0.000000","873017","930735","861237","1.253217","0.259233","0.000000","745867","863116","953152","0.889934","0.219447","0.000000","3670","3246","3098","2928","2651","2928","2519","2026","2519","2397","2001","2397","2629","2683","2629",""
"MA200-0416","27540","81","1","1.10","1.4","2023-05-24T14:10:30","120","2023/05/24","14:10:30","-15.793491184711456","35.08251064270735","1.0","14","30","64","65","-22045","-12737","-2350","8","150","149.45","116.19","33.26","32.57","40.3","17.34","88732","32.50","DUALSPOT-UV-BLUE-GREEN-RED-IR","819574","724969","903925","3.663503","0.954448","-0.005562","787589","907660","760934","2.237784","0.548845","0.000000","889411","917093","816769","1.732791","0.394874","0.000000","873614","931671","862143","1.284420","0.264264","0.000000","745778","863178","953291","0.914049","0.224832","0.000000","6105","6015","5983","3769","3600","3769","3247","2974","3247","2694","1517","2694","2899","2262","2899",""
"MA200-0416","27541","81","1","1.10","1.4","2023-05-24T14:11:01","120","2023/05/24","14:11:01","-15.793250739574432","35.08260880410671","0.7","14","30","64","65","-23884","-10276","-1840","8","150","149.40","115.79","33.61","32.61","40.1","17.31","88728","32.56","DUALSPOT-UV-BLUE-GREEN-RED-IR","820194","726024","905498","3.786279","0.988639","-0.015299","787966","908473","761684","2.299410","0.564104","0.000000","889601","917597","817286","1.777899","0.405102","0.000000","875029","933371","863772","1.317226","0.272471","0.000000","746204","863787","954030","0.937427","0.230717","0.000000","6227","5975","5886","3945","3365","3945","3234","2526","3234","2842","2450","2842","2820","2446","2820",""
"MA200-0416","27542","81","1","1.10","1.4","2023-05-24T14:11:30","120","2023/05/24","14:11:30","-15.793015539646149","35.08272831887007","1.1","14","30","64","65","-25588","-4724","1752","8","150","149.86","115.90","33.95","32.67","40.0","17.29","88740","32.63","DUALSPOT-UV-BLUE-GREEN-RED-IR","820858","727538","907820","3.963878","1.038423","-0.015660","789204","910482","763550","2.384531","0.585264","0.000000","886549","914885","814962","1.840210","0.419670","0.000000","876747","935532","865819","1.357901","0.279248","0.000000","747599","865602","956056","0.962223","0.234577","0.000000","9000","8611","8474","5444","4619","5444","4463","3561","4463","3520","2002","3520","2988","1587","2988",""
"MA200-0416","27543","81","1","1.10","1.4","2023-05-24T14:12:01","120","2023/05/24","14:12:01","-15.792859256267548","35.08286464214325","0.8","14","30","64","65","-24145","-3825","-2995","8","150","150.11","115.64","34.47","32.72","39.8","17.27","88728","32.69","DUALSPOT-UV-BLUE-GREEN-RED-IR","821868","728912","909814","4.068406","1.067239","-0.027926","789545","911262","764284","2.443641","0.599754","0.000000","886866","915515","815607","1.885056","0.430083","0.000000","877835","936896","867142","1.388752","0.285691","0.000000","743432","860894","950933","0.984684","0.241146","0.000000","5309","4909","4767","3789","3115","3789","3219","2507","3219","2676","1875","2676","2713","2661","2713",""
"MA200-0416","27544","81","1","1.10","1.4","2023-05-24T14:12:30","120","2023/05/24","14:12:30","-15.79272836446762","35.08305514603853","0.8","14","30","64","64","-23420","-7112","4020","8","150","148.94","115.56","33.38","32.77","39.7","17.27","88708","32.75","DUALSPOT-UV-BLUE-GREEN-RED-IR","820098","727860","908741","4.163239","1.093933","-0.008655","788905","910885","764084","2.497100","0.612342","0.000000","884786","913657","814054","1.925004","0.438195","0.000000","869253","928017","858972","1.419901","0.290215","0.000000","746703","864848","955321","1.007160","0.245939","0.000000","4820","4696","4652","3429","2795","3429","2870","2017","2870","2704","1359","2704","2717","2005","2717",""
"MA200-0416","27545","81","1","1.10","1.4","2023-05-24T14:13:00","120","2023/05/24","14:13:00","-15.79269939661026","35.08323714137077","0.7","14","30","64","65","-22340","-6784","3028","8","150","149.73","115.96","33.77","32.83","39.6","17.30","88652","32.75","DUALSPOT-UV-BLUE-GREEN-RED-IR","815840","724630","904930","4.263149","1.120309","-0.034037","785588","907504","761346","2.557832","0.625717","0.000000","887297","916620","816750","1.973194","0.446885","0.000000","873480","932802","863465","1.455110","0.295311","0.000000","744182","862094","952317","1.033103","0.250798","0.000000","5060","4587","4419","3882","2936","3882","3450","2136","3450","3046","1514","3046","3125","2010","3125",""
"MA200-0416","27546","81","1","1.10","1.4","2023-05-24T14:13:30","120","2023/05/24","14:13:30","-15.792595565319061","35.08340532332659","1.0","14","30","64","65","-23887","-1687","3916","8","150","150.01","115.79","34.21","32.88","39.6","17.33","88628","32.88","DUALSPOT-UV-BLUE-GREEN-RED-IR","816480","725894","906847","4.380047","1.152244","-0.026019","786350","909023","762818","2.639013","0.646781","0.000000","887173","917037","817274","2.037668","0.461881","0.000000","874308","934087","864782","1.503717","0.304842","0.000000","744540","862796","953226","1.067739","0.259542","0.000000","5929","5482","5322","5197","4564","5197","4622","3639","4622","4211","2794","4211","4178","3570","4178",""
"MA200-0416","27547","81","1","1.10","1.4","2023-05-24T14:14:00","120","2023/05/24","14:14:00","-15.792522430419922","35.08362915366888","0.6","14","30","64","65","-23796","-4380","3532","8","150","149.63","115.43","34.20","32.93","39.5","17.34","88600","32.88","DUALSPOT-UV-BLUE-GREEN-RED-IR","816244","726944","908799","4.618203","1.220142","-0.011679","786121","909987","764019","2.819341","0.695800","0.000000","882495","913244","814219","2.187831","0.501155","0.000000","874627","935331","866151","1.624018","0.336230","0.000000","745175","864074","954833","1.149044","0.281657","0.000000","12118","11661","11497","11580","10626","11580","10800","9534","10800","10455","9208","10455","9839","9033","9839",""
"MA200-0416","27548","81","1","1.10","1.4","2023-05-24T14:14:30","120","2023/05/24","14:14:30","-15.792295277118683","35.083638325333595","0.8","15","30","64","64","-23620","-8204","1162","8","150","149.87","115.50","34.37","33.00","39.4","17.36","88588","32.94","DUALSPOT-UV-BLUE-GREEN-RED-IR","814796","726513","908663","4.797606","1.270669","-0.016328","785068","909598","763915","2.954572","0.731760","0.000000","881436","912812","814052","2.302033","0.529027","0.000000","866092","926755","858397","1.715296","0.357473","0.000000","743865","862928","953725","1.213319","0.297334","0.000000","9123","8635","8460","8679","7757","8679","8208","6733","8208","7928","6201","7928","7773","6372","7773",""
"MA200-0416","27549","81","1","1.10","1.4","2023-05-24T14:15:01","120","2023/05/24","14:15:01","-15.7921684384346","35.083618983626366","0.6","15","30","64","64","-23444","-9108","-5240","8","150","149.80","115.61","34.19","33.05","39.3","17.37","88580","33.00","DUALSPOT-UV-BLUE-GREEN-RED-IR","810174","723083","904704","4.930101","1.306608","-0.025731","781213","905784","760906","3.053576","0.756036","-0.096151","882938","914966","816139","2.384985","0.549780","0.000000","870183","931612","863031","1.780343","0.370949","0.000000","741619","860625","951269","1.259389","0.308691","0.000000","6731","6174","5973","6348","5264","4907","5956","5039","5956","5644","3954","5644","5566","4640","5566",""
"MA200-0416","27550","81","1","1.10","1.4","2023-05-24T14:15:31","120","2023/05/24","14:15:31","-15.79205447435379","35.08353064954281","0.9","15","30","64","64","-23845","-9195","1379","8","150","149.45","115.75","33.69","33.09","39.2","17.35","88576","33.06","DUALSPOT-UV-BLUE-GREEN-RED-IR","810746","724263","906481","5.056562","1.341899","-0.011770","782196","907541","762558","3.144228","0.780010","-0.044056","878463","910836","812590","2.460063","0.568347","0.000000","870595","932506","863981","1.839554","0.385201","0.000000","741996","861334","952161","1.301261","0.319351","0.000000","6417","6152","6056","5805","5274","5099","5384","4575","5384","5132","4243","5132","5053","4419","5053",""
"MA200-0416","27551","81","1","1.10","1.4","2023-05-24T14:16:00","120","2023/05/24","14:16:00","-15.791933000087738","35.08368166536093","0.8","15","30","64","64","-24360","-4832","748","8","150","149.63","115.27","34.36","33.16","39.0","17.35","88560","33.13","DUALSPOT-UV-BLUE-GREEN-RED-IR","809266","723540","905943","5.183929","1.379591","-0.001885","780524","906164","761603","3.238100","0.806690","-0.020331","881975","914977","816447","2.536690","0.587403","0.000000","870235","932514","864114","1.899433","0.399172","0.000000","741147","860602","951462","1.344635","0.330526","0.000000","6489","6443","6426","6036","5756","5663","5518","4604","5518","5211","4079","5211","5256","4543","5256",""
"MA200-0416","27552","81","1","1.10","1.4","2023-05-24T14:16:31","120","2023/05/24","14:16:31","-15.792117536067963","35.08380565792322","1.0","15","30","64","64","-23144","-8064","-556","8","150","149.87","115.75","34.12","33.21","38.8","17.33","88560","33.19","DUALSPOT-UV-BLUE-GREEN-RED-IR","811790","726266","909549","5.271962","1.403011","-0.029006","782641","909029","764122","3.299665","0.822347","-0.067709","878940","912171","814017","2.586186","0.599914","0.000000","873622","936420","867756","1.939022","0.407940","0.000000","742728","862660","953799","1.375978","0.338842","0.000000","4467","4032","3874","3942","3402","3222","3550","3044","3550","3431","2578","3431","3782","3405","3782",""
"MA200-0416","27553","81","1","1.10","1.4","2023-05-24T14:17:00","120","2023/05/24","14:17:00","-15.792240500450134","35.08398948609829","0.9","15","30","64","64","-24956","-5364","2584","8","150","150.13","115.26","34.87","33.27","38.9","17.39","88556","33.25","DUALSPOT-UV-BLUE-GREEN-RED-IR","805940","721421","903639","5.345893","1.423255","-0.027755","784380","911408","766198","3.350621","0.832784","-0.224902","879557","913122","814925","2.628857","0.606494","0.000000","866151","928678","860641","1.971286","0.411218","0.000000","743005","863113","954364","1.400411","0.344313","0.000000","3767","3410","3280","3277","2219","1868","3073","1566","3073","2808","943","2808","2961","2192","2961",""
"MA200-0416","27554","81","1","1.10","1.4","2023-05-24T14:17:30","120","2023/05/24","14:17:30","-15.792186439037323","35.08419147878885","0.9","15","30","64","64","-24920","-8324","-208","8","150","150.56","115.47","35.08","33.32","39.1","17.51","88536","33.31","DUALSPOT-UV-BLUE-GREEN-RED-IR","806341","722464","905248","5.452463","1.451662","-0.036822","779195","905884","761672","3.412896","0.845737","-0.211587","879385","913382","815232","2.677768","0.614553","0.000000","867801","930778","862629","2.007651","0.415617","0.000000","743272","863635","955000","1.430151","0.350863","0.000000","5420","4755","4514","3997","2736","2321","3516","1907","3516","3159","1257","3159","3597","2608","3597",""
"MA200-0416","27555","81","1","1.10","1.4","2023-05-24T14:18:00","120","2023/05/24","14:18:00","-15.791993916034698","35.08424515277147","0.8","16","30","64","64","-23644","-10436","-2216","8","150","149.51","115.31","34.19","33.38","39.2","17.62","88540","33.38","DUALSPOT-UV-BLUE-GREEN-RED-IR","805256","723830","908097","5.859032","1.563245","-0.019265","778466","906878","763043","3.659224","0.907897","-0.067490","874968","910283","812922","2.877152","0.664150","0.000000","869382","933742","865702","2.167612","0.451839","0.000000","739531","860154","951432","1.548688","0.377573","0.000000","20708","19168","18608","15835","13477","12699","14355","12043","14355","13917","10628","13917","14360","10913","14360",""
"MA200-0416","27556","81","1","1.10","1.4","2023-05-24T14:18:30","120","2023/05/24","14:18:30","-15.791738271713257","35.08425131440163","1.1","16","30","64","64","-22908","-10796","-1480","8","150","149.76","115.24","34.52","33.45","39.4","17.78","88548","33.44","DUALSPOT-UV-BLUE-GREEN-RED-IR","796431","718453","902659","6.350315","1.703495","-0.010814","778962","909160","765452","3.911382","0.974273","-0.049246","875101","911722","814595","3.069216","0.710766","-0.106853","862681","927586","860316","2.314692","0.486970","0.000000","740388","861858","953565","1.656984","0.402431","0.000000","25039","23862","23430","16220","14253","13601","13836","11210","10419","12804","10209","12804","13127","10058","13127",""
"MA200-0416","27557","81","1","1.10","1.4","2023-05-24T14:19:00","120","2023/05/24","14:19:00","-15.791454493999481","35.08419565111399","1.1","16","30","64","64","-24196","-9456","-1424","8","150","150.36","115.67","34.69","33.49","39.3","17.77","88556","33.56","DUALSPOT-UV-BLUE-GREEN-RED-IR","797891","720485","905587","6.564370","1.765325","-0.008058","773942","903907","761268","4.038846","1.008981","-0.034585","875340","912513","815435","3.168947","0.736498","-0.070127","865198","930702","863325","2.391791","0.504583","0.000000","740868","862713","954584","1.712493","0.415053","0.000000","10869","10470","10323","8169","7417","7167","7158","6159","5856","6687","5094","6687","6703","5083","6703",""
"MA200-0416","27558","81","1","1.10","1.4","2023-05-24T14:19:31","120","2023/05/24","14:19:31","-15.791204512119293","35.08417332172394","0.8","16","30","64","64","-22332","-11000","-1296","8","150","150.01","115.46","34.55","33.58","39.2","17.79","88560","33.63","DUALSPOT-UV-BLUE-GREEN-RED-IR","798805","721814","907544","6.655728","1.794828","0.014721","775351","905920","763109","4.098803","1.027875","0.016190","875702","913161","816175","3.215474","0.749819","-0.018524","866380","932189","864824","2.427810","0.514114","0.000000","741410","863545","955619","1.741676","0.423811","0.000000","4647","5016","5152","3849","4054","4123","3345","3201","3157","3129","2767","3129","3530","3541","3530",""
"MA200-0416","27559","81","1","1.10","1.4","2023-05-24T14:20:01","120","2023/05/24","14:20:01","-15.790952563285828","35.08426380902529","0.9","16","30","64","64","-23992","-11584","-1680","8","150","149.73","115.38","34.35","33.64","39.0","17.78","88580","33.69","DUALSPOT-UV-BLUE-GREEN-RED-IR","800126","723624","910156","6.789962","1.835258","0.002305","776625","907889","764907","4.176628","1.050783","-0.003707","876681","914549","817510","3.274006","0.767057","-0.004398","868257","934502","867017","2.469295","0.525862","0.000000","737618","859261","950928","1.771778","0.432083","0.000000","6833","6912","6942","5000","4943","4924","4211","4166","4152","3607","3431","3607","3644","3363","3644",""
"MA200-0416","27560","81","1","1.10","1.4","2023-05-24T14:20:30","120","2023/05/24","14:20:30","-15.790833711624146","35.0845158174634","1.7","16","30","64","64","-24700","-10456","-2540","8","150","149.45","115.43","34.01","33.70","38.8","17.75","88600","33.75","DUALSPOT-UV-BLUE-GREEN-RED-IR","794071","718611","904036","6.874808","1.857210","-0.029169","777488","909259","766162","4.227996","1.063018","-0.081342","873248","911270","814635","3.314126","0.774168","-0.326663","863126","929202","862145","2.498155","0.528878","0.000000","738758","860800","952639","1.796400","0.436398","0.000000","4317","3790","3596","3298","2666","2454","2885","1735","1385","2508","889","2508","2979","1772","2979",""
"MA200-0416","27561","81","1","1.10","1.4","2023-05-24T14:21:00","120","2023/05/24","14:21:00","-15.790637731552124","35.08452881872654","1.0","16","30","64","64","-24000","-7275","1128","8","150","149.31","115.46","33.85","33.76","38.6","17.71","88608","33.75","DUALSPOT-UV-BLUE-GREEN-RED-IR","795906","720854","907125","6.968351","1.882989","-0.012820","773553","905147","762777","4.286670","1.075178","-0.149875","873598","911992","815376","3.357738","0.783699","-0.148055","864142","930582","863462","2.528685","0.533807","0.000000","739122","861405","953395","1.821369","0.441185","0.000000","4758","4473","4368","3767","2663","2293","3136","2337","2094","2652","1461","2652","3021","1975","3021",""
"MA200-0416","27562","81","1","1.10","1.4","2023-05-24T14:21:30","120","2023/05/24","14:21:30","-15.790412962436676","35.08456715196371","1.2","16","30","64","64","-23160","-9876","-2492","8","150","149.37","115.18","34.19","33.82","38.4","17.70","88612","33.81","DUALSPOT-UV-BLUE-GREEN-RED-IR","796058","721761","908627","7.124266","1.922330","-0.036288","773651","905823","763536","4.376239","1.097255","-0.066878","874186","913071","816433","3.421665","0.795596","-0.276422","865451","932335","865116","2.571481","0.539929","0.000000","739865","862480","954645","1.855077","0.448918","0.000000","7950","6758","6317","5764","4786","4459","4607","2888","2368","3727","1796","3727","4088","3159","4088",""
"MA200-0416","27563","81","1","1.10","1.4","2023-05-24T14:22:00","120","2023/05/24","14:22:00","-15.790206968784332","35.08465148508549","0.9","16","30","64","63","-21040","-11288","-2011","8","150","149.80","115.59","34.21","33.89","38.2","17.66","88632","33.94","DUALSPOT-UV-BLUE-GREEN-RED-IR","795101","721346","908278","7.214336","1.946268","-0.022542","773050","905478","763377","4.433995","1.112289","-0.043283","873215","912336","815839","3.464019","0.805002","-0.139209","864525","931522","864411","2.601635","0.544446","0.000000","738620","861160","953241","1.880338","0.453643","0.000000","4576","4109","3936","3704","3257","3107","3042","2282","2052","2617","1324","2617","3053","1929","3053",""
"MA200-0416","27564","81","1","1.10","1.4","2023-05-24T14:22:30","120","2023/05/24","14:22:30","-15.790042757987976","35.084624990820885","1.0","16","30","64","64","-23192","-9052","-172","8","150","150.04","115.70","34.34","33.95","37.9","17.61","88632","33.94","DUALSPOT-UV-BLUE-GREEN-RED-IR","791112","718120","904422","7.289776","1.967943","-0.006279","769459","901577","760114","4.478538","1.122213","-0.111330","871138","910416","814190","3.501231","0.813674","-0.110930","861673","928695","861838","2.627772","0.549400","0.000000","736711","859128","951024","1.900770","0.458274","0.000000","3829","3707","3662","2854","2142","1904","2670","2096","1923","2266","1447","2266","2466","1883","2466",""
"MA200-0416","27565","81","1","1.10","1.4","2023-05-24T14:23:00","120","2023/05/24","14:23:00","-15.78987866640091","35.08446481823921","0.8","16","30","64","63","-24088","-9984","-3232","8","150","149.86","115.41","34.45","34.02","37.8","17.59","88632","34.00","DUALSPOT-UV-BLUE-GREEN-RED-IR","789138","716820","903031","7.374542","1.991067","-0.018122","768674","901079","759823","4.531521","1.135177","-0.069878","870225","909739","813690","3.540003","0.821691","-0.188505","860653","927813","861042","2.656330","0.554889","0.000000","735886","858299","950156","1.923711","0.463988","0.000000","4314","3942","3805","3403","2789","2584","2789","1932","1672","2482","1598","2482","2776","2316","2776",""
"MA200-0416","27566","81","1","1.10","1.4","2023-05-24T14:23:30","120","2023/05/24","14:23:30","-15.78965699672699","35.08439798653126","1.1","16","30","64","64","-24176","-9728","-1632","8","150","149.67","115.18","34.49","34.07","37.6","17.56","88648","34.06","DUALSPOT-UV-BLUE-GREEN-RED-IR","792177","720242","907641","7.505568","2.027923","-0.012057","771256","904607","762933","4.603773","1.152479","-0.079171","872519","912532","816234","3.591538","0.831562","-0.245799","863197","930858","863935","2.692949","0.559783","0.000000","737492","860381","952496","1.950271","0.469650","0.000000","6681","6276","6127","4650","3719","3408","3714","2376","1972","3189","1423","3189","3221","2293","3221",""
"MA200-0416","27567","81","1","1.10","1.4","2023-05-24T14:24:00","120","2023/05/24","14:24:00","-15.789512574672699","35.08424548059702","5.4","15","30","64","63","-22860","-11860","-1088","8","150","150.03","115.16","34.87","34.14","37.4","17.53","88680","34.13","DUALSPOT-UV-BLUE-GREEN-RED-IR","790271","718891","906155","7.588615","2.052862","-0.001531","769495","902818","761518","4.655999","1.166862","-0.029523","870482","910658","814644","3.632051","0.841486","-0.091162","862136","929914","863088","2.721824","0.564849","0.000000","736130","858902","950942","1.972745","0.474637","0.000000","4235","4200","4187","3362","3057","2955","2920","2362","2194","2515","1457","2515","2726","1997","2726",""
"MA200-0416","27568","81","1","1.10","1.4","2023-05-24T14:24:30","120","2023/05/24","14:24:30","-15.789132833480835","35.08236999064684","4.6","15","30","64","64","-21888","-10824","-3204","8","150","150.55","115.22","35.33","34.19","37.1","17.48","88716","34.19","DUALSPOT-UV-BLUE-GREEN-RED-IR","792534","721280","909331","7.651314","2.070280","-0.019370","771218","905133","763511","4.695439","1.175142","-0.154704","871952","912446","816318","3.665519","0.848561","-0.185109","864774","932955","865938","2.746029","0.567532","0.000000","737512","860651","952935","1.993417","0.480472","0.000000","3196","2895","2783","2537","1737","1469","2411","1662","1436","2107","761","2107","2506","2307","2506",""
"MA200-0416","27569","81","1","1.10","1.4","2023-05-24T14:25:00","120","2023/05/24","14:25:00","-15.78907585144043","35.083637818694115","1.8","16","30","64","64","-22892","-9880","-1968","8","150","149.32","115.11","34.21","34.24","37.0","17.46","88740","34.19","DUALSPOT-UV-BLUE-GREEN-RED-IR","792299","721528","909843","7.744218","2.094942","-0.022153","771145","905408","763872","4.752034","1.188833","-0.069445","871538","912324","816261","3.707439","0.856601","-0.230882","865199","933646","866627","2.776961","0.571871","0.000000","737467","860763","953103","2.016893","0.485356","0.000000","4740","4234","4046","3644","2966","2740","3023","1951","1629","2696","1272","2696","2849","1994","2849",""
"MA200-0416","27570","81","1","1.10","1.4","2023-05-24T14:25:30","120","2023/05/24","14:25:30","-15.78883707523346","35.08363098651171","1.6","16","30","64","63","-24332","-7720","5036","8","150","149.42","115.13","34.28","34.30","36.9","17.47","88736","34.25","DUALSPOT-UV-BLUE-GREEN-RED-IR","786182","716288","903399","7.806136","2.113420","0.000387","771973","906657","765026","4.792213","1.198459","-0.073538","868950","909826","814078","3.738905","0.862813","-0.208619","859010","927158","860640","2.802122","0.576645","0.000000","738383","861969","954454","2.035749","0.489566","0.000000","3158","3165","3168","2587","2081","1912","2269","1504","1274","2192","1397","2192","2287","1715","2287",""
"MA200-0416","27571","81","1","1.10","1.4","2023-05-24T14:26:00","120","2023/05/24","14:26:00","-15.788514733314514","35.08466498553753","1.0","16","30","64","64","-24400","-9608","395","8","150","150.14","115.46","34.68","34.35","36.9","17.54","88732","34.25","DUALSPOT-UV-BLUE-GREEN-RED-IR","786906","717247","904791","7.867614","2.130231","-0.017827","767451","901648","760844","4.834747","1.208759","-0.072121","872246","913511","817453","3.773171","0.870471","-0.132143","859311","927687","861170","2.826107","0.580526","0.000000","738025","861693","954200","2.056646","0.492865","0.000000","3127","2846","2742","2730","2201","2024","2463","1833","1644","2084","1122","2084","2528","1328","2528",""
"MA200-0416","27572","81","1","1.10","1.4","2023-05-24T14:26:31","120","2023/05/24","14:26:31","-15.788533389568329","35.08499947935343","0.8","16","30","64","63","-23746","-6096","3115","8","150","150.43","115.49","34.94","34.40","37.0","17.61","88716","34.31","DUALSPOT-UV-BLUE-GREEN-RED-IR","787374","717972","905840","7.924508","2.146455","-0.010810","767224","901670","760931","4.873604","1.217269","-0.119487","869083","910466","814725","3.804457","0.876104","-0.291891","860287","928910","862360","2.850886","0.585014","0.000000","734005","857127","949183","2.076124","0.497607","0.000000","2893","2727","2665","2494","1805","1576","2249","1338","1065","2152","1288","2152","2356","1895","2356",""
"MA200-0416","27573","81","1","1.10","1.4","2023-05-24T14:27:01","120","2023/05/24","14:27:01","-15.788508594036102","35.085021153092384","1.0","16","30","64","63","-24220","-10188","-2424","8","150","150.05","115.30","34.75","34.46","37.1","17.70","88720","34.44","DUALSPOT-UV-BLUE-GREEN-RED-IR","784480","715685","903138","7.991438","2.165666","-0.008772","770530","905864","764558","4.917234","1.226646","-0.125932","871432","913198","817254","3.839809","0.883531","-0.168992","865158","934390","867440","2.875659","0.587059","0.000000","736306","859933","952354","2.095970","0.503294","0.000000","3409","3246","3186","2805","2000","1732","2545","1774","1543","2155","590","2155","2404","2286","2404",""
"MA200-0416","27574","81","1","1.10","1.4","2023-05-24T14:27:31","120","2023/05/24","14:27:31","-15.788306295871735","35.08499915152788","1.0","17","30","64","63","-22241","-11129","-2091","8","150","149.92","115.14","34.78","34.52","37.0","17.73","88752","34.50","DUALSPOT-UV-BLUE-GREEN-RED-IR","786497","717890","906122","8.056616","2.184021","-0.012702","767012","902033","761405","4.961121","1.237953","-0.049114","868895","910787","815119","3.873849","0.889718","-0.276376","859343","928292","861822","2.901443","0.591541","0.000000","732862","856032","948091","2.116846","0.508431","0.000000","3324","3099","3016","2825","2410","2271","2454","1476","1185","2246","1293","2246","2532","2063","2532",""
"MA200-0416","27575","81","1","1.10","1.4","2023-05-24T14:28:00","120","2023/05/24","14:28:00","-15.788082122802734","35.085398986935616","3.6","16","30","64","63","-23964","-9868","-1848","8","150","150.55","115.57","34.98","34.59","37.0","17.78","88760","34.56","DUALSPOT-UV-BLUE-GREEN-RED-IR","788127","719684","908520","8.124800","2.203384","-0.011404","767661","903100","762382","5.004615","1.248861","-0.059161","866362","908354","813016","3.908217","0.895988","-0.272139","862168","931561","864883","2.927532","0.594765","0.000000","734479","858043","950380","2.138301","0.513634","0.000000","3465","3251","3171","2789","2311","2152","2468","1488","1196","2264","924","2264","2593","2077","2593",""
"MA200-0416","27576","81","1","1.10","1.4","2023-05-24T14:28:30","120","2023/05/24","14:28:30","-15.787301898002625","35.08565481752157","3.3","16","30","64","63","-23840","-9832","-1216","8","150","149.99","115.26","34.73","34.64","36.9","17.79","88756","34.63","DUALSPOT-UV-BLUE-GREEN-RED-IR","786989","718986","907810","8.184922","2.219606","-0.020449","767720","903414","762715","5.044353","1.257669","-0.107761","868541","910891","815331","3.941876","0.902509","-0.218705","860296","929727","863207","2.951415","0.598067","0.000000","737025","861211","953887","2.160280","0.518994","0.000000","3063","2743","2624","2555","1880","1655","2424","1559","1302","2078","953","2078","2663","2155","2663",""
"MA200-0416","27577","81","1","1.10","1.4","2023-05-24T14:29:00","120","2023/05/24","14:29:00","-15.787523627281189","35.08529731631279","0.8","16","30","64","63","-22712","-11556","-2508","8","150","149.80","115.07","34.73","34.70","36.8","17.79","88784","34.69","DUALSPOT-UV-BLUE-GREEN-RED-IR","782383","715126","903063","8.251433","2.238920","-0.006639","769460","905767","764757","5.086767","1.268386","-0.054431","866823","909311","814003","3.973186","0.909328","-0.142219","862923","932798","866072","2.977278","0.601793","0.000000","734466","858351","950768","2.181762","0.523338","0.000000","3395","3266","3218","2732","2287","2140","2259","1630","1443","2255","1076","2255","2608","1747","2608",""
"MA200-0416","27578","81","1","1.10","1.4","2023-05-24T14:29:31","120","2023/05/24","14:29:31","-15.787258684635162","35.0852859839797","1.2","16","30","64","63","-23220","-8244","-1152","8","150","149.80","114.92","34.88","34.76","36.6","17.76","0","0.00","DUALSPOT-UV-BLUE-GREEN-RED-IR","782166","715182","903287","8.307255","2.255886","0.000218","769252","905769","764853","5.124163","1.276916","-0.096571","866563","909250","813975","4.003399","0.916736","-0.082940","863757","933836","867095","2.998720","0.606167","0.000000","734285","858262","950731","2.199539","0.528303","0.000000","2853","2856","2858","2412","1812","1613","2182","1763","1638","1872","1258","1872","2160","1988","2160",""
"MA200-0416","27579","81","1","1.10","1.4","2023-05-24T14:30:00","120","2023/05/24","14:30:00","-15.786975741386414","35.08527480810881","1.0","16","30","64","63","-24172","-8075","-400","8","150","149.92","115.03","34.89","34.81","36.4","17.72","0","0.00","DUALSPOT-UV-BLUE-GREEN-RED-IR","782762","716011","904502","8.362252","2.270673","-0.022093","769921","906841","765832","5.163556","1.286829","-0.056881","866580","909485","814243","4.033071","0.920879","-0.576923","857097","926830","860609","3.022621","0.608575","-1.689101","734458","858596","951149","2.220686","0.532159","0.000000","2808","2489","2370","2538","2106","1962","2141","985","643","2084","692","341","2568","1544","2568",""
"MA200-0416","27580","81","1","1.10","1.4","2023-05-24T14:30:31","120","2023/05/24","14:30:31","-15.786833703517914","35.08530031889677","0.1","17","30","64","63","-23566","-9720","-1970","8","150","150.04","115.31","34.72","34.86","36.3","17.71","88804","34.81","DUALSPOT-UV-BLUE-GREEN-RED-IR","783620","717069","905958","8.414948","2.286573","0.000333","764994","901278","761196","5.199802","1.295841","-0.058117","867143","910291","815013","4.063928","0.928103","-0.099703","857330","927267","861060","3.045353","0.611460","-0.860891","735115","859465","952145","2.239828","0.536318","0.000000","2684","2689","2691","2330","1924","1789","2221","1727","1581","1977","833","546","2318","1673","2318",""
"MA200-0416","27581","81","1","1.10","1.4","2023-05-24T14:31:00","120","2023/05/24","14:31:00","-15.78677237033844","35.0853643193841","3.9","16","30","64","63","-23096","-3696","7428","8","150","149.84","115.22","34.63","34.91","36.2","17.71","88800","34.81","DUALSPOT-UV-BLUE-GREEN-RED-IR","784350","718002","907307","8.469809","2.302242","-0.008640","765652","902302","762139","5.236202","1.305336","-0.040776","867201","910564","815320","4.092628","0.933878","-0.182894","858345","928521","862251","3.068223","0.614846","-0.566022","734748","859195","951881","2.258051","0.540227","0.000000","2796","2657","2605","2342","2032","1929","2068","1384","1182","1991","980","727","2209","1577","2209",""
"MA200-0416","27582","81","1","1.10","1.4","2023-05-24T14:31:30","120","2023/05/24","14:31:30","-15.784527599811554","35.087028332054615","18.7","16","30","64","62","-24492","-6664","1819","8","150","149.51","115.00","34.51","34.97","36.1","17.72","88796","34.88","DUALSPOT-UV-BLUE-GREEN-RED-IR","782591","716720","905826","8.528333","2.318750","-0.010536","764318","900984","761098","5.275255","1.314193","-0.091350","866465","910046","814901","4.123747","0.938975","-0.346372","856694","926951","860805","3.091565","0.618369","-0.530976","733760","858139","950735","2.276920","0.543992","0.000000","2989","2809","2742","2517","1902","1698","2246","1226","925","2036","1024","770","2292","1523","2292",""
"MA200-0416","27583","81","1","1.10","1.4","2023-05-24T14:32:00","120","2023/05/24","14:32:00","-15.78052705526352","35.089121483266354","11.2","16","30","64","63","-24664","-7804","1764","8","150","149.76","115.48","34.29","35.01","36.0","17.73","88780","34.94","DUALSPOT-UV-BLUE-GREEN-RED-IR","784625","718941","908865","8.603025","2.341262","0.002374","765925","903205","763062","5.322832","1.326639","-0.035360","867417","911307","816117","4.162711","0.949233","-0.041310","859228","929921","863607","3.119441","0.623179","-0.351950","734890","859617","952447","2.299055","0.550093","0.000000","3799","3856","3878","3054","2691","2570","2801","2483","2390","2421","1407","1154","2677","2486","2677",""
"MA200-0416","27584","81","1","1.10","1.4","2023-05-24T14:32:30","120","2023/05/24","14:32:30","-15.780102014541626","35.089557975530624","6.8","16","30","64","63","-23780","-9452","52","8","150","149.67","114.99","34.68","35.06","36.0","17.76","88752","34.94","DUALSPOT-UV-BLUE-GREEN-RED-IR","784952","719661","909986","8.680209","2.363281","-0.009240","766121","903817","763657","5.373579","1.338285","-0.086874","867565","911754","816583","4.201967","0.957923","-0.125003","859702","930666","864359","3.148451","0.627780","-0.461034","734932","859814","952717","2.322000","0.556553","0.000000","3942","3729","3649","3271","2489","2230","2834","2080","1858","2531","1331","1032","2787","2602","2787",""
"MA200-0416","27585","81","1","1.10","1.4","2023-05-24T14:33:00","120","2023/05/24","14:33:00","-15.78056252002716","35.0887698084116","11.1","16","30","64","63","-24037","-6629","4654","8","150","149.51","115.24","34.27","35.11","36.2","17.90","88752","35.00","DUALSPOT-UV-BLUE-GREEN-RED-IR","777946","713652","902561","8.763328","2.386842","-0.007849","765801","903798","763741","5.426824","1.350046","-0.095983","864139","908465","813686","4.244650","0.964581","-0.376908","861095","932422","866028","3.180288","0.632984","-0.404053","735470","860625","953665","2.345218","0.561427","0.000000","4236","4038","3963","3425","2544","2252","3075","1612","1182","2771","1523","1213","2814","1986","2814",""
"MA200-0416","27586","81","1","1.10","1.4","2023-05-24T14:33:31","120","2023/05/24","14:33:31","-15.777152836322784","35.087281972169876","15.2","16","30","64","63","-21025","-9066","-450","8","150","149.80","115.00","34.80","35.16","36.4","18.01","88772","35.00","DUALSPOT-UV-BLUE-GREEN-RED-IR","778727","714759","904202","8.843387","2.409731","-0.009271","766284","904703","764600","5.475175","1.361471","-0.075163","864919","909572","814730","4.283160","0.973361","-0.109380","854966","925989","860102","3.209316","0.638229","-0.315098","736777","862237","955524","2.367815","0.566356","0.000000","4088","3863","3779","3116","2434","2208","2780","2094","1893","2532","1512","1259","2744","1979","2744",""
"MA200-0416","27587","81","1","1.10","1.4","2023-05-24T14:34:01","120","2023/05/24","14:34:01","-15.77482658624649","35.08659964054823","13.6","16","30","64","62","-22660","-9316","-2280","8","150","150.09","115.00","35.10","35.22","36.6","18.14","88804","35.13","DUALSPOT-UV-BLUE-GREEN-RED-IR","777646","714087","903494","8.905963","2.427845","-0.008567","765920","904591","764554","5.519318","1.371748","-0.083582","863823","908682","813995","4.318625","0.979512","-0.292750","854052","925215","859356","3.234046","0.640136","-4.219604","735328","860696","953862","2.389692","0.572220","0.000000","3196","3031","2969","2845","2170","1947","2560","1455","1130","2157","545","147","2657","2334","2657",""
"MA200-0416","27588","81","1","1.10","1.4","2023-05-24T14:34:30","120","2023/05/24","14:34:30","-15.771911382675171","35.089191146194935","66646.9","16","30","64","63","-23428","-8672","-468","8","150","149.57","114.84","34.73","35.28","36.7","18.24","88800","35.19","DUALSPOT-UV-BLUE-GREEN-RED-IR","781179","717694","908226","8.971237","2.446487","-0.009224","762994","901408","761960","5.561614","1.381809","-0.071294","866080","911325","816421","4.351991","0.986450","-0.155751","858134","929838","863739","3.262382","0.645053","-0.347237","733515","858742","951729","2.410604","0.577055","0.000000","3338","3153","3083","2730","2147","1955","2412","1658","1437","2475","1420","1160","2543","1944","2543",""
"MA200-0416","27589","81","1","1.10","1.4","2023-05-24T14:35:01","120","2023/05/24","14:35:01","-15.78305333852768","35.084620483219624","2.8","16","30","64","63","-24544","-9016","-2968","8","150","149.73","114.76","34.97","35.34","36.6","18.27","88808","35.19","DUALSPOT-UV-BLUE-GREEN-RED-IR","776114","713496","903171","9.065208","2.475528","0.002119","765148","904342","764564","5.619162","1.397544","-0.028159","863202","908584","814032","4.395640","0.996661","-0.097669","859637","931744","865550","3.295263","0.651878","-0.200189","734188","859704","952861","2.436708","0.584507","0.000000","4809","4877","4903","3717","3335","3209","3157","2424","2209","2874","1957","1731","3177","2976","3177",""
"MA200-0416","27590","81","1","1.10","1.4","2023-05-24T14:35:30","120","2023/05/24","14:35:30","-15.783881545066833","35.08498115092516","1.6","16","30","64","62","-23780","-5208","4396","8","150","150.17","115.07","35.11","35.40","36.6","18.32","88780","35.31","DUALSPOT-UV-BLUE-GREEN-RED-IR","776252","713984","903989","9.139306","2.496370","-0.013174","765392","904933","765159","5.667972","1.409978","-0.049683","860197","905664","811511","4.436255","1.007282","-0.051121","854035","925871","860137","3.324360","0.657130","-0.311981","734656","860397","953702","2.461296","0.590123","0.000000","3782","3486","3375","3144","2625","2453","2930","2511","2388","2537","1500","1245","2985","2234","2985",""
"MA200-0416","27591","81","1","1.10","1.4","2023-05-24T14:36:00","120","2023/05/24","14:36:00","0","0","0.0","16","30","64","62","-18192","-3084","6292","8","150","150.23","114.72","35.51","35.45","36.6","18.37","88692","35.38","DUALSPOT-UV-BLUE-GREEN-RED-IR","778305","716237","907030","9.209833","2.518087","-0.000780","760662","899659","760793","5.714238","1.421207","-0.070578","864122","910078","815513","4.471946","1.013779","-0.254819","855446","927638","861824","3.353310","0.661731","-0.458857","735214","861216","954647","2.483659","0.595025","0.000000","3611","3592","3585","2989","2344","2130","2583","1519","1207","2531","1300","997","2723","1928","2723",""
"MA200-0416","27592","81","1","1.10","1.4","2023-05-24T14:36:30","120","2023/05/24","14:36:30","-15.788770973682404","35.08646782487631","1.4","16","30","64","63","-23996","-10136","-664","8","150","149.86","115.26","34.60","35.52","36.7","18.47","88680","35.50","DUALSPOT-UV-BLUE-GREEN-RED-IR","780059","718209","909689","9.280995","2.538757","-0.005040","762657","902343","763144","5.762964","1.432395","-0.079019","862200","908325","814040","4.512573","1.021229","-0.224262","858812","931523","865500","3.385752","0.667411","-0.318841","732255","857928","951055","2.511322","0.601155","0.000000","3626","3508","3464","3134","2397","2153","2926","1787","1454","2823","1646","1357","3352","2474","3352",""
"MA200-0416","27593","81","1","1.10","1.4","2023-05-24T14:37:01","120","2023/05/24","14:37:01","-15.788652062416077","35.086703322827816","1.4","16","30","64","62","-23308","-9320","-1029","8","150","150.43","114.84","35.59","35.59","36.9","18.60","88680","35.56","DUALSPOT-UV-BLUE-GREEN-RED-IR","776585","715327","906245","9.346723","2.557390","-0.014220","764783","905210","765654","5.808659","1.443750","-0.061662","863601","910081","815646","4.549152","1.029198","-0.136946","854153","926689","861007","3.411908","0.671709","-0.413058","733727","859786","953185","2.533464","0.605518","0.000000","3361","3075","2967","2949","2365","2171","2644","1859","1629","2285","1211","948","2693","1712","2693",""
"MA200-0416","27594","81","1","1.10","1.4","2023-05-24T14:37:30","120","2023/05/24","14:37:30","-15.78847324848175","35.086664989590645","1.7","16","30","64","62","-23372","-10620","-2300","8","150","150.35","114.92","35.43","35.66","37.0","18.70","88660","35.69","DUALSPOT-UV-BLUE-GREEN-RED-IR","773171","712629","903026","9.424327","2.580999","-0.001985","763025","903497","764297","5.860846","1.456344","-0.069413","861964","908671","814496","4.593080","1.039075","-0.117204","857611","930710","864812","3.445391","0.676816","-0.491565","735880","862480","956246","2.560474","0.613460","0.000000","3966","3913","3893","3366","2634","2393","3173","2314","2063","2923","1446","1085","3283","3131","3283",""
"MA200-0416","27595","81","1","1.10","1.4","2023-05-24T14:38:00","120","2023/05/24","14:38:00","-15.788364231586456","35.08676564693451","2.0","16","30","64","62","-22512","-9452","444","8","150","149.32","114.72","34.59","35.74","37.0","18.80","88660","35.81","DUALSPOT-UV-BLUE-GREEN-RED-IR","776017","715752","907313","9.530794","2.612558","-0.002498","759880","900252","761698","5.935592","1.476299","-0.030317","863804","911068","816733","4.652435","1.051556","-0.137974","853996","927162","861610","3.493291","0.686800","-0.178629","733091","859460","952972","2.596761","0.621575","0.000000","5450","5358","5324","4829","4276","4093","4295","2995","2616","4188","2895","2579","4418","3277","4418",""
"MA200-0416","27596","81","1","1.10","1.4","2023-05-24T14:38:31","120","2023/05/24","14:38:31","-15.789096534252167","35.085799999535084","3.8","16","30","64","62","-23560","-10112","392","8","150","149.76","115.31","34.45","35.83","37.0","18.85","88652","35.94","DUALSPOT-UV-BLUE-GREEN-RED-IR","777234","717992","910679","9.717524","2.667484","-0.002228","760413","901984","763501","6.073587","1.513004","-0.028149","861085","909095","815267","4.768151","1.081257","-0.046699","857530","931745","866090","3.584766","0.707286","-0.126442","735017","862286","956286","2.667177","0.640134","0.000000","9511","9364","9309","8871","7898","7576","8331","7158","6813","7958","5966","5476","8530","7526","8530",""
"MA200-0416","27597","81","1","1.10","1.4","2023-05-24T14:39:01","120","2023/05/24","14:39:01","-15.789485037326813","35.086238481104374","0.8","16","30","64","61","-22872","-10528","-1212","8","150","149.32","114.84","34.48","35.92","36.9","18.89","88644","36.06","DUALSPOT-UV-BLUE-GREEN-RED-IR","770305","712313","903889","9.871969","2.712608","-0.003888","760349","902627","764291","6.190088","1.544548","-0.024297","860283","908877","815213","4.865396","1.105701","-0.054830","849666","923720","858752","3.663158","0.724638","-0.132954","729606","856238","949742","2.725433","0.655417","0.000000","7899","7687","7607","7520","6782","6537","7030","5886","5549","6848","5049","4605","7086","6192","7086",""
"MA200-0416","27598","81","1","1.10","1.4","2023-05-24T14:39:31","120","2023/05/24","14:39:31","-15.789665520191193","35.08610364794731","1.1","16","30","64","62","-23480","-7952","1140","8","150","149.86","115.90","33.95","35.99","36.8","18.94","88644","36.13","DUALSPOT-UV-BLUE-GREEN-RED-IR","772566","715483","908416","10.089869","2.773338","-0.007124","756559","899182","761671","6.357984","1.587534","-0.031757","857447","906820","813657","5.008817","1.141548","-0.046879","852746","927877","862851","3.778750","0.750995","-0.101202","731042","858488","952436","2.814188","0.677646","0.000000","11042","10505","10301","10738","9385","8934","10273","8764","8319","10005","7787","7237","10697","9145","10697",""
"MA200-0416","27599","81","1","1.10","1.4","2023-05-24T14:40:00","120","2023/05/24","14:40:00","-15.789803266525269","35.086140148341656","0.1","16","30","64","62","-22366","-10391","3654","8","150","150.58","115.13","35.44","36.07","36.8","18.98","88604","36.19","DUALSPOT-UV-BLUE-GREEN-RED-IR","772783","716637","910413","10.275537","2.829395","-0.002651","757233","900979","763540","6.506020","1.629692","-0.017060","857290","907494","814562","5.134112","1.174098","-0.049414","852672","928538","863678","3.881533","0.777269","-0.069343","731037","859005","953189","2.892738","0.698835","0.000000","9471","9289","9220","9531","8818","8579","9034","7624","7206","8956","7437","7057","9530","8351","9530",""
"MA200-0416","27600","81","1","1.10","1.4","2023-05-24T14:40:30","120","2023/05/24","14:40:30","-15.789784133434296","35.08625031262636","0.9","16","30","64","62","-24308","-7484","596","8","150","149.49","115.26","34.23","36.15","36.9","19.10","88588","36.25","DUALSPOT-UV-BLUE-GREEN-RED-IR","765219","711157","904237","10.527374","2.900322","-0.007296","756727","901574","764354","6.665035","1.669759","-0.038031","857005","908278","815524","5.265237","1.205539","-0.063239","854481","931405","866577","3.988894","0.800580","-0.127087","731381","859995","954542","2.974750","0.717805","0.000000","12833","12170","11918","10227","8677","8159","9445","7626","7085","9345","6832","6201","9940","7742","9940",""
"MA200-0416","27601","81","1","1.10","1.4","2023-05-24T14:41:01","120","2023/05/24","14:41:01","-15.789621949195862","35.086463652551174","1.7","16","30","64","62","-22200","-6208","5676","8","150","150.24","115.18","35.06","36.24","37.0","19.24","88572","36.38","DUALSPOT-UV-BLUE-GREEN-RED-IR","766005","712749","906684","10.757130","2.964395","-0.012148","752066","896794","760507","6.809392","1.703996","-0.061288","856907","908845","816204","5.385554","1.231801","-0.107541","847758","924651","860403","4.087889","0.819284","-0.220691","731529","860573","955249","3.049480","0.733815","-0.209635","11716","10735","10362","9291","7239","6555","8672","6219","5491","8622","5352","4533","9063","6379","5528",""
"MA200-0416","27602","81","1","1.10","1.4","2023-05-24T14:41:31","120","2023/05/24","14:41:31","-15.789792776107788","35.08689680695534","2.1","16","30","64","61","-22964","-4440","9504","8","150","149.94","114.67","35.27","36.29","37.0","19.30","88548","36.44","DUALSPOT-UV-BLUE-GREEN-RED-IR","765483","712715","906916","10.855436","2.994426","-0.000869","751512","896604","760488","6.878941","1.721841","-0.041265","857044","909341","816784","5.445111","1.245396","-0.092198","848661","925940","861676","4.132963","0.828648","-0.165327","727327","855831","950089","3.085554","0.742483","-0.131140","5035","5001","4988","4496","3751","3502","4312","3200","2870","3943","2663","2342","4394","3433","3128",""
"MA200-0416","27603","81","1","1.10","1.4","2023-05-24T14:42:01","120","2023/05/24","14:42:01","-15.789462208747864","35.08711864799261","1.0","16","30","64","61","-22596","-8640","452","8","150","149.89","115.13","34.75","36.39","37.1","19.41","88536","36.56","DUALSPOT-UV-BLUE-GREEN-RED-IR","763455","711319","905347","10.947111","3.019983","-0.010782","756022","902431","765534","6.946462","1.737320","-0.067995","856157","908809","816357","5.498546","1.255481","-0.171698","845488","922847","858833","4.174800","0.833505","-0.796756","729748","858896","953571","3.118522","0.749934","-0.158526","4676","4319","4183","4347","3301","2952","3853","2409","1982","3645","1402","842","4000","2995","2676",""
"MA200-0416","27604","81","1","1.10","1.4","2023-05-24T14:42:30","120","2023/05/24","14:42:30","-15.789408385753632","35.0873164832592","0.6","16","30","64","61","-22895","-9391","-3358","8","150","150.08","115.09","34.99","36.48","37.2","19.53","88512","36.69","DUALSPOT-UV-BLUE-GREEN-RED-IR","766262","714375","909463","11.035307","3.047115","0.001458","752386","898506","762352","7.010103","1.753414","-0.041257","853872","906759","814620","5.551022","1.266193","-0.133545","849482","927511","863253","4.215868","0.840938","-0.242507","731163","860840","955789","3.153434","0.757462","-0.196574","4501","4554","4574","4099","3409","3179","3785","2541","2174","3580","2131","1770","4237","3005","2616",""
"MA200-0416","27605","81","1","1.10","1.4","2023-05-24T14:43:00","120","2023/05/24","14:43:00","-15.789506614208221","35.08743381500244","0.9","16","30","64","61","-21854","-4283","5354","8","150","149.80","114.84","34.96","36.57","37.3","19.64","88480","36.81","DUALSPOT-UV-BLUE-GREEN-RED-IR","762344","711234","905764","11.136986","3.075605","-0.011110","755139","902303","765691","7.078149","1.768625","-0.077520","855517","908909","816666","5.606669","1.278107","-0.111376","852516","931159","866710","4.259073","0.847847","-0.341920","728048","857369","952010","3.190063","0.766848","-0.082560","5200","4786","4628","4392","3225","2836","4023","2829","2476","3774","1982","1536","4455","3750","3526",""
"MA200-0416","27606","81","1","1.10","1.4","2023-05-24T14:43:30","120","2023/05/24","14:43:30","-15.78976184129715","35.08739197999239","1.1","16","30","64","61","-24076","-7900","2416","8","150","149.54","114.69","34.86","36.67","37.2","19.67","88460","36.94","DUALSPOT-UV-BLUE-GREEN-RED-IR","762925","712270","907349","11.233299","3.103935","-0.004149","749915","896479","760877","7.143652","1.785059","-0.042454","852108","905664","813812","5.660904","1.288819","-0.146528","846725","925124","861150","4.301145","0.853277","-0.591154","728724","858439","953290","3.225654","0.774168","-0.229487","4932","4773","4712","4234","3495","3248","3926","2551","2146","3680","1562","1038","4335","2933","2491",""
"MA200-0416","27607","81","1","1.10","1.4","2023-05-24T14:44:00","120","2023/05/24","14:44:00","-15.790038049221039","35.08748982101679","1.1","16","30","64","61","-24316","-8416","-156","8","150","149.34","115.04","34.29","36.76","36.8","19.62","88436","37.06","DUALSPOT-UV-BLUE-GREEN-RED-IR","759264","709349","903869","11.331425","3.132654","-0.002273","752999","900619","764504","7.209271","1.801479","-0.037767","854500","908601","816578","5.716723","1.302271","-0.057695","851498","930670","866376","4.343695","0.861066","-0.213553","726704","856287","950970","3.262193","0.783502","-0.071113","5009","4918","4884","4228","3549","3323","4028","3256","3029","3710","2279","1925","4436","3802","3601",""
"MA200-0416","27608","81","1","1.10","1.4","2023-05-24T14:44:30","120","2023/05/24","14:44:30","-15.790278613567352","35.08739998936653","1.2","16","30","64","61","-24116","-7732","1643","8","150","149.61","115.03","34.58","36.86","36.6","19.58","88412","37.13","DUALSPOT-UV-BLUE-GREEN-RED-IR","761785","712192","907735","11.431290","3.161850","-0.003443","749534","896926","761496","7.277391","1.818090","-0.046199","851338","905628","813969","5.767977","1.311784","-0.170036","845320","924289","860493","4.385791","0.867188","-0.411441","727029","856898","951724","3.296142","0.790505","-0.213232","5099","4959","4906","4390","3561","3285","3699","2284","1867","3671","1776","1309","4122","2829","2421",""
"MA200-0416","27609","81","1","1.10","1.4","2023-05-24T14:45:00","120","2023/05/24","14:45:00","-15.790485799312592","35.08723697811365","1.2","16","30","64","61","-21356","-2360","6364","8","150","150.49","114.96","35.53","36.96","36.3","19.54","88388","37.19","DUALSPOT-UV-BLUE-GREEN-RED-IR","762908","713633","909812","11.513727","3.187650","0.001475","750141","898025","762508","7.330374","1.830072","-0.075975","852409","907080","815327","5.812752","1.320188","-0.177804","846535","925885","862000","4.419553","0.871373","-0.665200","727560","857772","952738","3.326904","0.796873","-0.230840","4212","4264","4284","3416","2499","2194","3233","1963","1590","2946","1181","747","3738","2503","2114",""
"MA200-0416","27610","81","1","1.10","1.4","2023-05-24T14:45:31","120","2023/05/24","14:45:31","-15.790598809719086","35.08699881285429","1.1","16","30","64","61","-22095","-9712","229","8","150","150.61","115.28","35.33","37.04","35.9","19.45","88380","37.25","DUALSPOT-UV-BLUE-GREEN-RED-IR","756210","707782","902532","11.594103","3.208902","-0.020225","750569","898912","763371","7.389944","1.845569","-0.034169","852422","907454","815733","5.860311","1.330304","-0.111852","848722","928590","864559","4.457904","0.876260","-0.597801","728327","858856","954054","3.360077","0.804871","-0.116060","4095","3532","3317","3830","3251","3058","3425","2376","2068","3337","1387","910","4019","3162","2892",""
"MA200-0416","27611","81","1","1.10","1.4","2023-05-24T14:46:01","120","2023/05/24","14:46:01","-15.790594458580017","35.08681131899357","0.7","16","30","64","61","-23540","-10620","-1396","8","150","149.76","115.20","34.57","37.13","35.7","19.42","0","0.00","DUALSPOT-UV-BLUE-GREEN-RED-IR","756329","708412","903573","11.687111","3.236400","-0.001784","750424","899249","763811","7.455858","1.860231","-0.070575","851934","907337","815754","5.917436","1.341926","-0.120601","848290","928478","864512","4.500861","0.883437","-0.273270","727734","858392","953596","3.397014","0.813109","-0.150052","4742","4672","4645","4241","3144","2779","4117","2791","2402","3741","2082","1677","4479","3329","2967",""
"MA200-0416","27612","81","1","1.10","1.4","2023-05-24T14:46:30","120","2023/05/24","14:46:30","-15.79038518667221","35.08666864782572","1.0","16","30","64","61","-23004","-10852","172","8","150","149.80","115.46","34.34","37.20","35.5","19.39","0","0.00","DUALSPOT-UV-BLUE-GREEN-RED-IR","756052","708736","904332","11.804111","3.271301","0.000351","750302","899632","764298","7.537089","1.881588","-0.024251","848120","903705","812616","5.982465","1.357603","-0.054244","848603","929179","865265","4.552247","0.892627","-0.216013","727613","858545","953857","3.438251","0.823054","-0.096224","5951","5969","5976","5215","4610","4409","4675","3790","3530","4465","2685","2251","4989","4045","3748",""
"MA200-0416","27613","81","1","1.10","1.4","2023-05-24T14:47:00","120","2023/05/24","14:47:00","-15.790166318416595","35.08665531128645","0.5","16","30","64","61","-22756","-9740","2440","8","150","149.91","115.18","34.73","37.27","35.4","19.42","88504","37.38","DUALSPOT-UV-BLUE-GREEN-RED-IR","755581","709374","905761","12.021837","3.336832","-0.000193","750392","900638","765387","7.670577","1.915937","-0.031630","851412","907971","816685","6.087578","1.381307","-0.079432","848164","929262","865460","4.630331","0.907237","-0.192972","727171","858403","953827","3.494508","0.835543","-0.151710","11102","11083","11076","8591","7332","6913","7576","5667","5106","6801","4220","3591","6822","5024","4458",""
"MA200-0416","27614","81","1","1.10","1.4","2023-05-24T14:47:30","120","2023/05/24","14:47:30","-15.79004418849945","35.08646782487631","0.8","16","30","64","61","-23658","-11395","-704","8","150","149.63","115.00","34.64","37.33","35.0","19.28","88548","37.44","DUALSPOT-UV-BLUE-GREEN-RED-IR","754850","709082","905651","12.117002","3.370796","0.016835","749692","900110","765103","7.731737","1.938497","0.029842","848028","904639","813792","6.136310","1.398860","0.032987","842469","923250","859967","4.668288","0.919009","0.007650","728268","859870","955552","3.528600","0.844472","-0.058620","4860","5759","6106","3942","4828","5125","3518","4207","4411","3311","3410","3434","4141","3601","3431",""
"MA200-0416","27615","81","1","1.10","1.4","2023-05-24T14:48:00","120","2023/05/24","14:48:00","-15.789934992790222","35.08618698269129","1.0","16","30","64","60","-23620","-11032","-1156","8","150","149.51","115.08","34.43","37.38","34.5","19.10","88588","37.44","DUALSPOT-UV-BLUE-GREEN-RED-IR","752852","707561","903931","12.194630","3.396787","0.011620","748212","898623","763986","7.781261","1.953060","-0.003017","849734","906681","815692","6.175464","1.408951","-0.035442","847163","928615","864990","4.697204","0.924922","-0.138507","725987","857334","952804","3.553896","0.852183","0.006796","3962","4434","4616","3190","3135","3117","2824","2433","2317","2520","1722","1527","3070","3128","3146",""
"MA200-0416","27616","81","1","1.10","1.4","2023-05-24T14:48:30","120","2023/05/24","14:48:30","-15.790112495422363","35.08600499480963","0.7","16","30","64","61","-23792","-10788","-1116","8","150","150.08","115.29","34.78","37.44","34.0","18.92","88588","37.44","DUALSPOT-UV-BLUE-GREEN-RED-IR","754900","709848","907094","12.273973","3.422800","0.008747","749918","900998","766088","7.830945","1.968145","0.001091","850174","907414","816446","6.213791","1.418625","-0.043194","848589","930388","866699","4.726286","0.930846","-0.143625","726347","857956","953520","3.581619","0.858463","-0.136071","4042","4392","4528","3194","3215","3222","2759","2309","2175","2530","1708","1507","3359","2522","2258",""
"MA200-0416","27617","81","1","1.10","1.4","2023-05-24T14:49:00","120","2023/05/24","14:49:00","-15.790171205997467","35.085618644952774","2.5","16","30","64","61","-23552","-9608","-496","8","150","150.11","115.37","34.74","37.49","33.6","18.78","88608","37.44","DUALSPOT-UV-BLUE-GREEN-RED-IR","754593","709855","907279","12.335810","3.441251","-0.001028","743882","893992","760228","7.870991","1.977415","-0.056781","850404","907917","816932","6.246227","1.425378","-0.106665","848644","930675","866999","4.750822","0.933719","-0.668885","726458","858205","953872","3.604030","0.863789","-0.106389","3148","3119","3108","2573","1978","1778","2334","1613","1400","2133","829","510","2713","2141","1961",""
"MA200-0416","27618","81","1","1.10","1.4","2023-05-24T14:49:31","120","2023/05/24","14:49:31","-15.790505349636078","35.08530264347792","1.1","15","30","64","61","-24108","-9880","1843","8","150","149.37","115.14","34.23","37.55","33.4","18.75","88616","37.50","DUALSPOT-UV-BLUE-GREEN-RED-IR","754276","710121","907858","12.439713","3.468998","-0.013200","742585","892864","759353","7.932286","1.990867","-0.067710","850289","908169","817233","6.292868","1.433634","-0.174874","842446","924158","860961","4.783514","0.937438","-0.691051","727054","859104","954938","3.632383","0.870321","-0.115733","5300","4761","4552","3946","2913","2567","3362","2002","1601","2848","1090","661","3439","2665","2421",""
"MA200-0416","27619","81","1","1.10","1.4","2023-05-24T14:50:00","120","2023/05/24","14:50:00","-15.790700316429138","35.08493630588055","3.2","15","30","64","61","-22992","-8936","1360","8","150","149.83","115.71","34.12","37.59","33.4","18.79","0","0.00","DUALSPOT-UV-BLUE-GREEN-RED-IR","753432","709643","907423","12.506779","3.488416","-0.002045","743080","893786","760179","7.976776","1.999748","-0.094990","849590","907660","816809","6.329722","1.439857","-0.195579","841384","923200","860095","4.810635","0.941378","-0.355128","725726","857696","953440","3.656557","0.875753","-0.124476","3404","3343","3319","2850","1929","1621","2644","1514","1181","2351","1158","868","2918","2224","2005",""
"MA200-0416","27620","81","1","1.10","1.4","2023-05-24T14:50:31","120","2023/05/24","14:50:31","-15.790167450904846","35.08848865330219","17.2","15","30","64","61","-22160","-8628","1672","8","150","149.49","115.11","34.38","37.63","33.3","18.76","0","0.00","DUALSPOT-UV-BLUE-GREEN-RED-IR","753262","709947","908090","12.581184","3.512670","0.008935","742386","893431","760028","8.028949","2.013279","-0.026571","849263","907686","816975","6.371099","1.451659","-0.009742","841432","923541","860492","4.842773","0.947493","-0.169794","725396","857555","953362","3.684610","0.882154","-0.122175","3796","4143","4277","3360","2917","2769","2984","2849","2810","2801","1784","1537","3404","2600","2347",""
"MA200-0416","27621","81","1","1.10","1.4","2023-05-24T14:51:00","120","2023/05/24","14:51:00","-15.788985908031464","35.08815814554691","2.0","15","30","64","61","-22861","-3653","5300","8","150","150.35","115.21","35.14","37.66","33.1","18.71","88572","37.50","DUALSPOT-UV-BLUE-GREEN-RED-IR","752600","709950","908428","12.724054","3.555524","-0.001857","742853","894545","761164","8.131530","2.041143","-0.021051","845094","903719","813577","6.458503","1.472216","-0.065260","841871","924475","861469","4.913399","0.962347","-0.128024","725596","858087","954029","3.740564","0.896348","-0.076041","7283","7162","7115","6600","5878","5635","6298","4856","4430","6150","4240","3775","6784","5642","5282",""
"MA200-0416","27622","81","1","1.10","1.4","2023-05-24T14:51:30","120","2023/05/24","14:51:30","-15.791227519512177","35.085445649921894","1.1","15","30","64","60","-24540","-4952","5264","8","150","149.70","114.88","34.82","37.71","33.0","18.69","88532","37.50","DUALSPOT-UV-BLUE-GREEN-RED-IR","752521","710282","909067","12.800497","3.577505","-0.005998","743046","895127","761778","8.184405","2.054090","-0.042170","845433","904399","814219","6.499970","1.480376","-0.128068","842143","925096","862062","4.945302","0.966150","-0.620030","725423","858063","954110","3.767055","0.901968","-0.173012","3908","3707","3629","3412","2756","2536","2996","1945","1635","2786","1095","685","3221","2254","1950",""
"MA200-0416","27623","81","1","1.10","1.4","2023-05-24T14:52:00","120","2023/05/24","14:52:00","-15.791306376457214","35.085740976035595","0.9","15","30","64","61","-22188","-6536","5080","8","150","150.30","115.37","34.93","37.74","33.1","18.75","88504","37.56","DUALSPOT-UV-BLUE-GREEN-RED-IR","753570","711631","910996","12.878204","3.599126","-0.009830","743798","896417","762930","8.235512","2.063364","-0.139483","846005","905335","815132","6.543195","1.488339","-0.157037","843440","926730","863620","4.977936","0.971180","-0.313938","726128","859074","955261","3.794746","0.909564","-0.037153","3956","3635","3511","3283","1968","1528","3110","1892","1534","2837","1444","1107","3352","3037","2938",""
"MA200-0416","27624","81","1","1.10","1.4","2023-05-24T14:52:31","120","2023/05/24","14:52:31","-15.791410028934479","35.08594914525747","0.8","15","30","64","60","-21816","-5295","6041","8","150","149.66","115.25","34.41","37.79","33.1","18.82","88456","37.63","DUALSPOT-UV-BLUE-GREEN-RED-IR","746596","705379","903176","12.942884","3.618969","0.002848","742801","895476","762211","8.278253","2.074623","-0.022495","845765","905265","815130","6.577814","1.495831","-0.084059","843279","926752","863680","5.003705","0.974185","-0.622210","725665","858671","954862","3.815727","0.913991","-0.164478","3296","3387","3422","2749","2425","2317","2493","1807","1605","2243","875","545","2543","1797","1562",""
"MA200-0416","27625","81","1","1.10","1.4","2023-05-24T14:53:01","120","2023/05/24","14:53:01","-15.79153436422348","35.085734486579895","2.4","15","30","64","60","-24244","-10412","-848","8","150","149.93","115.28","34.65","37.84","33.1","18.82","88460","37.69","DUALSPOT-UV-BLUE-GREEN-RED-IR","750767","709583","908739","13.004301","3.638610","0.006276","740525","893022","760199","8.317268","2.083927","-0.045761","848119","908050","817699","6.608021","1.502424","-0.083110","840164","923491","860703","5.026514","0.978368","-0.186504","723714","856488","952509","3.836717","0.919849","-0.027036","3129","3329","3407","2508","1990","1817","2175","1579","1404","1985","1211","1024","2543","2361","2304",""
"MA200-0416","27626","81","1","1.10","1.4","2023-05-24T14:53:31","120","2023/05/24","14:53:31","-15.790297210216522","35.08391048014164","11.6","15","30","64","60","-22404","-5556","3512","8","150","150.43","115.51","34.91","37.90","33.2","18.92","88460","37.75","DUALSPOT-UV-BLUE-GREEN-RED-IR","745639","705079","903135","13.067442","3.656015","-0.010646","742787","896006","762827","8.358001","2.093988","-0.038567","845208","905171","815143","6.638385","1.507091","-0.262873","841419","925070","862187","5.048828","0.980628","-0.935568","724516","857574","953723","3.855733","0.923495","-0.240156","3210","2928","2818","2614","2136","1976","2182","1109","794","1938","649","338","2299","1458","1194",""
"MA200-0416","27627","81","1","1.10","1.4","2023-05-24T14:54:00","120","2023/05/24","14:54:00","-15.789912819862366","35.083835646510124","0.7","15","30","64","60","-23588","-9136","560","8","150","150.11","115.03","35.08","37.95","33.2","18.97","88440","37.88","DUALSPOT-UV-BLUE-GREEN-RED-IR","746941","706741","905455","13.152744","3.681945","-0.000349","743562","897311","764002","8.409539","2.105922","-0.056263","846316","906632","816539","6.678117","1.516395","-0.064304","843305","927338","864331","5.077267","0.984538","-0.421058","725979","859472","955882","3.878238","0.927580","-0.293109","4355","4341","4335","3321","2521","2254","2867","2201","2006","2480","1118","790","2733","1626","1279",""
"MA200-0416","27628","81","1","1.10","1.4","2023-05-24T14:54:31","120","2023/05/24","14:54:31","-15.790042459964752","35.08445582538843","2.0","15","30","64","60","-22404","-11268","-3040","8","150","150.68","115.75","34.93","38.01","32.8","18.84","88452","37.94","DUALSPOT-UV-BLUE-GREEN-RED-IR","747738","707746","906948","13.209099","3.700735","0.009630","744273","898354","764971","8.444047","2.118164","0.022486","842849","903064","813376","6.703741","1.522975","-0.035620","844230","928513","865448","5.097404","0.989133","-0.085064","725844","859422","955894","3.897531","0.932259","-0.089239","2859","3159","3276","2210","2598","2728","1837","1564","1483","1745","1319","1217","2328","1871","1727",""
"MA200-0416","27629","81","1","1.10","1.4","2023-05-24T14:55:01","120","2023/05/24","14:55:01","-15.79167091846466","35.084667325019836","0.8","15","30","64","60","-24016","-8828","1256","8","150","150.30","114.69","35.61","38.06","32.6","18.77","88460","37.94","DUALSPOT-UV-BLUE-GREEN-RED-IR","748393","708641","908259","13.260668","3.717430","0.004207","743995","898321","765039","8.477980","2.125454","-0.082406","846501","907211","817171","6.730366","1.527869","-0.166240","845494","930087","866956","5.115859","0.989753","2.043660","725923","859607","956102","3.913370","0.935800","-0.148844","2641","2753","2797","2193","1517","1291","1927","1140","909","1614","174","-170","1929","1388","1219",""
"MA200-0416","27630","81","1","1.10","1.4","2023-05-24T14:55:30","120","2023/05/24","14:55:30","-15.791183054447174","35.08505015075207","5.1","15","30","64","60","-22376","-9492","980","8","150","150.29","115.31","34.98","38.10","32.3","18.69","88444","38.00","DUALSPOT-UV-BLUE-GREEN-RED-IR","748424","708994","908857","13.331120","3.737674","-0.005923","739069","892653","760266","8.525202","2.138185","-0.020437","842993","903692","814052","6.770951","1.537990","-0.044138","839148","923311","860658","5.146200","0.996196","-0.115035","721835","854933","950955","3.937509","0.942402","-0.037697","3588","3399","3325","3035","2698","2585","2921","2402","2249","2639","1848","1658","2924","2636","2546",""
"MA200-0416","27631","81","1","1.10","1.4","2023-05-24T14:56:00","120","2023/05/24","14:56:00","-15.791337192058563","35.0849681571126","1.4","15","30","64","60","-23108","-10436","-472","8","150","153.40","114.00","39.40","38.15","32.2","18.69","88452","38.00","DUALSPOT-UV-BLUE-GREEN-RED-IR","746098","707090","906600","13.389574","3.756487","-0.007894","737263","890693","758684","8.565270","2.148479","-0.060824","845159","906283","816432","6.801159","1.543390","-0.244512","836878","921019","858560","5.169972","0.999242","-0.685949","720435","853409","949328","3.956728","0.946859","-0.192627","3011","2804","2723","2605","1936","1713","2199","1137","826","2091","775","460","2354","1580","1336",""
"MA200-0416","27632","81","1","1.10","1.4","2023-05-24T14:56:30","120","2023/05/24","14:56:30","-15.791738390922546","35.08404999226332","3.7","15","30","64","60","-23462","-8741","-212","8","150","150.01","114.79","35.21","38.19","32.1","18.65","88468","38.00","DUALSPOT-UV-BLUE-GREEN-RED-IR","748115","709336","909693","13.456963","3.777843","0.003275","739183","893269","760983","8.601550","2.156705","-0.062072","842644","903772","814229","6.830752","1.550357","-0.062953","839029","923526","860927","5.190739","1.002014","-0.449550","721356","854607","950690","3.973936","0.951062","-0.092081","3448","3562","3607","2342","1731","1527","2140","1642","1496","1815","789","544","2094","1667","1533",""
"MA200-0416","27633","81","1","1.10","1.4","2023-05-24T14:57:00","120","2023/05/24","14:57:00","-15.794979333877563","35.085062988102436","12.7","15","30","64","60","-24095","-9854","-712","8","150","149.87","114.96","34.91","38.24","32.0","18.63","88480","38.06","DUALSPOT-UV-BLUE-GREEN-RED-IR","747360","709071","909624","13.553520","3.808313","0.003819","739281","893760","761485","8.654663","2.170885","-0.022214","842387","903763","814285","6.868846","1.558100","-0.108752","838907","923593","861053","5.218044","1.006723","-0.220801","721269","854639","950775","3.995536","0.955782","-0.145979","4933","5126","5202","3425","3011","2872","2751","1841","1574","2382","1353","1107","2624","1889","1657",""
"MA200-0416","27634","81","1","1.10","1.4","2023-05-24T14:57:30","120","2023/05/24","14:57:30","-15.799539506435394","35.085800655186176","15.4","15","30","64","60","-22852","-9472","-1408","8","150","149.63","115.43","34.20","38.28","31.8","18.56","88496","38.06","DUALSPOT-UV-BLUE-GREEN-RED-IR","747564","709554","910438","13.621597","3.831501","0.012657","739567","894318","762062","8.693383","2.182216","-0.001896","842506","904037","814626","6.897426","1.566331","-0.005421","838698","923525","860997","5.239568","1.009786","-0.344617","721328","854836","951036","4.013513","0.959243","-0.212348","3463","3982","4185","2486","2456","2446","2055","1998","1981","1870","898","666","2175","1413","1174",""
"MA200-0416","27635","81","1","1.10","1.4","2023-05-24T14:58:00","120","2023/05/24","14:58:00","-15.803567826747894","35.08409832417965","13.6","15","30","64","60","-23833","-11900","-50","8","150","150.13","115.82","34.30","38.31","31.5","18.44","88512","38.06","DUALSPOT-UV-BLUE-GREEN-RED-IR","747213","709529","910582","13.678408","3.849947","0.008644","738784","893626","761568","8.731676","2.193493","-0.000876","845220","907200","817541","6.928802","1.574670","-0.022094","838418","923397","860917","5.262015","1.015193","-0.057235","720544","854016","950154","4.031559","0.964192","-0.026739","2880","3158","3267","2450","2436","2432","2249","2018","1950","1944","1581","1494","2176","2015","1964",""
"MA200-0416","27636","81","1","1.10","1.4","2023-05-24T14:58:30","120","2023/05/24","14:58:30","0","0","0.0","15","30","64","60","-25248","-8372","3664","8","150","149.43","115.37","34.06","38.34","31.3","18.36","88512","38.06","DUALSPOT-UV-BLUE-GREEN-RED-IR","739623","702590","901810","13.736046","3.867803","0.004689","738328","893314","761336","8.769873","2.203626","-0.017856","842150","904100","814791","6.958688","1.581197","-0.072945","840122","925458","862881","5.285079","1.018637","-0.298378","721330","855051","951355","4.049085","0.968462","-0.073561","2934","3079","3136","2454","2205","2122","2150","1591","1426","2005","1014","778","2122","1751","1635",""
"MA200-0416","27637","81","1","1.10","1.4","2023-05-24T14:59:00","120","2023/05/24","14:59:00","-15.79296725988388","35.08410481363535","0.8","15","30","64","60","-23996","-9328","-1092","8","150","149.92","115.45","34.47","38.37","31.0","18.24","88516","38.06","DUALSPOT-UV-BLUE-GREEN-RED-IR","740789","708173","911550","14.307755","4.043872","0.002925","734180","893047","762830","9.242774","2.344024","-0.000843","836403","902078","814480","7.356584","1.697039","-0.004573","834537","922848","861747","5.607183","1.108926","-0.014752","717862","853369","950533","4.291778","1.035730","-0.024357","29086","29998","30357","30366","30191","30131","28614","27897","27683","27991","26276","25853","29366","27257","26587",""
"MA200-0416","27638","81","1","1.10","1.4","2023-05-24T14:59:30","120","2023/05/24","14:59:30","-15.793179392814636","35.084054321050644","0.8","15","30","64","59","-23040","-9404","96","8","150","150.03","114.92","35.11","38.40","30.8","18.20","88504","38.06","DUALSPOT-UV-BLUE-GREEN-RED-IR","728589","698755","900635","15.087345","4.277731","-0.001728","730024","890218","761198","9.865714","2.525545","-0.006726","832703","900059","813392","7.899852","1.852398","-0.011555","829834","919265","858976","6.057406","1.234746","-0.019822","719294","856194","954149","4.618707","1.125532","-0.033364","39846","39120","38833","40185","38325","37685","39248","36735","35965","39306","35951","35092","39742","35728","34435",""
"MA200-0416","27639","81","1","1.10","1.4","2023-05-24T15:00:00","120","2023/05/24","15:00:00","-15.793405711650848","35.08398547768593","0.8","15","30","64","60","-23316","-9891","-570","8","150","150.28","115.34","34.95","38.43","30.7","18.14","88508","38.06","DUALSPOT-UV-BLUE-GREEN-RED-IR","735759","706191","910545","15.213745","4.316253","0.000528","730361","891230","762240","9.956490","2.551378","-0.008944","836496","904640","817652","7.975471","1.871835","-0.031009","830858","920794","860498","6.115573","1.249177","-0.048244","719664","856913","955056","4.661157","1.137860","-0.012484","6437","6474","6489","5834","5479","5357","5443","4617","4364","5059","4142","3907","5141","4927","4858",""
"MA200-0416","27640","81","1","1.10","1.4","2023-05-24T15:00:31","120","2023/05/24","15:00:31","-15.793655812740326","35.0839586481452","1.0","15","30","64","60","-22869","-10076","-723","8","150","150.49","115.37","35.12","38.45","30.7","18.15","88504","38.06","DUALSPOT-UV-BLUE-GREEN-RED-IR","729105","703679","909677","16.020472","4.572534","0.003584","724345","887951","760989","10.624444","2.756317","0.000986","830833","902184","816893","8.557553","2.047091","-0.001712","826785","919461","860498","6.599948","1.391173","-0.007461","716820","855732","954729","5.023723","1.241226","-0.018337","41071","42859","43573","42920","43257","43375","41888","41427","41283","42122","40562","40145","43901","41113","40198",""
"MA200-0416","27641","81","1","1.10","1.4","2023-05-24T15:01:00","120","2023/05/24","15:01:00","-15.79377943277359","35.08392581343651","0.4","15","30","64","60","-23320","-7652","2936","8","150","150.68","115.22","35.46","38.47","30.6","18.13","88524","38.00","DUALSPOT-UV-BLUE-GREEN-RED-IR","725655","702341","909147","16.434155","4.704443","0.002925","722017","887225","761189","10.964676","2.859533","-0.001799","827851","900843","816384","8.849646","2.132451","-0.008051","830691","925437","866679","6.843975","1.459909","-0.017653","714646","854269","953573","5.204218","1.291204","-0.029585","21088","21848","22153","21890","21577","21467","21047","19984","19647","21248","19446","18958","21883","19688","18963",""
"MA200-0416","27642","81","1","1.10","1.4","2023-05-24T15:01:31","120","2023/05/24","15:01:31","-15.793983280658722","35.08384898304939","0.8","15","30","64","59","-23148","-11008","-752","8","150","149.76","115.24","34.53","38.48","30.5","18.08","88528","38.00","DUALSPOT-UV-BLUE-GREEN-RED-IR","723752","701085","907868","16.568644","4.747242","0.004830","720736","886155","760463","11.062957","2.889866","0.003529","827021","900391","816134","8.934022","2.159225","0.008082","829323","924272","865732","6.909036","1.477176","-0.024611","714131","853925","953296","5.251865","1.303673","-0.038564","6854","7280","7451","6322","6512","6579","6079","6437","6552","5664","5017","4841","5776","5044","4803",""
"MA200-0416","27643","81","1","1.10","1.4","2023-05-24T15:02:00","120","2023/05/24","15:02:00","-15.794107437133789","35.083754152059555","0.3","15","30","64","59","-23140","-8200","-2564","8","150","149.57","115.20","34.37","38.49","30.3","17.99","88548","38.00","DUALSPOT-UV-BLUE-GREEN-RED-IR","722386","700165","906873","16.652109","4.772253","0.000363","724917","891729","765348","11.123296","2.905006","-0.024661","825981","899575","815472","8.981420","2.169530","-0.062000","828594","923717","865303","6.944445","1.485270","-0.060974","713642","853479","952839","5.276834","1.310168","-0.038978","4255","4274","4281","3883","3265","3047","3416","2489","2194","3083","2362","2166","3027","2639","2511",""
"MA200-0416","27644","81","1","1.10","1.4","2023-05-24T15:02:31","120","2023/05/24","15:02:31","-15.794110834598541","35.08370915055275","0.1","15","30","64","60","-20264","5660","10976","8","150","149.70","115.31","34.38","38.51","30.2","17.96","88556","37.94","DUALSPOT-UV-BLUE-GREEN-RED-IR","721201","699479","906295","16.731958","4.796928","0.002903","723321","890243","764220","11.178495","2.919859","-0.013606","825280","899187","815278","9.027756","2.182203","-0.013574","827778","923149","864845","6.979642","1.492518","-0.092960","712746","852629","952012","5.303671","1.316118","-0.097584","4067","4215","4274","3548","3202","3080","3336","3059","2971","3062","2114","1857","3251","2417","2142",""
