"Serial number","Datum ID","Session ID","Data format version","Firmware version","App version","Date / time local","Timezone offset (mins)","Date local (yyyy/MM/dd)","Time local (hh:mm:ss)","GPS lat (ddmm.mmmmm)","GPS long (dddmm.mmmmm)","GPS speed (km/h)","GPS sat count","Timebase (s)","Status","Battery remaining (%)","Accel X","Accel Y","Accel Z","Tape position","Flow setpoint (mL/min)","Flow total (mL/min)","Flow1 (mL/min)","Flow2 (mL/min)","Sample temp (C)","Sample RH (%)","Sample dewpoint (C)","Internal pressure (Pa)","Internal temp (C)","Optical config","UV Sen1","UV Sen2","UV Ref","UV ATN1","UV ATN2","UV K","Blue Sen1","Blue Sen2","Blue Ref","Blue ATN1","Blue ATN2","Blue K","Green Sen1","Green Sen2","Green Ref","Green ATN1","Green ATN2","Green K","Red Sen1","Red Sen2","Red Ref","Red ATN1","Red ATN2","Red K","IR Sen1","IR Sen2","IR Ref","IR ATN1","IR ATN2","IR K","UV BC1","UV BC2","UV BCc","Blue BC1","Blue BC2","Blue BCc","Green BC1","Green BC2","Green BCc","Red BC1","Red BC2","Red BCc","IR BC1","IR BC2","IR BCc","Readable status"
"MA200-0416","49060","109","1","1.10","1.6","2023-07-14T18:55:01","120","2023/07/14","18:55:01","-15.785005271434784","35.03707932680845","0.2","15","300","66","89","-2352","-1772","-26236","6","150","149.45","115.07","34.38","23.11","40.2","8.83","89940","21.81","DUALSPOT-UV-BLUE-GREEN-RED-IR","830658","721581","908713","0.000000","0.000000","0.000000","784497","893718","762475","0.000000","0.000000","0.000000","880118","899287","815925","0.000000","0.000000","0.000000","866419","917312","865249","0.000000","0.000000","0.000000","735618","850374","952912","0.000000","0.000000","0.000000","","","","","","","","","","","","","","","","Start up-DualSpot on"
"MA200-0416","49061","109","1","1.10","1.6","2023-07-14T19:00:01","120","2023/07/14","19:00:01","-15.784873843193054","35.03719015419483","0.3","14","300","64","88","-2412","-1756","-26180","6","150","149.70","115.51","34.18","22.72","41.2","8.85","89940","21.94","DUALSPOT-UV-BLUE-GREEN-RED-IR","813951","716487","907130","0.000000","0.000000","0.000000","779016","895340","766661","0.000000","0.000000","0.000000","870140","895493","815070","0.000000","0.000000","0.000000","856688","912110","862591","0.000000","0.000000","0.000000","732901","850301","954234","0.000000","0.000000","0.000000","","","","","","","","","","","","","","","","DualSpot on"
"MA200-0416","49062","109","1","1.10","1.6","2023-07-14T19:05:01","120","2023/07/14","19:05:01","-15.78504204750061","35.03723333030939","0.0","14","300","64","86","-2436","-1776","-26088","6","150","150.23","116.75","33.48","22.60","41.8","8.95","89944","22.06","DUALSPOT-UV-BLUE-GREEN-RED-IR","803859","715219","909572","1.517555","0.446098","0.000000","769033","889912","764210","0.972265","0.286620","0.000000","864532","894661","816196","0.784235","0.231188","0.000000","852714","911807","863949","0.619780","0.187873","0.000000","727519","846408","950877","0.388595","0.109058","0.000000","7634","7826","7634","6173","6346","6173","5577","5732","5577","5326","5629","5326","4649","4550","4649","DualSpot on"
"MA200-0416","49063","109","1","1.10","1.6","2023-07-14T19:10:01","120","2023/07/14","19:10:01","-15.784999310970306","35.03720982372761","0.2","14","300","64","85","-2488","-1664","-25980","6","150","149.84","115.56","34.29","22.56","42.2","9.07","0","0.00","DUALSPOT-UV-BLUE-GREEN-RED-IR","787572","709149","906459","3.217491","0.955915","0.004689","757708","883903","761542","2.101305","0.614231","0.000000","855992","891705","815697","1.711583","0.497144","0.000000","845527","908928","863035","1.358148","0.397056","0.000000","723886","845120","950665","0.868543","0.238804","0.000000","8640","8733","8772","7243","7083","7243","6662","6439","6662","6410","6120","6410","5801","5286","5801","DualSpot on"
"MA200-0416","49064","109","1","1.10","1.6","2023-07-14T19:15:01","120","2023/07/14","19:15:01","0","0","0.0","2","300","64","85","-2528","-1711","-25888","6","150","150.22","116.08","34.14","22.56","42.5","9.19","0","0.00","DUALSPOT-UV-BLUE-GREEN-RED-IR","775122","707500","909926","5.194113","1.567750","0.013469","749890","883373","764226","3.487927","1.024621","0.002561","847885","890604","817445","2.873248","0.833589","0.000000","839356","908442","864889","2.300093","0.664335","0.000000","720092","844628","951766","1.503202","0.410297","0.000000","10001","10526","10753","8855","8911","8935","8308","8182","8308","8141","7854","8141","7637","7017","7637","DualSpot on"
"MA200-0416","49065","109","1","1.10","1.6","2023-07-14T19:20:01","120","2023/07/14","19:20:01","0","0","0.0","2","300","64","85","-2504","-1564","-26100","6","150","150.20","116.41","33.79","22.58","42.6","9.24","89948","22.19","DUALSPOT-UV-BLUE-GREEN-RED-IR","756671","698954","903864","6.939695","2.116441","0.015343","741273","880622","764552","4.689406","1.380568","0.006039","835604","883971","813656","3.876185","1.121944","-0.003522","833797","907737","866202","3.118529","0.894576","-0.014524","716751","844166","952664","2.065282","0.560370","0.000000","8807","9537","9857","7651","7808","7874","7153","7084","7056","7053","6835","6748","6745","6203","6745","DualSpot on"
"MA200-0416","49066","109","1","1.10","1.6","2023-07-14T19:25:01","120","2023/07/14","19:25:01","0","0","0.0","0","300","64","84","-2548","-1452","-26156","6","150","149.84","116.28","33.56","22.56","42.6","9.21","89948","22.13","DUALSPOT-UV-BLUE-GREEN-RED-IR","752540","701500","911079","8.289989","2.552255","0.017606","734560","878153","764483","5.596828","1.655149","0.011496","833919","886869","818133","4.628378","1.342863","0.005230","828590","905940","865959","3.724800","1.067251","-0.005051","713880","843355","952809","2.480936","0.670918","0.000000","6820","7627","7986","5785","6065","6183","5370","5465","5503","5231","5162","5134","4993","4601","4993","DualSpot on"
"MA200-0416","49067","109","1","1.10","1.6","2023-07-14T19:30:01","120","2023/07/14","19:30:01","0","0","0.0","0","300","64","84","-2548","-1560","-26136","6","150","150.08","115.84","34.24","22.55","42.6","9.20","89948","22.19","DUALSPOT-UV-BLUE-GREEN-RED-IR","742797","697978","910024","9.474981","2.938753","0.013759","728548","875736","764247","6.386532","1.895523","0.006354","823902","880207","813525","5.276030","1.534694","0.000544","824312","904642","865986","4.246346","1.216751","-0.010429","711528","842743","952972","2.832603","0.763980","0.000000","6008","6630","6909","5053","5204","5267","4641","4651","4655","4517","4380","4325","4241","3796","4241","DualSpot on"
"MA200-0416","49068","109","1","1.10","1.6","2023-07-14T19:35:01","120","2023/07/14","19:35:01","0","0","0.0","0","300","64","83","-2576","-1648","-25996","6","150","149.98","116.15","33.84","22.52","42.6","9.18","89944","22.13","DUALSPOT-UV-BLUE-GREEN-RED-IR","732595","693823","908145","10.653730","3.328241","0.015329","721254","871798","762643","7.180517","2.139371","0.009983","821678","881906","816706","5.934894","1.729680","0.003685","817385","900443","863275","4.774240","1.367014","-0.006951","707424","840144","950995","3.199998","0.859723","-0.052666","5961","6761","7124","5067","5342","5459","4709","4784","4814","4559","4455","4413","4418","3952","3781","DualSpot on"
"MA200-0416","49069","109","1","1.10","1.6","2023-07-14T19:40:01","120","2023/07/14","19:40:01","0","0","0.0","0","300","64","83","-2564","-1564","-26019","6","150","150.28","116.34","33.95","22.49","42.7","9.19","0","0.00","DUALSPOT-UV-BLUE-GREEN-RED-IR","724721","691567","908632","11.785990","3.711341","0.016022","716473","870573","763380","7.945851","2.377450","0.010837","816854","880638","817067","6.568826","1.920224","0.006198","813854","899797","863960","5.288014","1.515931","-0.001801","709117","844334","956634","3.553838","0.955799","-0.029571","5716","6628","7047","4876","5198","5336","4524","4659","4716","4430","4400","4388","4248","3953","3844","DualSpot on"
"MA200-0416","49070","109","1","1.10","1.6","2023-07-14T19:45:01","120","2023/07/14","19:45:01","0","0","0.0","0","300","64","83","-2564","-1252","-26219","6","150","149.42","116.06","33.36","22.47","42.8","9.18","0","0.00","DUALSPOT-UV-BLUE-GREEN-RED-IR","716971","688520","907738","12.768084","4.052465","0.018325","711140","867971","762698","8.603902","2.588503","0.016525","811932","878585","816574","7.111821","2.088398","0.013915","809512","897729","863108","5.724280","1.646090","0.008851","702861","838706","951006","3.853792","1.037488","-0.020067","4970","6006","6488","4203","4690","4900","3884","4185","4310","3771","3914","3972","3610","3421","3351","DualSpot on"
"MA200-0416","49071","109","1","1.10","1.6","2023-07-14T19:50:01","120","2023/07/14","19:50:01","0","0","0.0","0","300","64","82","-2600","-1428","-26103","6","150","150.13","116.19","33.94","22.47","42.9","9.24","89948","22.06","DUALSPOT-UV-BLUE-GREEN-RED-IR","711366","686854","908161","13.601782","4.342222","0.016035","707163","866350","762616","9.153604","2.763670","0.012593","808431","877551","816687","7.559967","2.223843","0.006203","807022","897239","863545","6.086049","1.751351","-0.000895","705278","843081","956592","4.098461","1.103959","-0.025812","4214","5014","5390","3507","3826","3964","3202","3313","3359","3123","3111","3106","2941","2736","2660","DualSpot on"
"MA200-0416","49072","109","1","1.10","1.6","2023-07-14T19:55:01","120","2023/07/14","19:55:01","0","0","0.0","0","300","64","82","-2640","-1424","-25888","6","150","149.90","115.83","34.06","22.47","43.1","9.28","89944","22.06","DUALSPOT-UV-BLUE-GREEN-RED-IR","700651","681890","905377","14.810881","4.761095","0.014031","699241","861935","761000","10.068824","3.059595","0.012417","800977","874138","815541","8.345435","2.470613","0.010596","799920","893442","861576","6.738005","1.947385","0.004541","700648","840447","954872","4.572983","1.237224","-0.014389","6131","7222","7739","5857","6440","6694","5629","6014","6176","5646","5773","5825","5722","5465","5369","DualSpot on"
"MA200-0416","49073","109","1","1.10","1.6","2023-07-14T20:00:01","120","2023/07/14","20:00:01","0","0","0.0","0","300","64","82","-2628","-1404","-26168","6","150","149.67","116.40","33.27","22.47","43.1","9.31","89944","22.00","DUALSPOT-UV-BLUE-GREEN-RED-IR","696730","681688","907795","15.639484","5.057632","0.017355","697129","862670","763085","10.642276","3.248888","0.017128","798183","873953","816569","8.823921","2.622980","0.015828","797678","893337","862511","7.128574","2.067834","0.014039","699802","841056","956324","4.843721","1.313887","-0.002677","4181","5235","5738","3652","4217","4466","3412","3802","3966","3366","3632","3740","3249","3218","3207","DualSpot on"
"MA200-0416","49074","109","1","1.10","1.6","2023-07-14T20:05:01","120","2023/07/14","20:05:01","0","0","0.0","0","300","64","81","-2656","-1448","-26044","6","150","149.35","116.32","33.03","22.44","43.3","9.33","89952","22.00","DUALSPOT-UV-BLUE-GREEN-RED-IR","691510","679638","907362","16.345688","5.310686","0.017102","688948","855301","757718","11.125426","3.406417","0.015825","794766","872603","816361","9.225948","2.747691","0.012613","794592","891923","861974","7.455193","2.164078","0.006774","697816","840040","955707","5.069366","1.374154","-0.017497","3565","4500","4949","3079","3535","3737","2869","3134","3247","2817","2923","2966","2709","2548","2489","DualSpot on"
"MA200-0416","49075","109","1","1.10","1.6","2023-07-14T20:10:01","120","2023/07/14","20:10:01","0","0","0.0","0","300","64","81","-2584","-1324","-26036","6","150","149.76","116.36","33.40","22.46","43.4","9.39","89956","22.06","DUALSPOT-UV-BLUE-GREEN-RED-IR","686719","677978","907467","17.052280","5.564670","0.015980","689403","858653","761947","11.614295","3.566896","0.014789","791615","871630","816467","9.633741","2.874267","0.010794","792806","891981","862888","7.788658","2.264434","0.008222","692777","835398","951034","5.303011","1.437197","-0.016885","3566","4466","4902","3114","3562","3760","2909","3146","3247","2875","3014","3071","2804","2636","2574","DualSpot on"
"MA200-0416","49076","109","1","1.10","1.6","2023-07-14T20:15:01","120","2023/07/14","20:15:01","0","0","0.0","0","300","64","80","-2615","-1265","-26080","6","150","149.53","116.29","33.23","22.47","43.6","9.47","89960","22.00","DUALSPOT-UV-BLUE-GREEN-RED-IR","681048","675945","907472","17.870278","5.862467","0.016209","685392","857130","762117","12.208167","3.764968","0.015945","787724","870316","816587","10.132729","3.035546","0.015557","789809","891187","863208","8.196853","2.389419","0.011184","694499","839231","956215","5.590275","1.517911","-0.004205","4131","5263","5816","3785","4418","4700","3562","4029","4228","3521","3773","3876","3450","3392","3371","DualSpot on"
"MA200-0416","49077","109","1","1.10","1.6","2023-07-14T20:20:01","120","2023/07/14","20:20:01","0","0","0.0","0","300","64","80","-2652","-1300","-26012","6","150","150.49","116.25","34.24","22.51","44.5","9.81","89956","22.06","DUALSPOT-UV-BLUE-GREEN-RED-IR","672911","674022","909176","19.256836","6.335657","0.009922","680865","856509","763624","13.071123","4.038422","0.007552","783041","869258","817269","10.822583","3.245676","0.004279","785851","890161","863572","8.745356","2.549648","-0.001366","688371","834089","951312","5.965259","1.620455","-0.018306","7005","8116","8660","5503","5919","6105","4926","5094","5166","4733","4694","4678","4506","4183","4062","DualSpot on"
"MA200-0416","49078","109","1","1.10","1.6","2023-07-14T20:25:01","120","2023/07/14","20:25:01","0","0","0.0","0","300","64","80","-2648","-1300","-26052","6","150","149.50","116.57","32.93","22.66","45.7","10.34","89968","22.19","DUALSPOT-UV-BLUE-GREEN-RED-IR","662317","668654","905744","20.475670","6.758093","0.012364","678123","857460","766314","13.828947","4.277127","0.010337","775667","864571","814283","11.403668","3.419620","0.006902","785215","892321","866788","9.194766","2.676564","-0.000023","687402","834793","952888","6.272991","1.701861","-0.015197","6141","7535","8222","4819","5374","5623","4138","4386","4492","3867","3867","3867","3687","3453","3366","DualSpot on"
"MA200-0416","49079","109","1","1.10","1.6","2023-07-14T20:30:01","120","2023/07/14","20:30:01","0","0","0.0","0","300","64","79","-2648","-1336","-25984","6","150","150.11","116.32","33.79","22.82","45.9","10.57","89976","22.38","DUALSPOT-UV-BLUE-GREEN-RED-IR","656436","667707","908437","21.664512","7.197307","0.013355","668784","851000","763003","14.782907","4.601108","0.013339","770465","863315","815218","12.186639","3.676635","0.012884","776332","886109","862485","9.831673","2.876359","0.010326","685121","834642","953988","6.718124","1.835025","0.005878","6002","7634","8446","6079","7108","7572","5588","6315","6629","5493","5932","6113","5345","5505","5565","DualSpot on"
"MA200-0416","49080","109","1","1.10","1.6","2023-07-14T20:35:01","120","2023/07/14","20:35:01","0","0","0.0","0","300","64","79","-2764","-1288","-26124","6","150","149.57","116.31","33.26","22.99","46.3","10.85","89984","22.50","DUALSPOT-UV-BLUE-GREEN-RED-IR","649021","664656","907828","22.730748","7.586639","0.012921","662521","848125","762685","15.680159","4.899287","0.012176","763687","859985","813970","12.921309","3.913361","0.011919","772340","885190","863167","10.431861","3.062117","0.010015","681650","832930","953268","7.148052","1.961165","0.004858","5384","6876","7623","5718","6646","7068","5244","5909","6198","5177","5603","5781","5163","5298","5349","DualSpot on"
"MA200-0416","49081","109","1","1.10","1.6","2023-07-14T20:40:01","120","2023/07/14","20:40:01","0","0","0.0","0","300","64","79","-2672","-1220","-26152","6","150","149.35","116.45","32.90","23.16","46.7","11.14","89984","22.63","DUALSPOT-UV-BLUE-GREEN-RED-IR","642871","662136","906928","23.587932","7.868938","0.008445","661205","850766","766623","16.394201","5.102008","0.000437","762617","861982","817011","13.433643","4.053885","-0.003237","772946","888413","867161","10.815006","3.160691","-0.013350","681712","834663","955859","7.415275","2.026959","-0.028958","4323","5040","5398","4545","4568","4578","3652","3546","3500","3300","3006","2884","3205","2793","2638","DualSpot on"
"MA200-0416","49082","109","1","1.10","1.6","2023-07-14T20:45:01","120","2023/07/14","20:45:01","0","0","0.0","0","300","64","78","-2700","-1252","-26096","6","150","150.01","116.79","33.21","23.32","46.7","11.27","0","0.00","DUALSPOT-UV-BLUE-GREEN-RED-IR","641940","663771","910976","24.181194","8.070406","0.009333","656197","847097","764345","16.865632","5.239647","0.002211","757378","858195","814150","13.776661","4.146720","-0.005385","768832","885422","864805","11.079295","3.226459","-0.019310","678638","832077","953331","7.601959","2.074080","-0.024047","2983","3562","3853","2992","3072","3108","2438","2320","2269","2270","1986","1870","2232","1981","1887","DualSpot on"
"MA200-0416","49083","109","1","1.10","1.6","2023-07-14T20:50:01","120","2023/07/14","20:50:01","0","0","0.0","0","300","64","77","-2768","-1240","-25944","6","150","149.76","117.18","32.58","23.45","46.4","11.31","0","0.00","DUALSPOT-UV-BLUE-GREEN-RED-IR","638123","661808","909788","24.648090","8.234493","0.011520","653045","845144","763425","17.224334","5.349295","0.007320","757475","860031","816575","14.058389","4.227155","0.002637","765025","882515","862472","11.304484","3.283537","-0.012580","679452","834102","956041","7.766048","2.114897","-0.021784","2340","2958","3268","2269","2494","2596","1995","2049","2072","1927","1757","1687","1956","1750","1673","DualSpot on"
"MA200-0416","49084","109","1","1.10","1.6","2023-07-14T20:55:01","120","2023/07/14","20:55:01","0","0","0.0","0","300","64","77","-2704","-1120","-26175","6","150","149.59","116.71","32.88","23.56","46.0","11.28","89980","23.06","DUALSPOT-UV-BLUE-GREEN-RED-IR","630358","655830","903006","25.122510","8.399387","0.010344","650927","844595","763838","17.598540","5.465137","0.007124","751900","855466","812923","14.348939","4.312134","0.003605","765547","884602","865074","11.537106","3.348368","-0.001331","675651","830446","952287","7.935543","2.160448","-0.008519","2387","2945","3225","2376","2611","2717","2066","2145","2179","1999","1978","1969","2028","1935","1900","DualSpot on"
"MA200-0416","49085","109","1","1.10","1.6","2023-07-14T21:00:01","120","2023/07/14","21:00:01","0","0","0.0","0","300","64","77","-2704","-1096","-26100","6","150","149.40","116.59","32.81","23.67","45.6","11.23","89968","23.19","DUALSPOT-UV-BLUE-GREEN-RED-IR","632348","659773","909917","25.574212","8.558353","0.010690","644203","837906","758634","17.959900","5.579334","0.008417","751993","857295","815400","14.637351","4.398013","0.005222","761936","881912","862979","11.769230","3.412068","-0.003105","676589","832676","955267","8.104770","2.206689","-0.005158","2275","2845","3131","2297","2579","2706","2053","2172","2223","1997","1947","1927","2027","1968","1946","DualSpot on"
"MA200-0416","49086","109","1","1.10","1.6","2023-07-14T21:05:01","120","2023/07/14","21:05:01","0","0","0.0","0","300","64","76","-2776","-1140","-25744","6","150","150.36","116.63","33.73","23.71","45.0","11.07","89968","23.19","DUALSPOT-UV-BLUE-GREEN-RED-IR","625582","654498","904053","26.006024","8.716690","0.011041","646740","843211","764395","18.324232","5.705207","0.012020","750876","857932","816868","14.963663","4.504025","0.010019","762275","884044","865802","12.050837","3.498679","0.006804","672872","829311","952000","8.319275","2.267334","-0.003836","2174","2757","3050","2315","2766","2969","2322","2609","2732","2422","2576","2638","2569","2511","2489","DualSpot on"
"MA200-0416","49087","109","1","1.10","1.6","2023-07-14T21:10:01","120","2023/07/14","21:10:01","0","0","0.0","0","300","64","75","-2720","-1200","-25963","6","150","150.20","116.98","33.22","23.75","44.5","10.94","89968","23.31","DUALSPOT-UV-BLUE-GREEN-RED-IR","622644","654234","906059","26.693286","8.977901","0.012647","643904","842801","765770","18.934844","5.930560","0.016035","747111","856745","817334","15.523312","4.703349","0.017206","754297","877623","860955","12.537996","3.665382","0.017904","670769","828822","952559","8.684025","2.382635","0.015517","3450","4618","5209","3869","5028","5556","3972","4980","5419","4178","5034","5387","4355","4848","5034","DualSpot on"
"MA200-0416","49088","109","1","1.10","1.6","2023-07-14T21:15:01","120","2023/07/14","21:15:01","0","0","0.0","0","300","64","74","-2860","-796","-26663","6","150","149.61","116.28","33.32","23.77","44.3","10.90","0","0.00","DUALSPOT-UV-BLUE-GREEN-RED-IR","618422","652210","905339","27.300590","9.208103","0.011999","640462","841029","765582","19.452608","6.116473","0.013861","742893","854492","816534","16.000896","4.867309","0.013850","754750","880538","864988","12.951825","3.799617","0.012153","667700","826771","951077","8.992855","2.477157","0.009556","3067","4057","4561","3300","4136","4519","3409","4085","4380","3570","4041","4237","3710","3962","4058","DualSpot on"
"MA200-0416","49089","109","1","1.10","1.6","2023-07-14T21:20:01","120","2023/07/14","21:20:01","0","0","0.0","0","300","64","74","-2816","-1204","-26024","6","150","149.37","116.55","32.82","23.79","44.2","10.88","0","0.00","DUALSPOT-UV-BLUE-GREEN-RED-IR","617395","652630","907176","27.667648","9.351223","0.013281","639353","841068","766386","19.737032","6.222540","0.016282","742190","855146","817903","16.263046","4.959536","0.016232","749811","876110","861282","13.178045","3.876287","0.016981","668059","828171","953165","9.158848","2.527318","0.010007","1849","2561","2924","1809","2395","2665","1867","2332","2537","1947","2343","2508","1989","2134","2190","DualSpot on"
"MA200-0416","49090","109","1","1.10","1.6","2023-07-14T21:25:01","120","2023/07/14","21:25:01","0","0","0.0","0","300","64","73","-2720","-1064","-25975","6","150","149.66","116.54","33.12","23.80","44.1","10.84","89964","23.31","DUALSPOT-UV-BLUE-GREEN-RED-IR","617372","653590","909468","27.926788","9.454674","0.013597","635360","836796","763103","19.933200","6.298351","0.017300","737686","850984","814429","16.446140","5.023926","0.015501","749513","876678","862302","13.337759","3.927910","0.012229","667697","828433","953817","9.277393","2.562596","0.006612","1306","1834","2105","1247","1697","1904","1304","1614","1750","1374","1563","1642","1420","1488","1513","DualSpot on"
"MA200-0416","49091","109","1","1.10","1.6","2023-07-14T21:30:01","120","2023/07/14","21:30:01","0","0","0.0","0","300","64","73","-2800","-1060","-26008","6","150","149.55","116.01","33.53","23.82","43.8","10.77","89968","23.31","DUALSPOT-UV-BLUE-GREEN-RED-IR","616086","653263","909964","28.191906","9.559616","0.012719","634501","836657","763517","20.120634","6.370640","0.016327","736102","850127","814117","16.623531","5.086368","0.014371","748694","876613","862630","13.487278","3.976256","0.010680","667217","828467","954144","9.387058","2.595773","0.006458","1342","1838","2092","1197","1598","1783","1269","1545","1667","1293","1446","1510","1320","1382","1405","DualSpot on"
"MA200-0416","49092","109","1","1.10","1.6","2023-07-14T21:35:01","120","2023/07/14","21:35:01","0","0","0.0","1","300","64","72","-2819","-1111","-26138","6","150","149.80","116.89","32.90","23.79","43.3","10.55","89960","23.31","DUALSPOT-UV-BLUE-GREEN-RED-IR","613908","651618","908301","28.363758","9.629314","0.014113","633155","835458","762806","20.240162","6.419509","0.019693","734985","849456","813804","16.737494","5.127866","0.017771","747559","875849","862197","13.586810","4.011011","0.018730","666359","827794","953598","9.463459","2.618127","0.005472","863","1244","1439","758","1101","1260","809","1047","1152","854","1059","1145","913","949","962","DualSpot on"
"MA200-0416","49093","109","1","1.10","1.6","2023-07-14T21:40:01","120","2023/07/14","21:40:01","0","0","0.0","1","300","64","71","-2840","-1024","-25972","6","150","149.73","115.98","33.75","23.69","42.9","10.34","89968","23.25","DUALSPOT-UV-BLUE-GREEN-RED-IR","610917","649044","905352","28.522976","9.696835","0.014348","634383","837640","765203","20.360326","6.473147","0.021564","736499","851833","816520","16.861692","5.178297","0.021544","748333","877368","864029","13.696239","4.053134","0.022948","663483","824697","950267","9.541626","2.643495","0.014403","806","1175","1364","768","1178","1369","889","1240","1396","946","1252","1380","941","1049","1091","DualSpot on"
"MA200-0416","49094","109","1","1.10","1.6","2023-07-14T21:45:01","120","2023/07/14","21:45:01","0","0","0.0","1","300","64","71","-2788","-1020","-26091","6","150","150.05","117.20","32.86","23.59","42.9","10.23","0","0.00","DUALSPOT-UV-BLUE-GREEN-RED-IR","611628","650029","906960","28.590642","9.726952","0.016474","631076","833460","761569","20.408218","6.499028","0.028244","734068","849240","814236","16.919674","5.204106","0.027131","745594","874408","861340","13.752769","4.078841","0.034123","665642","827588","953722","9.578316","2.655900","0.023144","339","538","641","302","583","715","410","652","759","483","784","911","437","527","561","DualSpot on"
"MA200-0416","49095","109","1","1.10","1.6","2023-07-14T21:50:01","120","2023/07/14","21:50:01","0","0","0.0","1","300","64","71","-2720","-1024","-26044","6","150","150.11","117.16","32.95","23.49","42.9","10.14","0","0.00","DUALSPOT-UV-BLUE-GREEN-RED-IR","610879","649350","906191","28.624222","9.745186","0.020445","634528","838030","765882","20.429770","6.516104","0.035605","733610","848899","814054","16.956282","5.224460","0.034524","750200","879945","866968","13.787272","4.096246","0.038460","665683","827740","953938","9.597126","2.663606","0.040356","168","325","405","136","384","500","259","512","625","295","529","629","224","326","366","DualSpot on"
"MA200-0416","49096","109","1","1.10","1.6","2023-07-14T21:55:01","120","2023/07/14","21:55:01","0","0","0.0","1","300","64","70","-2852","-1008","-25736","6","150","149.53","116.63","32.90","23.39","43.0","10.09","0","0.00","DUALSPOT-UV-BLUE-GREEN-RED-IR","612824","651568","909496","28.670544","9.766747","0.017316","632258","835183","763379","20.458596","6.533634","0.030763","735852","851657","816880","16.996874","5.243403","0.028603","746973","876350","863573","13.826282","4.114521","0.035058","667457","830081","956723","9.622688","2.672097","0.020500","233","384","463","183","395","494","288","478","562","335","557","651","306","360","381","DualSpot on"
"MA200-0416","49097","109","1","1.10","1.6","2023-07-14T22:00:01","120","2023/07/14","22:00:01","0","0","0.0","1","300","64","69","-2807","-1038","-26192","6","150","149.90","116.47","33.43","23.28","43.1","10.03","0","0.00","DUALSPOT-UV-BLUE-GREEN-RED-IR","610368","649128","906289","28.721240","9.791229","0.017713","634409","838113","766237","20.493272","6.552171","0.027280","734268","850005","815432","17.039534","5.264557","0.030102","744461","873597","861024","13.868656","4.134208","0.033782","666038","828454","954939","9.648270","2.681387","0.027844","255","430","520","220","411","500","304","525","624","365","590","686","306","388","419","DualSpot on"
"MA200-0416","49098","109","1","1.10","1.6","2023-07-14T22:05:01","120","2023/07/14","22:05:01","0","0","0.0","1","300","64","69","-2672","-892","-25872","6","150","149.76","117.83","31.93","23.22","43.3","10.03","89964","22.75","DUALSPOT-UV-BLUE-GREEN-RED-IR","612668","651704","910093","28.761520","9.810589","0.018775","632460","835651","764104","20.522172","6.567495","0.028480","732187","847778","813442","17.078688","5.281264","0.026585","746632","876341","863864","13.903172","4.150420","0.036758","664377","826481","952757","9.670540","2.689479","0.033167","200","356","436","181","355","437","275","434","505","293","509","601","264","354","388","DualSpot on"
"MA200-0416","49099","109","1","1.10","1.6","2023-07-14T22:10:01","120","2023/07/14","22:10:01","0","0","0.0","2","300","64","68","-2804","-959","-25928","6","150","149.55","116.71","32.83","23.16","43.3","10.00","89964","22.69","DUALSPOT-UV-BLUE-GREEN-RED-IR","611920","651483","910309","28.903778","9.866985","0.013259","631629","835196","764073","20.644966","6.615412","0.017580","731592","847787","813840","17.199414","5.326909","0.019339","745772","875912","863815","14.007606","4.189163","0.022317","664288","826823","953397","9.748596","2.715428","0.020641","715","1008","1160","779","1081","1224","858","1154","1286","897","1183","1305","934","1104","1169","DualSpot on"
"MA200-0416","49100","109","1","1.10","1.6","2023-07-14T22:15:01","120","2023/07/14","22:15:01","0","0","0.0","1","300","64","68","-2860","-880","-26056","6","150","150.71","117.24","33.47","23.07","43.1","9.85","0","0.00","DUALSPOT-UV-BLUE-GREEN-RED-IR","606595","647848","906993","29.411332","10.065727","0.012274","630865","836714","766815","21.122558","6.793594","0.014745","731175","849683","817001","17.642714","5.489838","0.016688","740989","872498","861598","14.401360","4.329300","0.018104","661177","824608","951787","10.046772","2.813373","0.017220","2542","3487","3979","3019","3946","4385","3139","4041","4449","3369","4200","4557","3552","4088","4296","DualSpot on"
"MA200-0416","49101","109","1","1.10","1.6","2023-07-14T22:20:01","120","2023/07/14","22:20:01","0","0","0.0","1","300","64","68","-2896","-704","-26103","6","150","149.69","117.20","32.50","22.95","42.9","9.68","0","0.00","DUALSPOT-UV-BLUE-GREEN-RED-IR","607324","649254","909587","29.581424","10.133659","0.013561","627288","832691","763618","21.282496","6.857061","0.018268","728065","846786","814718","17.796282","5.550009","0.021079","742208","874649","864218","14.536888","4.382199","0.025352","662100","826262","954004","10.145611","2.845274","0.018297","852","1227","1423","1011","1447","1655","1087","1537","1741","1160","1633","1837","1178","1371","1446","DualSpot on"
"MA200-0416","49102","109","1","1.10","1.6","2023-07-14T22:25:01","120","2023/07/14","22:25:01","0","0","0.0","1","300","64","67","-2869","-873","-25973","6","150","149.76","117.46","32.31","22.83","42.9","9.55","0","0.00","DUALSPOT-UV-BLUE-GREEN-RED-IR","604499","646489","905979","29.651806","10.162094","0.014042","629091","835437","766324","21.347864","6.883513","0.019216","730213","849669","817688","17.860720","5.577237","0.024530","744836","878017","867748","14.593826","4.407954","0.032900","660654","824639","952264","10.180511","2.858114","0.031381","351","516","603","412","607","699","455","699","810","486","799","935","415","555","609","DualSpot on"
"MA200-0416","49103","109","1","1.10","1.6","2023-07-14T22:30:01","120","2023/07/14","22:30:01","0","0","0.0","1","300","64","66","-2924","-740","-26416","6","150","149.98","116.68","33.30","22.71","43.0","9.49","0","0.00","DUALSPOT-UV-BLUE-GREEN-RED-IR","606341","648699","909308","29.710052","10.186317","0.013810","626607","832404","763702","21.399734","6.905579","0.019630","728259","847582","815868","17.910360","5.600662","0.027211","741435","874172","864151","14.638278","4.429174","0.033539","662480","827059","955156","10.206963","2.868413","0.032945","293","427","497","329","491","568","353","584","689","382","639","750","316","432","477","DualSpot on"
"MA200-0416","49104","109","1","1.10","1.6","2023-07-14T22:35:01","120","2023/07/14","22:35:01","0","0","0.0","1","300","64","66","-2868","-900","-26119","6","150","149.76","117.02","32.74","22.61","43.1","9.42","0","0.00","DUALSPOT-UV-BLUE-GREEN-RED-IR","604241","646662","906665","29.766696","10.209095","0.013425","625053","830579","762181","21.449564","6.926601","0.019984","726609","845846","814400","17.959250","5.623812","0.027957","744050","877483","867578","14.679939","4.448045","0.032044","661073","825463","953392","10.232849","2.878447","0.034123","284","408","473","315","476","552","346","587","696","357","578","674","309","428","474","DualSpot on"
"MA200-0416","49105","109","1","1.10","1.6","2023-07-14T22:40:01","120","2023/07/14","22:40:01","0","0","0.0","0","300","64","65","-2840","-871","-26103","6","150","149.64","117.32","32.32","22.49","43.3","9.38","0","0.00","DUALSPOT-UV-BLUE-GREEN-RED-IR","605454","648189","908976","29.819854","10.230377","0.013689","625837","831829","763495","21.496832","6.946444","0.020292","728537","848354","816932","18.004568","5.643374","0.025117","740699","873716","864053","14.720510","4.467225","0.034435","659600","823722","951454","10.255081","2.886419","0.028821","266","386","449","298","455","529","320","502","585","346","595","703","264","344","375","DualSpot on"
"MA200-0416","49106","109","1","1.10","1.6","2023-07-14T22:45:01","120","2023/07/14","22:45:01","0","0","0.0","0","300","64","65","-2972","-784","-25672","6","150","149.54","116.59","32.96","22.40","43.4","9.33","89976","22.00","DUALSPOT-UV-BLUE-GREEN-RED-IR","603052","645767","905803","29.870536","10.253490","0.016168","627722","834530","766116","21.538144","6.965702","0.022734","727102","846832","815670","18.044624","5.663968","0.030152","738247","870939","861456","14.756238","4.487675","0.040364","661943","826723","955021","10.276424","2.895866","0.042885","255","411","493","262","433","514","285","518","625","307","622","760","255","400","457","DualSpot on"
"MA200-0416","49107","109","1","1.10","1.6","2023-07-14T22:50:01","120","2023/07/14","22:50:01","0","0","0.0","0","300","64","64","-2856","-928","-25512","6","150","149.73","117.69","32.04","22.31","43.7","9.37","89972","21.88","DUALSPOT-UV-BLUE-GREEN-RED-IR","604154","647161","907955","29.924504","10.275715","0.014652","624856","830986","762994","21.585060","6.985140","0.020176","724508","844031","813143","18.091734","5.683720","0.024353","738836","871834","862517","14.799688","4.507548","0.033404","659233","823531","951395","10.302174","2.905988","0.037090","269","407","479","295","449","523","332","511","594","370","622","732","305","441","494","DualSpot on"
"MA200-0416","49108","109","1","1.10","1.6","2023-07-14T22:55:01","120","2023/07/14","22:55:01","0","0","0.0","1","300","64","64","-2860","-871","-26124","6","150","149.81","117.24","32.56","22.25","44.3","9.51","89968","21.81","DUALSPOT-UV-BLUE-GREEN-RED-IR","603682","646810","907629","29.973918","10.296810","0.015013","624565","830794","762951","21.626758","7.002347","0.019332","727931","848245","817326","18.134102","5.701590","0.023751","738527","871695","862511","14.836506","4.522675","0.027512","662791","828061","956699","10.326107","2.913825","0.019324","247","380","450","263","391","453","300","455","526","315","466","532","285","336","356","DualSpot on"
"MA200-0416","49109","109","1","1.10","1.6","2023-07-14T23:00:01","120","2023/07/14","23:00:01","0","0","0.0","2","300","64","63","-2838","-757","-26084","6","150","150.15","117.35","32.80","22.20","44.7","9.60","89968","21.75","DUALSPOT-UV-BLUE-GREEN-RED-IR","601758","644950","905224","30.024570","10.317909","0.014240","626741","833878","765935","21.671444","7.020008","0.017524","726681","846995","816279","18.177114","5.719716","0.023408","736911","869985","860939","14.874573","4.537088","0.022708","661941","827199","955794","10.353294","2.921827","0.006642","253","377","442","282","399","455","304","458","529","325","440","491","323","340","347","DualSpot on"
"MA200-0416","49110","109","1","1.10","1.6","2023-07-14T23:05:01","120","2023/07/14","23:05:01","0","0","0.0","2","300","64","63","-2952","-740","-26140","6","150","149.87","117.17","32.70","22.17","44.9","9.64","89964","21.69","DUALSPOT-UV-BLUE-GREEN-RED-IR","601144","644503","904780","30.075604","10.337555","0.012180","626178","833379","765608","21.718668","7.037454","0.014912","726065","846499","815922","18.222600","5.736542","0.017676","741251","875298","866358","14.915917","4.553729","0.026079","661150","826360","954965","10.385494","2.931525","0.009569","255","352","403","298","395","441","322","427","475","354","510","579","383","414","426","DualSpot on"
"MA200-0416","49111","109","1","1.10","1.6","2023-07-14T23:10:01","120","2023/07/14","23:10:01","0","0","0.0","2","300","64","62","-2948","-792","-26116","6","150","147.77","114.88","32.89","22.12","44.7","9.54","89960","21.69","DUALSPOT-UV-BLUE-GREEN-RED-IR","602363","646245","907601","30.183228","10.383850","0.014368","622909","829516","762408","21.820398","7.081389","0.019678","723764","844341","814180","18.320294","5.776668","0.021190","738002","871959","863343","15.004778","4.588443","0.022939","659290","824405","952891","10.451885","2.954560","0.021806","550","826","971","656","990","1150","706","1012","1154","776","1058","1183","807","978","1045","DualSpot on"
"MA200-0416","49112","109","1","1.10","1.6","2023-07-14T23:15:01","120","2023/07/14","23:15:01","0","0","0.0","2","300","64","62","-2872","-840","-25924","6","150","150.49","117.71","32.78","22.07","44.8","9.52","89968","21.63","DUALSPOT-UV-BLUE-GREEN-RED-IR","601950","646524","908808","30.383572","10.467697","0.014287","622724","830239","763633","22.010354","7.155871","0.017117","723096","844503","814897","18.500226","5.844510","0.018429","736988","871667","863560","15.165607","4.647875","0.021125","659020","824724","953661","10.571110","2.993603","0.018641","999","1502","1766","1196","1684","1919","1269","1718","1925","1370","1818","2016","1414","1663","1762","DualSpot on"
"MA200-0416","49113","109","1","1.10","1.6","2023-07-14T23:20:01","120","2023/07/14","23:20:01","0","0","0.0","2","300","64","61","-2888","-768","-26108","6","150","149.98","117.46","32.52","22.04","45.2","9.61","89968","21.63","DUALSPOT-UV-BLUE-GREEN-RED-IR","599654","644747","907025","30.569152","10.547310","0.014921","620327","827906","762037","22.184764","7.226377","0.018279","721277","843200","814181","18.667938","5.911339","0.020955","735422","870589","862994","15.315745","4.705483","0.023352","657848","823883","952986","10.684593","3.031942","0.021999","928","1437","1706","1100","1607","1851","1185","1705","1947","1282","1777","1996","1349","1646","1764","DualSpot on"
"MA200-0416","49114","109","1","1.10","1.6","2023-07-14T23:25:01","120","2023/07/14","23:25:01","0","0","0.0","1","300","64","61","-2869","-857","-26076","6","150","150.09","117.42","32.67","22.03","45.7","9.75","89960","21.56","DUALSPOT-UV-BLUE-GREEN-RED-IR","598942","644714","907714","30.767132","10.629147","0.013843","620260","828732","763321","22.365756","7.296997","0.016717","719632","842195","813719","18.838240","5.972416","0.015781","733272","868929","861789","15.468561","4.759473","0.018126","656464","822814","952127","10.801197","3.070217","0.018580","990","1471","1725","1142","1602","1824","1204","1552","1713","1305","1657","1814","1387","1636","1735","DualSpot on"
"MA200-0416","49115","109","1","1.10","1.6","2023-07-14T23:30:01","120","2023/07/14","23:30:01","0","0","0.0","1","300","64","60","-2873","-719","-26100","6","150","150.08","118.04","32.03","22.03","46.0","9.86","89960","21.56","DUALSPOT-UV-BLUE-GREEN-RED-IR","597100","643126","905934","30.875668","10.676826","0.015745","618377","826684","761678","22.459116","7.331817","0.015909","719269","842258","814038","18.930114","6.006253","0.018147","733455","869619","862727","15.552557","4.787356","0.015685","656543","823270","952855","10.869766","3.089666","0.005474","540","874","1050","586","805","912","646","877","984","713","873","944","811","848","862","DualSpot on"
"MA200-0416","49116","109","1","1.10","1.6","2023-07-14T23:35:01","120","2023/07/14","23:35:01","0","0","0.0","1","300","64","60","-2880","-788","-25936","6","150","150.16","117.62","32.54","22.03","46.2","9.95","89952","21.56","DUALSPOT-UV-BLUE-GREEN-RED-IR","596858","643166","906243","30.948830","10.708210","0.014769","618024","826565","761792","22.523390","7.357096","0.017097","718512","841742","813709","18.990158","6.027312","0.014836","731818","867991","861305","15.608139","4.806012","0.015094","655810","822661","952292","10.916065","3.104210","0.014582","365","566","672","405","575","658","423","537","590","474","575","620","549","624","653","DualSpot on"
"MA200-0416","49117","109","1","1.10","1.6","2023-07-14T23:40:01","120","2023/07/14","23:40:01","0","0","0.0","2","300","64","60","-2972","-720","-26088","6","150","150.63","117.50","33.13","22.02","46.2","9.94","89952","21.56","DUALSPOT-UV-BLUE-GREEN-RED-IR","595993","642511","905636","31.026978","10.741394","0.014064","617589","826264","761700","22.584974","7.379549","0.013431","721809","845912","817962","19.052248","6.048829","0.013195","731831","868339","861772","15.665199","4.824811","0.012505","655396","822361","952059","10.961594","3.117555","0.004796","390","588","693","388","502","557","438","539","586","487","569","605","541","562","571","DualSpot on"
"MA200-0416","49118","109","1","1.10","1.6","2023-07-14T23:45:01","120","2023/07/14","23:45:01","0","0","0.0","2","300","64","59","-2784","-753","-26007","6","150","149.73","117.17","32.56","22.01","46.3","9.95","89948","21.56","DUALSPOT-UV-BLUE-GREEN-RED-IR","593658","640250","902725","31.100292","10.773224","0.014870","619446","829074","764452","22.646448","7.404136","0.017438","720406","844584","816803","19.108024","6.069357","0.016862","729493","865853","859453","15.716492","4.841757","0.013642","653942","820773","950356","11.004311","3.130115","0.006819","367","574","683","388","559","642","395","523","583","439","522","559","509","538","550","DualSpot on"
"MA200-0416","49119","109","1","1.10","1.6","2023-07-14T23:50:01","120","2023/07/14","23:50:01","0","0","0.0","2","300","64","59","-2908","-608","-26156","6","150","150.13","117.99","32.13","21.99","46.1","9.88","89944","21.56","DUALSPOT-UV-BLUE-GREEN-RED-IR","594431","641319","904506","31.169606","10.804527","0.016102","620116","830259","765748","22.705266","7.428407","0.019100","720890","845432","817817","19.163618","6.091262","0.020653","730915","867798","861595","15.767612","4.861563","0.024057","654854","822169","952056","11.044163","3.141944","0.010105","345","572","692","369","559","652","391","565","647","434","618","700","471","514","531","DualSpot on"
"MA200-0416","49120","109","1","1.10","1.6","2023-07-14T23:55:01","120","2023/07/14","23:55:01","0","0","0.0","1","300","64","58","-2934","-626","-26088","6","150","149.84","117.46","32.38","21.96","45.9","9.78","89944","21.50","DUALSPOT-UV-BLUE-GREEN-RED-IR","598215","645486","910530","31.200116","10.819862","0.017872","619383","829409","765061","22.736846","7.442736","0.021546","719881","844368","816871","19.192696","6.104195","0.024677","734648","872409","866241","15.795004","4.872876","0.026515","657294","825346","955794","11.063316","3.149413","0.033169","152","278","344","199","328","390","205","331","390","233","350","402","227","322","359","DualSpot on"
"MA200-0416","49121","109","1","1.10","1.6","2023-07-15T00:00:01","120","2023/07/15","00:00:01","0","0","0.0","1","300","64","58","-2928","-596","-26080","6","150","150.36","117.62","32.74","21.92","46.1","9.79","89940","21.44","DUALSPOT-UV-BLUE-GREEN-RED-IR","597403","644701","909545","31.223400","10.830959","0.016707","618506","828357","764153","22.759936","7.453524","0.022070","718943","843387","816037","19.216978","6.115329","0.025346","733050","870594","864540","15.816189","4.883671","0.034510","656295","824183","954517","11.076889","3.153844","0.017593","116","199","243","145","244","292","171","282","334","180","330","397","161","189","200","DualSpot on"
"MA200-0416","49122","109","1","1.10","1.6","2023-07-15T00:05:01","120","2023/07/15","00:05:01","0","0","0.0","1","300","64","57","-2964","-636","-26103","6","150","150.23","117.66","32.57","21.90","46.5","9.90","89936","21.44","DUALSPOT-UV-BLUE-GREEN-RED-IR","596852","644171","908875","31.239026","10.837742","0.014896","618134","827915","763819","22.777182","7.460534","0.018027","718635","843088","815786","19.231714","6.122577","0.027699","732358","869802","863809","15.830713","4.889923","0.028144","656123","823991","954336","11.085873","3.157283","0.031464","77","122","145","108","159","184","103","184","222","123","192","223","106","147","163","DualSpot on"
"MA200-0416","49123","109","1","1.10","1.6","2023-07-15T00:10:01","120","2023/07/15","00:10:01","0","0","0.0","0","300","64","57","-2996","-660","-26019","6","150","149.62","117.41","32.20","21.88","46.7","9.94","0","0.00","DUALSPOT-UV-BLUE-GREEN-RED-IR","595878","643149","907476","31.253006","10.846382","0.021037","617290","826816","762830","22.789618","7.467442","0.026503","718181","842613","815394","19.247318","6.129182","0.023043","731815","869239","863279","15.843872","4.894543","0.018195","655803","823649","953995","11.096241","3.161369","0.034167","69","157","204","78","159","198","110","170","198","112","143","157","123","177","198","DualSpot on"
"MA200-0416","49124","109","1","1.10","1.6","2023-07-15T00:15:01","120","2023/07/15","00:15:01","0","0","0.0","0","300","64","57","-2952","-592","-26036","6","150","150.67","117.88","32.79","21.85","46.8","9.96","0","0.00","DUALSPOT-UV-BLUE-GREEN-RED-IR","594954","642303","906417","31.289428","10.860680","0.012353","616647","826125","762293","22.823228","7.480001","0.014814","717593","842101","814987","19.277492","6.139822","0.014630","730894","868289","862427","15.871201","4.905075","0.022568","655379","823222","953544","11.115959","3.168233","0.023409","181","256","295","211","283","319","212","269","295","232","322","362","233","292","315","DualSpot on"
"MA200-0416","49125","109","1","1.10","1.6","2023-07-15T00:20:01","120","2023/07/15","00:20:01","0","0","0.0","0","300","64","56","-2992","-620","-26084","6","150","149.97","117.63","32.34","21.85","46.9","10.01","89924","21.38","DUALSPOT-UV-BLUE-GREEN-RED-IR","595084","642526","906820","31.312198","10.870300","0.014407","616372","825867","762135","22.844982","7.487946","0.014361","717751","842396","815332","19.298572","6.147952","0.019242","731252","868836","863021","15.889572","4.912204","0.023480","655436","823372","953778","11.129765","3.171229","-0.037525","113","174","207","137","182","204","148","208","236","156","221","249","163","129","115","DualSpot on"
"MA200-0416","49126","109","1","1.10","1.6","2023-07-15T00:25:01","120","2023/07/15","00:25:01","0","0","0.0","0","300","64","55","-2938","-546","-26015","6","150","150.35","117.72","32.62","21.85","47.2","10.09","89924","21.44","DUALSPOT-UV-BLUE-GREEN-RED-IR","593654","640995","904742","31.325722","10.878342","0.020336","619624","830294","766273","22.858840","7.494855","0.023759","716270","840693","813750","19.310340","6.153500","0.026269","729168","866417","860674","15.901463","4.916728","0.022045","654361","822062","952284","11.138493","3.175772","0.049493","67","144","185","87","156","190","82","141","168","101","139","156","103","194","230","DualSpot on"
"MA200-0416","49127","109","1","1.10","1.6","2023-07-15T00:30:01","120","2023/07/15","00:30:01","0","0","0.0","0","300","64","55","-2888","-592","-26060","6","150","149.69","117.33","32.36","21.84","47.3","10.12","89920","21.38","DUALSPOT-UV-BLUE-GREEN-RED-IR","594764","642224","906528","31.335750","10.884048","0.019772","616684","826402","762703","22.867138","7.499449","0.026229","717218","841853","814869","19.320350","6.157799","0.023269","730310","867815","862089","15.910948","4.920709","0.027045","654889","822754","953090","11.145969","3.177277","-0.054550","50","103","131","52","105","131","70","110","128","81","123","142","89","64","55","DualSpot on"
"MA200-0416","49128","109","1","1.10","1.6","2023-07-15T00:35:01","120","2023/07/15","00:35:01","0","0","0.0","0","300","64","55","-2948","-548","-26140","6","150","150.14","118.00","32.14","21.85","47.4","10.16","89916","21.38","DUALSPOT-UV-BLUE-GREEN-RED-IR","594437","641896","906075","31.339694","10.886795","0.022481","616466","826146","762492","22.873980","7.502406","0.020371","716952","841591","814654","19.328328","6.160636","0.016029","730239","867755","862041","15.916857","4.922658","0.014698","654931","822839","953188","11.150948","3.179528","0.043042","19","50","66","42","68","80","56","73","81","50","60","65","58","97","113","DualSpot on"
"MA200-0416","49129","109","1","1.10","1.6","2023-07-15T00:40:01","120","2023/07/15","00:40:01","0","0","0.0","0","300","64","54","-2946","-442","-25984","6","150","149.80","117.59","32.21","21.85","47.5","10.18","89916","21.38","DUALSPOT-UV-BLUE-GREEN-RED-IR","593433","640856","904644","31.351384","10.892399","0.017057","615127","824386","760910","22.883682","7.507044","0.022972","716259","840831","813957","19.341264","6.166655","0.026179","728240","865431","859776","15.926805","4.926556","0.024100","654058","821786","952010","11.158100","3.181738","0.013581","58","102","125","61","106","128","91","155","185","84","121","137","84","95","100","DualSpot on"
"MA200-0416","49130","109","1","1.10","1.6","2023-07-15T00:45:01","120","2023/07/15","00:45:01","0","0","0.0","0","300","64","54","-2980","-588","-26144","6","150","149.54","117.58","31.97","21.87","47.6","10.24","89912","21.38","DUALSPOT-UV-BLUE-GREEN-RED-IR","595318","642883","907544","31.355980","10.896118","0.023975","616601","826420","762806","22.891984","7.509749","0.009976","717613","842485","815553","19.346048","6.166978","0.545647","730421","868091","862413","15.933588","4.927957","-0.033503","654912","822892","953347","11.165024","3.184111","0.023957","22","68","92","52","62","67","33","8","-3","57","43","37","82","103","112","DualSpot on"
"MA200-0416","49131","109","1","1.10","1.6","2023-07-15T00:50:01","120","2023/07/15","00:50:01","0","0","0.0","0","300","64","53","-3004","-452","-25991","6","150","149.51","117.38","32.12","21.88","47.6","10.24","89900","21.44","DUALSPOT-UV-BLUE-GREEN-RED-IR","595408","642991","907740","31.358868","10.899315","0.026262","616398","826159","762574","22.896970","7.512331","0.024903","717632","842504","815593","19.350560","6.170255","0.036611","731407","869285","863623","15.938292","4.930294","0.033966","655514","823666","954246","11.169708","3.186750","0.053442","14","58","81","31","59","73","31","84","109","40","72","87","55","114","138","DualSpot on"
"MA200-0416","49132","109","1","1.10","1.6","2023-07-15T00:55:01","120","2023/07/15","00:55:01","0","0","0.0","0","300","64","53","-2972","-472","-25908","6","150","149.92","117.39","32.53","21.87","47.6","10.23","89900","21.38","DUALSPOT-UV-BLUE-GREEN-RED-IR","595497","643082","907901","31.365222","10.903030","0.020077","616749","826643","763080","22.903224","7.516509","0.029575","717215","842047","815187","19.358134","6.173492","0.022892","730834","868583","862954","15.944756","4.933405","0.032372","655235","823360","953863","11.174786","3.186959","0.557171","31","67","85","39","95","122","53","82","96","55","95","114","60","8","-11","DualSpot on"
"MA200-0416","49133","109","1","1.10","1.6","2023-07-15T01:00:01","120","2023/07/15","01:00:01","0","0","0.0","0","300","64","52","-3048","-479","-26060","6","150","149.67","117.88","31.79","21.84","47.3","10.13","0","0.00","DUALSPOT-UV-BLUE-GREEN-RED-IR","594249","641796","906161","31.382640","10.912998","0.020153","615723","825347","761969","22.924314","7.528019","0.026344","716733","841576","814839","19.379314","6.185050","0.030987","730088","867833","862298","15.964123","4.943156","0.034877","654845","822931","953450","11.188011","3.193311","0.046683","86","184","236","132","268","334","149","301","373","164","307","371","156","279","328","DualSpot on"
"MA200-0416","49134","109","1","1.10","1.6","2023-07-15T01:05:01","120","2023/07/15","01:05:01","0","0","0.0","0","300","64","52","-3044","-424","-26075","6","150","149.81","117.44","32.37","21.80","47.1","10.02","0","0.00","DUALSPOT-UV-BLUE-GREEN-RED-IR","596326","644196","909768","31.426678","10.933262","0.016120","617272","827657","764232","22.971444","7.548565","0.020210","714784","839445","812947","19.421930","6.204010","0.024426","732517","870917","865497","16.002483","4.958946","0.026052","652972","820715","950955","11.213982","3.202303","0.023535","220","367","446","297","470","555","301","486","573","327","489","562","308","388","419","DualSpot on"
"MA200-0416","49135","109","1","1.10","1.6","2023-07-15T01:10:01","120","2023/07/15","01:10:01","0","0","0.0","0","300","64","51","-3084","-488","-26091","6","150","149.33","117.34","32.00","21.76","47.0","9.95","89880","21.31","DUALSPOT-UV-BLUE-GREEN-RED-IR","593187","640971","905364","31.474156","10.954395","0.015644","619038","830232","766769","23.018626","7.568926","0.020187","715260","840256","813843","19.465774","6.221593","0.021009","733173","871893","866583","16.042408","4.976428","0.029148","653381","821368","951828","11.242630","3.212992","0.030268","237","387","468","298","471","556","310","456","524","341","548","641","341","466","517","DualSpot on"
"MA200-0416","49136","109","1","1.10","1.6","2023-07-15T01:15:01","120","2023/07/15","01:15:01","0","0","0.0","0","300","64","51","-3052","-427","-25960","6","150","150.20","117.81","32.39","21.73","47.0","9.91","0","0.00","DUALSPOT-UV-BLUE-GREEN-RED-IR","595423","643519","909116","31.507202","10.969044","0.015371","616626","827193","764101","23.054736","7.584607","0.020099","718055","843703","817332","19.500750","6.237168","0.024445","731668","870242","865101","16.072155","4.989553","0.029070","656140","824957","956074","11.263000","3.221199","0.035025","164","265","319","227","358","423","246","399","471","253","406","475","241","353","398","DualSpot on"
"MA200-0416","49137","109","1","1.10","1.6","2023-07-15T01:20:01","120","2023/07/15","01:20:01","0","0","0.0","1","300","64","50","-3092","-356","-25891","6","150","149.80","117.27","32.52","21.66","46.7","9.76","0","0.00","DUALSPOT-UV-BLUE-GREEN-RED-IR","593725","641767","906787","31.536988","10.983883","0.017440","615051","825165","762378","23.087622","7.601142","0.023732","716903","842513","816307","19.535490","6.254661","0.027922","729707","868056","863033","16.101746","5.004472","0.033708","655125","823748","954724","11.279385","3.227335","0.029193","149","268","331","207","376","459","245","446","541","253","460","553","195","263","290","DualSpot on"
"MA200-0416","49138","109","1","1.10","1.6","2023-07-15T01:25:01","120","2023/07/15","01:25:01","0","0","0.0","1","300","64","49","-2988","-423","-26050","6","150","149.31","117.55","31.76","21.62","46.6","9.69","89856","21.19","DUALSPOT-UV-BLUE-GREEN-RED-IR","592757","641249","906598","31.676700","11.042988","0.014677","613989","824451","762161","23.226924","7.659024","0.019173","715975","842102","816340","19.667064","6.307388","0.021140","728520","867268","862664","16.219456","5.050403","0.024184","654707","823726","955004","11.368752","3.258964","0.026655","698","1093","1304","878","1351","1583","929","1378","1590","1004","1451","1653","1062","1391","1523","DualSpot on"
"MA200-0416","49139","109","1","1.10","1.6","2023-07-15T01:30:01","120","2023/07/15","01:30:01","0","0","0.0","2","300","64","49","-3076","-388","-26272","6","150","150.01","117.54","32.46","21.57","46.4","9.57","89848","21.13","DUALSPOT-UV-BLUE-GREEN-RED-IR","590239","639756","905824","32.012878","11.190681","0.014868","611981","823397","762271","23.566702","7.800304","0.018264","713164","840419","815779","19.987314","6.436438","0.020201","730383","871030","867416","16.509766","5.163270","0.022554","652600","822252","954047","11.589806","3.337454","0.024706","1679","2672","3205","2142","3226","3762","2261","3300","3793","2477","3488","3947","2627","3377","3681","DualSpot on"
"MA200-0416","49140","109","1","1.10","1.6","2023-07-15T01:35:01","120","2023/07/15","01:35:01","0","0","0.0","1","300","64","48","-3232","-316","-26328","6","150","148.88","117.77","31.11","21.49","46.2","9.44","89848","21.06","DUALSPOT-UV-BLUE-GREEN-RED-IR","587805","639201","907341","32.591560","11.443176","0.015374","608993","822229","763042","24.151454","8.042323","0.019019","706970","835919","813249","20.546986","6.660361","0.021036","723232","865209","863317","17.018342","5.358762","0.023451","648117","818671","951261","11.985275","3.478481","0.027548","2886","4766","5784","3680","5766","6807","3945","5975","6948","4332","6303","7209","4690","6332","7003","DualSpot on"
"MA200-0416","49141","109","1","1.10","1.6","2023-07-15T01:40:01","120","2023/07/15","01:40:01","0","0","0.0","1","300","64","48","-3052","-424","-25884","6","150","149.99","118.00","31.99","21.42","46.3","9.41","89836","20.94","DUALSPOT-UV-BLUE-GREEN-RED-IR","581883","636125","906691","33.528594","11.853252","0.014532","602449","817929","762026","25.098360","8.433157","0.017546","704380","837422","817696","21.454046","7.022304","0.019217","716923","862079","862904","17.842378","5.675472","0.021290","647320","821117","956259","12.629738","3.704568","0.023265","4664","7529","9096","5949","9057","10630","6382","9393","10859","7006","9933","11298","7629","9873","10804","DualSpot on"
"MA200-0416","49142","109","1","1.10","1.6","2023-07-15T01:45:01","120","2023/07/15","01:45:01","0","0","0.0","1","300","64","47","-3024","-256","-26189","6","150","149.57","117.26","32.30","21.38","46.7","9.52","89836","20.94","DUALSPOT-UV-BLUE-GREEN-RED-IR","578036","633714","905300","34.051424","12.083977","0.014176","602798","820926","766474","25.629758","8.653670","0.016906","699912","834630","816557","21.961806","7.225085","0.018273","712336","858995","861310","18.305274","5.852127","0.019756","644199","819049","955046","12.990356","3.831988","0.022033","2618","4195","5062","3359","5060","5928","3594","5211","6004","3960","5486","6204","4296","5510","6018","DualSpot on"
"MA200-0416","49143","109","1","1.10","1.6","2023-07-15T01:50:01","120","2023/07/15","01:50:01","0","0","0.0","1","300","64","47","-3032","-320","-26212","6","150","149.33","117.54","31.78","21.36","47.2","9.66","0","0.00","DUALSPOT-UV-BLUE-GREEN-RED-IR","576338","632442","904227","34.229528","12.165737","0.015185","601158","819512","765750","25.813416","8.732533","0.018227","698534","833836","816404","22.138690","7.297845","0.019757","711114","858299","861182","18.469918","5.917197","0.021898","643214","818431","954770","13.117058","3.876993","0.023484","889","1510","1853","1158","1839","2187","1249","1900","2220","1405","2053","2359","1505","1978","2176","DualSpot on"
"MA200-0416","49144","109","1","1.10","1.6","2023-07-15T01:55:01","120","2023/07/15","01:55:01","0","0","0.0","1","300","64","46","-3072","-264","-25924","6","150","149.73","117.65","32.08","21.35","47.5","9.74","0","0.00","DUALSPOT-UV-BLUE-GREEN-RED-IR","580093","636782","910664","34.285144","12.189667","0.013791","600438","818830","765270","25.873154","8.756339","0.015885","697756","833193","815937","22.198668","7.321257","0.017649","715251","863612","866667","18.524764","5.938166","0.020076","642723","818065","954437","13.162170","3.891821","0.017167","277","438","526","376","550","639","423","605","695","467","655","744","535","645","692","DualSpot on"
"MA200-0416","49145","109","1","1.10","1.6","2023-07-15T02:00:01","120","2023/07/15","02:00:01","0","0","0.0","1","300","64","45","-3064","-276","-26147","6","150","150.17","116.93","33.24","21.34","47.5","9.73","89820","20.88","DUALSPOT-UV-BLUE-GREEN-RED-IR","580255","636967","911035","34.300996","12.199661","0.019067","600595","819107","765607","25.891876","8.765626","0.020454","697567","833089","815908","22.217502","7.329876","0.021440","715117","863553","866675","18.542548","5.944771","0.016754","642666","818058","954490","13.175926","3.895576","-0.004561","79","176","230","118","207","252","133","215","255","152","199","221","164","157","155","DualSpot on"
"MA200-0416","49146","109","1","1.10","1.6","2023-07-15T02:05:01","120","2023/07/15","02:05:01","0","0","0.0","1","300","64","44","-3076","-346","-25884","6","150","149.39","117.54","31.84","21.32","47.7","9.75","89820","20.81","DUALSPOT-UV-BLUE-GREEN-RED-IR","579335","636036","909761","34.324316","12.210613","0.015508","599741","818095","764756","25.919918","8.777046","0.016671","697149","832707","815603","22.244988","7.340372","0.017056","713810","862097","865308","18.567224","5.954976","0.023519","641681","816909","953218","13.193027","3.902959","0.034671","116","202","249","176","265","311","194","273","312","210","321","373","203","323","374","DualSpot on"
"MA200-0416","49147","109","1","1.10","1.6","2023-07-15T02:10:01","120","2023/07/15","02:10:01","0","0","0.0","1","300","64","43","-3048","-308","-26291","6","150","150.80","117.38","33.43","21.31","47.9","9.82","89812","20.81","DUALSPOT-UV-BLUE-GREEN-RED-IR","577540","634133","907113","34.340236","12.217888","0.014100","598167","815984","762841","25.935848","8.784878","0.020184","695997","831418","814407","22.263566","7.347662","0.016199","712023","860007","863261","18.585118","5.961606","0.016522","640852","815938","952117","13.206226","3.906189","-0.018937","79","127","154","100","173","211","131","181","205","152","198","220","157","134","125","DualSpot on"
"MA200-0416","49148","109","1","1.10","1.6","2023-07-15T02:15:01","120","2023/07/15","02:15:01","0","0","0.0","1","300","64","43","-3176","-352","-25932","6","150","150.83","117.17","33.66","21.30","47.8","9.78","89812","20.81","DUALSPOT-UV-BLUE-GREEN-RED-IR","577343","633926","906830","34.343788","12.221058","0.022299","598061","815871","762785","25.943646","8.790004","0.025472","695525","830882","813906","22.270652","7.351918","0.027813","711557","859482","862807","18.594208","5.966943","0.032579","640417","815384","951494","13.212917","3.909386","0.036716","17","55","76","49","112","145","50","104","131","77","159","197","79","132","154","DualSpot on"
"MA200-0416","49149","109","1","1.10","1.6","2023-07-15T02:20:01","120","2023/07/15","02:20:01","0","0","0.0","1","300","64","43","-3112","-352","-25775","6","150","149.57","117.30","32.26","21.28","47.6","9.69","89808","20.81","DUALSPOT-UV-BLUE-GREEN-RED-IR","578127","634791","908094","34.348508","12.225021","0.022163","598760","816875","763764","25.953496","8.796745","0.026679","696377","831920","814975","22.281828","7.358510","0.028315","712449","860610","863970","18.602274","5.971298","0.031534","641327","816587","952917","13.218906","3.911932","0.033017","23","72","98","62","154","202","79","169","214","68","135","166","71","110","126","DualSpot on"
"MA200-0416","49150","109","1","1.10","1.6","2023-07-15T02:25:01","120","2023/07/15","02:25:01","0","0","0.0","1","300","64","42","-3084","-280","-26260","6","150","149.76","117.06","32.70","21.23","47.5","9.61","89804","20.75","DUALSPOT-UV-BLUE-GREEN-RED-IR","577506","634122","907194","34.357928","12.230698","0.018696","597996","815862","762853","25.963782","8.801288","0.018018","695940","831444","814561","22.293228","7.364857","0.026795","712068","860199","863591","18.613592","5.977761","0.032558","641150","816363","952686","13.224659","3.914131","0.025986","47","101","132","65","102","122","80","161","200","97","198","246","68","93","104","DualSpot on"
"MA200-0416","49151","109","1","1.10","1.6","2023-07-15T02:30:01","120","2023/07/15","02:30:01","0","0","0.0","1","300","64","41","-3128","-239","-26291","6","150","149.83","117.62","32.21","21.20","47.3","9.52","89800","20.69","DUALSPOT-UV-BLUE-GREEN-RED-IR","576664","633262","906011","34.370008","12.237484","0.018048","597459","815187","762307","25.981482","8.809918","0.020843","695383","830825","814022","22.309554","7.373178","0.025219","710829","858737","862185","18.626144","5.984463","0.031314","640293","815331","951501","13.234314","3.918525","0.036626","60","123","158","111","198","243","115","214","263","107","208","256","114","190","222","DualSpot on"
"MA200-0416","49152","109","1","1.10","1.6","2023-07-15T02:35:01","120","2023/07/15","02:35:01","0","0","0.0","0","300","64","40","-3073","-284","-26080","6","150","149.38","117.75","31.63","21.15","47.0","9.40","89800","20.69","DUALSPOT-UV-BLUE-GREEN-RED-IR","579732","636684","911038","34.390292","12.245995","0.013545","600059","818844","765808","26.004284","8.821183","0.021511","697792","833821","817096","22.331630","7.384009","0.024734","714678","863507","867065","18.647386","5.995380","0.030761","642837","818666","955454","13.248650","3.923746","0.025326","101","158","189","143","263","325","155","284","347","180","346","424","170","230","255","DualSpot on"
"MA200-0416","49153","109","1","1.10","1.6","2023-07-15T02:40:01","120","2023/07/15","02:40:01","0","0","0.0","0","300","64","40","-3104","-220","-26063","6","150","149.87","117.44","32.43","21.08","46.9","9.30","89792","20.63","DUALSPOT-UV-BLUE-GREEN-RED-IR","578290","635134","908916","34.406296","12.255150","0.018158","598711","817072","764219","26.023498","8.832526","0.024312","697316","833317","816653","22.348956","7.393695","0.027068","712854","861339","864977","18.665698","6.006609","0.034442","642306","818007","954753","13.257477","3.928419","0.042682","80","165","213","121","259","330","122","247","310","156","347","438","105","201","241","DualSpot on"
"MA200-0416","49154","109","1","1.10","1.6","2023-07-15T02:45:01","120","2023/07/15","02:45:01","0","0","0.0","0","300","64","40","-3084","-257","-25934","6","150","149.73","117.54","32.19","21.02","46.8","9.21","89792","20.56","DUALSPOT-UV-BLUE-GREEN-RED-IR","576592","633328","906376","34.422412","12.263084","0.016075","597460","815429","762767","26.043314","8.842879","0.022226","695698","831450","814912","22.369800","7.405520","0.027520","710904","859064","862767","18.682264","6.015528","0.031448","641110","816549","953056","13.264969","3.931103","0.022968","80","144","180","124","238","296","147","304","383","141","277","342","89","116","128","DualSpot on"
"MA200-0416","49155","109","1","1.10","1.6","2023-07-15T02:50:01","120","2023/07/15","02:50:01","0","0","0.0","1","300","64","39","-3042","-284","-26003","6","150","150.39","117.75","32.64","20.96","47.0","9.22","89788","20.50","DUALSPOT-UV-BLUE-GREEN-RED-IR","575104","631816","904280","34.445800","12.272587","0.012190","600203","819317","766490","26.067610","8.853489","0.017866","695015","830746","814328","22.393726","7.416011","0.020778","709592","857567","861399","18.704370","6.027178","0.030519","640447","815756","952158","13.278488","3.935458","0.014105","116","171","201","152","241","286","168","266","315","188","358","438","160","186","197","DualSpot on"
"MA200-0416","49156","109","1","1.10","1.6","2023-07-15T02:55:01","120","2023/07/15","02:55:01","0","0","0.0","1","300","64","39","-3073","-250","-26003","6","150","149.81","117.91","31.89","20.92","47.6","9.36","0","0.00","DUALSPOT-UV-BLUE-GREEN-RED-IR","578268","635381","909505","34.472816","12.284794","0.014801","598941","817739","765084","26.096048","8.864755","0.015826","697970","834442","818042","22.421286","7.427174","0.019030","713788","862788","866688","18.729304","6.035752","0.015266","639655","814821","951145","13.294086","3.941732","0.030776","134","224","274","178","261","304","194","290","338","212","269","297","184","274","312","DualSpot on"
"MA200-0416","49157","109","1","1.10","1.6","2023-07-15T03:00:01","120","2023/07/15","03:00:01","0","0","0.0","2","300","64","38","-3140","-160","-26175","6","150","149.76","117.74","32.02","20.90","48.0","9.49","0","0.00","DUALSPOT-UV-BLUE-GREEN-RED-IR","577660","634755","908692","34.491580","12.292473","0.012742","598245","816861","764309","26.114078","8.872211","0.016880","697375","833805","817477","22.440694","7.435108","0.019127","712646","861482","865481","18.747258","6.044123","0.027373","642735","818833","955877","13.308342","3.946188","0.013145","93","140","167","113","172","203","136","205","239","152","262","314","169","194","204","DualSpot on"
"MA200-0416","49158","109","1","1.10","1.6","2023-07-15T03:05:01","120","2023/07/15","03:05:01","0","0","0.0","1","300","64","37","-3040","-188","-26152","6","150","150.09","117.58","32.51","20.90","48.4","9.59","0","0.00","DUALSPOT-UV-BLUE-GREEN-RED-IR","577640","634781","908792","34.504696","12.299175","0.016479","598198","816842","764376","26.127850","8.878481","0.018939","693497","829245","813030","22.454906","7.440276","0.014262","712494","861353","865386","18.760662","6.047871","0.000875","642566","818653","955665","13.317345","3.948166","-0.030974","65","121","151","86","142","171","100","131","147","114","115","116","106","84","75","DualSpot on"
"MA200-0416","49159","109","1","1.10","1.6","2023-07-15T03:10:01","120","2023/07/15","03:10:01","0","0","0.0","1","300","64","37","-2907","-200","-26673","6","150","149.39","117.14","32.24","20.89","48.6","9.65","0","0.00","DUALSPOT-UV-BLUE-GREEN-RED-IR","577176","634314","908195","34.522080","12.308323","0.016983","597842","816443","764035","26.147102","8.886420","0.016451","697023","833527","817296","22.472000","7.448316","0.022903","712066","860915","864953","18.775764","6.054710","0.025981","642223","818286","955285","13.328323","3.952214","0.024435","87","166","210","121","182","213","121","207","249","129","212","252","130","175","194","DualSpot on"
"MA200-0416","49160","109","1","1.10","1.6","2023-07-15T03:15:01","120","2023/07/15","03:15:01","0","0","0.0","0","300","64","36","-3088","-128","-25924","6","150","150.14","117.96","32.18","20.89","48.7","9.69","89804","20.38","DUALSPOT-UV-BLUE-GREEN-RED-IR","577030","634241","908211","34.546636","12.319656","0.014996","597626","816270","763949","26.168204","8.895058","0.016474","693269","829127","813020","22.491558","7.456441","0.019506","712586","861626","865772","18.794334","6.063083","0.026105","642442","818650","955756","13.341675","3.956500","0.015034","122","206","253","132","198","233","137","209","245","157","260","310","158","186","197","DualSpot on"
"MA200-0416","49161","109","1","1.10","1.6","2023-07-15T03:20:01","120","2023/07/15","03:20:01","0","0","0.0","1","300","64","36","-3084","-150","-26115","6","150","150.40","117.94","32.46","20.89","48.8","9.71","89812","20.38","DUALSPOT-UV-BLUE-GREEN-RED-IR","577297","634595","908809","34.564700","12.328247","0.015355","597842","816636","764330","26.183568","8.901679","0.017628","697076","833795","817675","22.508852","7.462735","0.014452","712068","861093","865258","18.806136","6.066365","0.000813","642474","818745","955928","13.352211","3.961621","0.039045","89","155","191","96","151","179","121","160","180","100","101","101","124","220","260","DualSpot on"
"MA200-0416","49162","109","1","1.10","1.6","2023-07-15T03:25:01","120","2023/07/15","03:25:01","0","0","0.0","1","300","64","35","-3136","-184","-26140","6","150","149.37","118.13","31.24","20.88","48.8","9.70","89816","20.44","DUALSPOT-UV-BLUE-GREEN-RED-IR","576545","633880","907857","34.589372","12.338711","0.013997","597242","815918","763754","26.206264","8.910990","0.017364","696393","833088","817060","22.527912","7.470501","0.019850","711818","860896","865135","18.827272","6.074666","0.022163","641959","818166","955294","13.367195","3.966047","0.010658","122","196","237","142","220","261","133","206","242","179","266","308","177","197","206","DualSpot on"
"MA200-0416","49163","109","1","1.10","1.6","2023-07-15T03:30:01","120","2023/07/15","03:30:01","0","0","0.0","1","300","64","35","-3065","-111","-26023","6","150","150.16","117.74","32.42","20.87","48.7","9.65","89820","20.38","DUALSPOT-UV-BLUE-GREEN-RED-IR","576629","634014","908124","34.610712","12.349739","0.016665","596903","815539","763484","26.228310","8.920985","0.018872","696603","833411","817455","22.548376","7.479740","0.021690","711415","860488","864810","18.844632","6.082274","0.024742","642062","818369","955541","13.380165","3.970459","0.018738","106","199","251","138","228","274","144","236","282","147","235","277","153","190","205","DualSpot on"
"MA200-0416","49164","109","1","1.10","1.6","2023-07-15T03:35:01","120","2023/07/15","03:35:01","0","0","0.0","1","300","64","35","-3076","-28","-26280","6","150","149.66","117.46","32.20","20.83","48.3","9.49","0","0.00","DUALSPOT-UV-BLUE-GREEN-RED-IR","575573","632888","906567","34.619368","12.355099","0.019118","596623","815182","763212","26.241732","8.929235","0.024888","695555","832199","816293","22.560668","7.487047","0.028197","709820","858597","862937","18.856412","6.089235","0.033436","641028","817074","954112","13.387085","3.973743","0.038085","43","97","128","84","189","244","86","188","238","100","216","272","82","142","167","DualSpot on"
"MA200-0416","49165","109","1","1.10","1.6","2023-07-15T03:40:01","120","2023/07/15","03:40:01","0","0","0.0","1","300","64","34","-3244","-192","-25991","6","150","149.40","117.40","32.00","20.77","47.8","9.29","0","0.00","DUALSPOT-UV-BLUE-GREEN-RED-IR","578424","636027","911139","34.629676","12.360809","0.017796","598515","817834","765731","26.251492","8.935780","0.026240","694583","831043","815227","22.570142","7.493818","0.031384","708394","856881","861266","18.864528","6.094962","0.037176","640229","816080","952930","13.389515","3.975986","0.057692","51","104","134","61","151","198","66","175","229","69","179","232","28","97","127","DualSpot on"
"MA200-0416","49166","109","1","1.10","1.6","2023-07-15T03:45:01","120","2023/07/15","03:45:01","0","0","0.0","2","300","64","34","-3260","-236","-26140","6","150","149.57","117.42","32.14","20.72","47.4","9.11","0","0.00","DUALSPOT-UV-BLUE-GREEN-RED-IR","576093","633539","907648","34.647952","12.369438","0.015294","596922","815719","763858","26.273864","8.948463","0.023557","692871","829079","813392","22.591624","7.506157","0.027528","710520","859531","864061","18.883882","6.105723","0.031973","638603","814000","950573","13.403339","3.980580","0.017407","91","157","194","141","292","370","151","318","401","165","335","417","164","199","214","DualSpot on"
"MA200-0416","49167","109","1","1.10","1.6","2023-07-15T03:50:01","120","2023/07/15","03:50:01","0","0","0.0","1","300","64","33","-3103","-92","-25988","6","150","149.86","118.11","31.75","20.63","47.0","8.93","0","0.00","DUALSPOT-UV-BLUE-GREEN-RED-IR","575690","633138","907133","34.661208","12.374416","0.011015","596761","815568","763769","26.288524","8.957195","0.024665","696556","833551","817866","22.607468","7.515818","0.028982","710067","859013","863613","18.899438","6.116892","0.037667","641945","818321","955643","13.410385","3.983963","0.039367","65","92","106","92","203","261","111","252","323","132","352","458","83","148","176","DualSpot on"
"MA200-0416","49168","109","1","1.10","1.6","2023-07-15T03:55:01","120","2023/07/15","03:55:01","0","0","0.0","1","300","64","33","-3111","-326","-25669","6","150","150.21","117.59","32.63","20.56","46.8","8.79","89820","20.06","DUALSPOT-UV-BLUE-GREEN-RED-IR","578022","635756","910906","34.674944","12.381435","0.016348","598757","818353","766439","26.305006","8.965677","0.021462","695403","832223","816657","22.622276","7.524503","0.027638","707969","856524","861185","18.911472","6.124658","0.035019","640873","817010","954152","13.414890","3.986856","0.048574","68","126","158","103","192","238","104","220","278","102","238","304","53","123","153","DualSpot on"
"MA200-0416","49169","109","1","1.10","1.6","2023-07-15T04:00:01","120","2023/07/15","04:00:01","0","0","0.0","1","300","64","32","-3296","88","-26432","6","150","149.76","117.82","31.94","20.48","46.8","8.71","89824","20.00","DUALSPOT-UV-BLUE-GREEN-RED-IR","576377","634019","908505","34.693240","12.390095","0.015480","596758","815675","764018","26.323988","8.975977","0.022910","694258","830907","815428","22.638966","7.534213","0.027916","711769","861185","865949","18.928742","6.135938","0.035704","640230","816207","953226","13.422150","3.990615","0.042042","91","159","197","119","239","300","117","252","319","147","354","453","86","164","197","DualSpot on"
"MA200-0416","49170","109","1","1.10","1.6","2023-07-15T04:05:01","120","2023/07/15","04:05:01","0","0","0.0","1","300","64","32","-3116","-208","-25584","6","150","149.93","117.99","31.94","20.42","46.7","8.63","0","0.00","DUALSPOT-UV-BLUE-GREEN-RED-IR","572888","630267","903236","34.724700","12.403835","0.014064","597878","817354","765707","26.355986","8.991366","0.020531","691860","828143","812835","22.670278","7.550050","0.024950","707697","856341","861210","18.955230","6.149808","0.030619","641241","817581","954878","13.438393","3.996160","0.020160","156","252","306","201","357","438","220","411","507","225","435","536","192","242","263","DualSpot on"
"MA200-0416","49171","109","1","1.10","1.6","2023-07-15T04:10:01","120","2023/07/15","04:10:01","0","0","0.0","1","300","64","31","-2992","52","-25800","6","150","149.51","118.02","31.49","20.33","46.7","8.55","0","0.00","DUALSPOT-UV-BLUE-GREEN-RED-IR","575676","633474","907999","34.758764","12.418854","0.014496","596241","815261","763869","26.390628","9.008324","0.021180","694366","831332","816083","22.704048","7.566035","0.023667","711073","860545","865563","18.983100","6.164123","0.030453","640158","816285","953436","13.454887","4.002591","0.029458","169","280","341","217","399","493","237","421","513","236","456","561","195","285","323","DualSpot on"
"MA200-0416","49172","109","1","1.10","1.6","2023-07-15T04:15:01","120","2023/07/15","04:15:01","0","0","0.0","1","300","64","32","-3103","-50","-25984","6","150","150.08","117.84","32.24","20.27","46.9","8.56","0","0.00","DUALSPOT-UV-BLUE-GREEN-RED-IR","575872","633798","908622","34.793464","12.434361","0.014264","596789","816145","764792","26.420904","9.021568","0.018026","694402","831497","816373","22.733546","7.580054","0.023098","710896","860458","865577","19.009064","6.176162","0.026682","640344","816588","953863","13.469727","4.008661","0.030694","172","282","343","190","304","363","207","361","437","221","374","448","175","263","299","DualSpot on"
"MA200-0416","49173","109","1","1.10","1.6","2023-07-15T04:20:01","120","2023/07/15","04:20:01","0","0","0.0","1","300","64","31","-3260","-288","-25936","6","150","149.98","117.94","32.04","20.21","47.1","8.57","0","0.00","DUALSPOT-UV-BLUE-GREEN-RED-IR","574236","632155","906425","34.834656","12.451900","0.013461","595277","814217","763108","26.457548","9.036934","0.017090","693470","830499","815496","22.765254","7.593382","0.019801","709354","858741","863966","19.037256","6.188203","0.024096","639673","815863","953066","13.488266","4.015069","0.020706","205","321","386","230","355","420","223","345","406","239","377","443","219","279","304","DualSpot on"
"MA200-0416","49174","109","1","1.10","1.6","2023-07-15T04:25:01","120","2023/07/15","04:25:01","0","0","0.0","0","300","64","31","-3307","96","-26669","6","150","149.57","118.10","31.47","20.18","47.1","8.54","89824","19.75","DUALSPOT-UV-BLUE-GREEN-RED-IR","573606","631608","905778","34.873396","12.468365","0.013789","594755","813683","762728","26.491204","9.053808","0.021614","692729","829792","814930","22.798302","7.608814","0.023266","708366","857633","862957","19.066574","6.202429","0.028789","638979","815050","952150","13.508236","4.021877","0.021077","192","307","371","211","397","494","232","407","494","249","453","552","236","302","330","DualSpot on"
"MA200-0416","49175","109","1","1.10","1.6","2023-07-15T04:30:01","120","2023/07/15","04:30:01","0","0","0.0","0","300","64","31","-3130","-19","-25888","6","150","149.39","117.90","31.49","20.13","47.1","8.48","0","0.00","DUALSPOT-UV-BLUE-GREEN-RED-IR","576017","634386","909898","34.910232","12.485973","0.015798","596654","816467","765450","26.528238","9.070599","0.019398","691544","828508","813789","22.832512","7.624829","0.023241","706596","855677","861121","19.097426","6.217171","0.028237","641526","818411","956163","13.528435","4.030012","0.031033","183","328","409","232","395","479","240","422","513","262","469","569","239","360","412","DualSpot on"
"MA200-0416","49176","109","1","1.10","1.6","2023-07-15T04:35:01","120","2023/07/15","04:35:01","0","0","0.0","0","300","64","30","-3260","-224","-25824","6","150","149.66","117.96","31.70","20.07","47.0","8.41","0","0.00","DUALSPOT-UV-BLUE-GREEN-RED-IR","574758","633197","908437","34.965072","12.509861","0.014059","595741","815408","764677","26.575994","9.092045","0.019001","694554","832307","817693","22.876570","7.643718","0.020635","710865","861049","866660","19.135598","6.233453","0.024325","640841","817660","955385","13.553413","4.038966","0.023783","273","442","537","300","501","606","310","494","587","324","515","607","295","394","436","DualSpot on"
"MA200-0416","49177","109","1","1.10","1.6","2023-07-15T04:40:01","120","2023/07/15","04:40:01","0","0","0.0","0","300","64","29","-3152","-36","-26624","6","150","149.89","118.30","31.58","20.02","47.0","8.35","0","0.00","DUALSPOT-UV-BLUE-GREEN-RED-IR","571889","630275","904467","35.033172","12.538616","0.013569","593174","812133","761770","26.631732","9.116274","0.018347","692303","829861","815486","22.927022","7.665158","0.020528","707185","856784","862546","19.179380","6.252773","0.025657","638705","815092","952512","13.583282","4.050892","0.030479","338","534","644","349","568","682","354","563","668","371","613","731","352","527","601","DualSpot on"
"MA200-0416","49178","109","1","1.10","1.6","2023-07-15T04:45:01","120","2023/07/15","04:45:01","0","0","0.0","0","300","64","30","-3200","-8","-26040","6","150","149.40","117.92","31.48","19.97","46.9","8.27","0","0.00","DUALSPOT-UV-BLUE-GREEN-RED-IR","575807","634839","911361","35.100180","12.569118","0.014912","596641","817155","766652","26.687702","9.139949","0.017632","692134","829903","815679","22.978318","7.687938","0.021729","706842","856555","862494","19.224074","6.271916","0.024598","638787","815352","952877","13.612633","4.060323","0.016518","333","569","700","351","557","664","361","600","721","380","610","721","347","418","448","DualSpot on"
"MA200-0416","49179","109","1","1.10","1.6","2023-07-15T04:50:01","120","2023/07/15","04:50:01","0","0","0.0","0","300","64","29","-3328","-32","-26396","6","150","150.58","117.72","32.86","19.90","46.8","8.19","0","0.00","DUALSPOT-UV-BLUE-GREEN-RED-IR","572725","631728","907114","35.173032","12.599163","0.012128","594095","813971","763862","26.752628","9.167152","0.016167","689854","827459","813486","23.037044","7.711995","0.017914","703357","852646","858731","19.278606","6.294425","0.021549","636713","812894","950133","13.650394","4.073250","0.017870","363","537","633","408","613","720","414","607","705","464","687","795","448","549","592","DualSpot on"
"MA200-0416","49180","109","1","1.10","1.6","2023-07-15T04:55:01","120","2023/07/15","04:55:01","0","0","0.0","0","300","64","29","-3126","-130","-25273","6","150","149.76","118.03","31.74","19.84","46.8","8.12","0","0.00","DUALSPOT-UV-BLUE-GREEN-RED-IR","571346","630379","905401","35.227952","12.622307","0.013318","593040","812736","762886","26.802882","9.189754","0.018872","692359","830681","816822","23.084502","7.733197","0.021601","706389","856517","862766","19.319158","6.312556","0.025677","639010","815958","953821","13.678516","4.083161","0.022436","273","428","514","315","527","638","333","554","665","344","573","684","332","436","480","DualSpot on"
"MA200-0416","49181","109","1","1.10","1.6","2023-07-15T05:00:01","120","2023/07/15","05:00:01","0","0","0.0","0","300","64","29","-3084","192","-26596","6","150","149.80","117.96","31.84","19.80","46.7","8.07","89820","19.38","DUALSPOT-UV-BLUE-GREEN-RED-IR","572194","631542","907299","35.289648","12.650146","0.014495","593712","813891","764177","26.853132","9.212219","0.018612","692980","831646","817950","23.131458","7.754297","0.021617","707173","857632","864052","19.359192","6.331302","0.026966","639604","816895","955028","13.706173","4.093748","0.027258","307","513","628","315","523","631","330","550","661","340","590","712","327","464","522","DualSpot on"
"MA200-0416","49182","109","1","1.10","1.6","2023-07-15T05:05:01","120","2023/07/15","05:05:01","0","0","0.0","1","300","64","28","-3371","-124","-25940","6","150","149.98","118.20","31.78","19.73","46.7","8.00","89824","19.31","DUALSPOT-UV-BLUE-GREEN-RED-IR","569263","629030","904480","35.484556","12.734001","0.013626","594466","815814","766493","27.025422","9.283691","0.016750","691100","830196","817047","23.286058","7.815558","0.017878","705663","856520","863420","19.495370","6.384439","0.020598","638674","816253","954596","13.807411","4.129044","0.021542","968","1549","1875","1080","1667","1974","1085","1600","1860","1155","1677","1931","1196","1551","1702","DualSpot on"
"MA200-0416","49183","109","1","1.10","1.6","2023-07-15T05:10:01","120","2023/07/15","05:10:01","0","0","0.0","1","300","64","28","-3184","15","-26250","6","150","150.56","117.70","32.86","19.69","46.7","7.95","89836","19.25","DUALSPOT-UV-BLUE-GREEN-RED-IR","571601","632429","910199","35.711100","12.826019","0.011627","592844","814556","765945","27.227614","9.362947","0.014001","688810","828358","815828","23.471954","7.887793","0.015816","702610","853686","861087","19.657416","6.444746","0.016860","636941","814698","953151","13.927414","4.169410","0.016253","1130","1644","1933","1273","1788","2058","1311","1825","2085","1381","1841","2065","1424","1716","1840","DualSpot on"
"MA200-0416","49184","109","1","1.10","1.6","2023-07-15T05:15:01","120","2023/07/15","05:15:01","0","0","0.0","1","300","64","28","-3065","-200","-25407","6","150","150.49","118.69","31.80","19.69","46.8","7.98","89852","19.25","DUALSPOT-UV-BLUE-GREEN-RED-IR","568917","630290","907816","35.918988","12.904408","0.010820","590446","812141","764162","27.404230","9.429055","0.013758","687128","827184","815118","23.633300","7.945437","0.014146","706565","859266","867158","19.799692","6.494623","0.015886","635601","813578","952178","14.036339","4.202862","0.012300","1028","1447","1682","1103","1541","1770","1128","1504","1695","1202","1573","1754","1282","1469","1549","DualSpot on"
"MA200-0416","49185","109","1","1.10","1.6","2023-07-15T05:20:01","120","2023/07/15","05:20:01","0","0","0.0","1","300","64","27","-3036","32","-26116","6","150","149.64","118.07","31.57","19.63","46.9","7.99","89860","19.19","DUALSPOT-UV-BLUE-GREEN-RED-IR","567675","629331","906933","36.039560","12.956631","0.013648","589502","811360","763740","27.507698","9.470958","0.015987","686128","826457","814701","23.729962","7.985408","0.019036","703967","856537","864650","19.882652","6.526821","0.020220","634607","812655","951290","14.097107","4.223847","0.020851","599","971","1180","649","984","1159","679","1051","1239","704","1023","1178","718","928","1018","DualSpot on"
"MA200-0416","49186","109","1","1.10","1.6","2023-07-15T05:25:01","120","2023/07/15","05:25:01","0","0","0.0","0","300","64","27","-3220","-180","-25596","6","150","150.16","118.46","31.70","19.59","47.2","8.02","89860","19.13","DUALSPOT-UV-BLUE-GREEN-RED-IR","565793","627833","905388","36.200332","13.025909","0.013479","588029","809952","762885","27.646636","9.528529","0.016476","684539","825171","813897","23.856756","8.035338","0.017414","702170","854956","863445","19.994054","6.571345","0.021184","637240","816434","955996","14.180889","4.252459","0.019938","797","1283","1556","869","1346","1596","888","1307","1520","943","1408","1636","988","1260","1377","DualSpot on"
"MA200-0416","49187","109","1","1.10","1.6","2023-07-15T05:30:01","120","2023/07/15","05:30:01","0","0","0.0","0","300","64","26","-3280","-80","-25716","6","150","147.77","117.50","30.27","19.56","47.3","8.03","89864","19.13","DUALSPOT-UV-BLUE-GREEN-RED-IR","566398","629535","908784","36.465456","13.127335","0.011824","584939","806898","760607","27.870342","9.608274","0.013254","685359","827305","816532","24.057632","8.103449","0.013422","698626","851631","860582","20.169254","6.627934","0.013605","634750","813999","953520","14.309654","4.289928","0.010916","1325","1968","2329","1411","1953","2238","1419","1868","2096","1495","1875","2061","1530","1729","1814","DualSpot on"
"MA200-0416","49188","109","1","1.10","1.6","2023-07-15T05:35:01","120","2023/07/15","05:35:01","0","0","0.0","0","300","64","27","-3076","72","-26432","6","150","150.01","118.00","32.00","19.53","47.4","8.02","89864","19.06","DUALSPOT-UV-BLUE-GREEN-RED-IR","566119","630400","911031","36.760256","13.237438","0.010086","588522","813136","767147","28.113822","9.692680","0.010601","684580","827543","817370","24.277644","8.176220","0.010244","698054","852047","861542","20.362422","6.689557","0.010209","634486","814569","954523","14.457039","4.331872","0.004547","1467","2020","2332","1529","1955","2179","1547","1887","2060","1642","1931","2073","1744","1830","1867","DualSpot on"
"MA200-0416","49189","109","1","1.10","1.6","2023-07-15T05:40:01","120","2023/07/15","05:40:01","0","0","0.0","0","300","64","26","-3203","57","-26130","6","150","149.53","117.63","31.90","19.51","47.3","7.99","89868","19.06","DUALSPOT-UV-BLUE-GREEN-RED-IR","562705","627279","907221","36.952128","13.314819","0.011700","585259","809455","764148","28.280940","9.755856","0.013280","682193","825460","815740","24.428212","8.230592","0.013647","700032","855216","865110","20.494246","6.734383","0.013390","632486","812501","952432","14.553783","4.362570","0.013428","958","1424","1687","1053","1468","1686","1062","1415","1594","1124","1409","1549","1148","1344","1428","DualSpot on"
"MA200-0416","49190","109","1","1.10","1.6","2023-07-15T05:45:01","120","2023/07/15","05:45:01","0","0","0.0","1","300","64","26","-3180","116","-26280","6","150","149.59","117.71","31.88","19.46","47.3","7.93","89868","19.00","DUALSPOT-UV-BLUE-GREEN-RED-IR","562073","627350","908101","37.161608","13.402290","0.012343","584534","809269","764428","28.445870","9.820354","0.014204","681898","825834","816586","24.573466","8.286453","0.015784","700829","856880","867216","20.620240","6.781509","0.017562","632893","813481","953874","14.642788","4.391359","0.014836","1045","1611","1930","1038","1499","1742","1024","1454","1673","1073","1483","1683","1056","1261","1349","DualSpot on"
"MA200-0416","49191","109","1","1.10","1.6","2023-07-15T05:50:01","120","2023/07/15","05:50:01","0","0","0.0","1","300","64","26","-3234","30","-25973","6","150","150.42","117.88","32.54","19.43","47.2","7.88","89872","19.00","DUALSPOT-UV-BLUE-GREEN-RED-IR","560896","626829","908157","37.373692","13.490471","0.011824","583420","808560","764285","28.614664","9.888625","0.014516","680471","824864","816099","24.724138","8.344508","0.015121","698742","854990","865736","20.749624","6.829961","0.016719","631860","812678","953222","14.736347","4.421906","0.014039","1056","1591","1893","1061","1555","1815","1061","1480","1694","1101","1493","1686","1108","1311","1397","DualSpot on"
"MA200-0416","49192","109","1","1.10","1.6","2023-07-15T05:55:01","120","2023/07/15","05:55:01","0","0","0.0","0","300","64","25","-3148","152","-26156","6","150","150.09","118.34","31.76","19.39","47.2","7.84","89876","18.94","DUALSPOT-UV-BLUE-GREEN-RED-IR","557368","624191","905731","37.736528","13.642242","0.012367","580847","806293","762971","28.883830","9.992635","0.013922","678287","823397","815375","24.956122","8.431918","0.015185","696763","853687","864987","20.943708","6.899922","0.016165","630489","811689","952523","14.879471","4.467498","0.014172","1800","2807","3376","1686","2427","2820","1627","2285","2620","1645","2210","2487","1689","2005","2141","DualSpot on"
"MA200-0416","49193","109","1","1.10","1.6","2023-07-15T06:00:01","120","2023/07/15","06:00:01","0","0","0.0","0","300","64","24","-3264","-272","-25292","6","150","150.05","118.25","31.81","19.36","47.2","7.81","89868","18.94","DUALSPOT-UV-BLUE-GREEN-RED-IR","559061","627066","910954","38.009232","13.758808","0.012629","578849","804474","761861","29.084568","10.073530","0.014869","676071","821583","814092","25.130494","8.498235","0.015307","694358","851479","863249","21.090850","6.955320","0.017709","628927","810261","951169","14.986000","4.502435","0.015917","1354","2152","2605","1258","1885","2217","1224","1730","1989","1248","1747","1992","1258","1534","1652","DualSpot on"
"MA200-0416","49194","109","1","1.10","1.6","2023-07-15T06:05:01","120","2023/07/15","06:05:01","0","0","0.0","0","300","64","24","-3248","112","-26063","6","150","150.13","118.25","31.88","19.33","47.3","7.83","89868","18.88","DUALSPOT-UV-BLUE-GREEN-RED-IR","558017","626587","910971","38.197664","13.838257","0.012284","581509","808938","766532","29.240560","10.135251","0.014263","675269","821295","814242","25.268650","8.552373","0.016093","692502","849848","861996","21.211648","6.999744","0.016596","631706","814323","956223","15.076233","4.532917","0.017616","935","1463","1763","977","1435","1677","970","1409","1634","1024","1397","1581","1066","1335","1451","DualSpot on"
"MA200-0416","49195","109","1","1.10","1.6","2023-07-15T06:10:01","120","2023/07/15","06:10:01","0","0","0.0","0","300","64","24","-3076","-56","-25384","6","150","149.49","118.11","31.38","19.30","47.4","7.82","89868","18.88","DUALSPOT-UV-BLUE-GREEN-RED-IR","555999","624881","909119","38.360056","13.907795","0.012768","576594","802743","761108","29.377070","10.191417","0.015543","673638","819959","813310","25.393356","8.600915","0.016264","690939","848503","860960","21.318672","7.039834","0.017813","630517","813218","955177","15.155731","4.559740","0.018386","807","1301","1582","856","1327","1576","876","1284","1493","909","1281","1465","940","1194","1303","DualSpot on"
"MA200-0416","49196","109","1","1.10","1.6","2023-07-15T06:15:01","120","2023/07/15","06:15:01","0","0","0.0","0","300","64","23","-3212","-52","-25775","6","150","150.08","118.17","31.91","19.28","47.4","7.80","89876","18.88","DUALSPOT-UV-BLUE-GREEN-RED-IR","554123","623301","907389","38.507224","13.971340","0.012585","578653","806169","764751","29.500592","10.242259","0.015100","675766","823106","816774","25.504456","8.645988","0.016934","693549","852193","865052","21.416534","7.078053","0.018677","628962","811619","953564","15.229706","4.585758","0.019839","731","1169","1419","774","1181","1397","780","1172","1373","830","1201","1384","874","1139","1253","DualSpot on"
"MA200-0416","49197","109","1","1.10","1.6","2023-07-15T06:20:01","120","2023/07/15","06:20:01","0","0","0.0","0","300","64","23","-3028","336","-25796","6","150","150.03","118.66","31.37","19.26","47.4","7.80","89880","18.81","DUALSPOT-UV-BLUE-GREEN-RED-IR","553525","623126","907718","38.647668","14.033146","0.013211","577843","805667","764644","29.622746","10.293776","0.016101","675473","823284","817348","25.613096","8.688981","0.016754","694251","853571","866781","21.512466","7.115474","0.019305","629071","812146","954391","15.300728","4.610161","0.019609","695","1157","1420","763","1217","1459","760","1137","1331","811","1196","1387","836","1086","1194","DualSpot on"
"MA200-0416","49198","109","1","1.10","1.6","2023-07-15T06:25:01","120","2023/07/15","06:25:01","0","0","0.0","0","300","64","23","-3239","24","-25972","6","150","150.16","118.38","31.78","19.24","47.6","7.83","0","0.00","DUALSPOT-UV-BLUE-GREEN-RED-IR","551809","621942","906826","38.859396","14.125549","0.012754","576298","804343","763970","29.799932","10.366726","0.015098","673925","822194","816805","25.774184","8.753611","0.016609","692368","852011","865638","21.655146","7.169672","0.017674","628022","811369","953818","15.407589","4.645929","0.016938","1050","1707","2082","1109","1701","2017","1129","1688","1975","1209","1710","1959","1261","1572","1706","DualSpot on"
"MA200-0416","49199","109","1","1.10","1.6","2023-07-15T06:30:01","120","2023/07/15","06:30:01","0","0","0.0","0","300","64","22","-3348","128","-26452","6","150","150.08","117.92","32.16","19.23","47.9","7.90","0","0.00","DUALSPOT-UV-BLUE-GREEN-RED-IR","548109","618774","903417","39.155012","14.256966","0.012712","573174","801138","761728","30.052628","10.473573","0.015240","671050","819797","815196","26.006766","8.849669","0.016848","688751","848611","862884","21.858880","7.249871","0.018249","625486","808907","951453","15.563519","4.700935","0.019024","1472","2400","2931","1588","2463","2931","1637","2480","2914","1733","2502","2883","1847","2389","2624","DualSpot on"
"MA200-0416","49200","109","1","1.10","1.6","2023-07-15T06:35:01","120","2023/07/15","06:35:01","0","0","0.0","0","300","64","22","-3400","152","-26908","6","150","149.72","117.71","32.01","19.23","48.0","7.93","89888","18.81","DUALSPOT-UV-BLUE-GREEN-RED-IR","547298","619428","906132","39.602400","14.451500","0.012254","572362","801887","763652","30.447110","10.636020","0.014497","669765","820063","816626","26.368170","8.992005","0.015350","687921","849273","864606","22.177564","7.370539","0.016686","625135","809778","953295","15.813698","4.787754","0.017931","2232","3569","4337","2484","3761","4447","2549","3691","4282","2716","3781","4312","2969","3788","4144","DualSpot on"
"MA200-0416","49201","109","1","1.10","1.6","2023-07-15T06:40:01","120","2023/07/15","06:40:01","0","0","0.0","1","300","64","22","-3000","396","-26275","6","150","150.09","118.18","31.92","19.22","48.0","7.94","89892","18.81","DUALSPOT-UV-BLUE-GREEN-RED-IR","545170","618318","906094","39.986244","14.626995","0.013058","570455","800731","763655","30.779560","10.777408","0.015248","667369","818556","816153","26.674262","9.118832","0.016796","685958","848283","864509","22.451122","7.477151","0.017778","623647","808956","953070","16.026192","4.864321","0.020232","1907","3229","3992","2085","3284","3929","2150","3299","3895","2322","3351","3865","2511","3351","3717","DualSpot on"
"MA200-0416","49202","109","1","1.10","1.6","2023-07-15T06:45:01","120","2023/07/15","06:45:01","0","0","0.0","1","300","64","21","-3230","53","-26100","6","150","149.73","118.34","31.39","19.21","48.1","7.96","89892","18.75","DUALSPOT-UV-BLUE-GREEN-RED-IR","542368","616613","905274","40.409756","14.812054","0.012505","567825","798732","762909","31.145178","10.929137","0.014932","665174","817551","816238","27.011216","9.251512","0.015702","683656","846979","864213","22.752786","7.592827","0.017609","618904","804030","948022","16.261154","4.942846","0.016712","2102","3462","4249","2290","3582","4281","2364","3508","4105","2557","3696","4267","2773","3494","3808","DualSpot on"
"MA200-0416","49203","109","1","1.10","1.6","2023-07-15T06:50:01","120","2023/07/15","06:50:01","0","0","0.0","1","300","64","21","-3176","84","-25942","6","150","149.45","117.70","31.74","19.20","48.2","7.96","89904","18.75","DUALSPOT-UV-BLUE-GREEN-RED-IR","538993","614570","904386","40.939332","15.048626","0.012440","564823","796616","762287","31.591388","11.114311","0.014367","662077","815747","815782","27.420484","9.415114","0.015440","680787","845357","863736","23.117368","7.730717","0.016297","620079","807112","952581","16.546360","5.041490","0.017456","2642","4377","5385","2810","4324","5146","2886","4278","5006","3107","4357","4986","3385","4340","4759","DualSpot on"
"MA200-0416","49204","109","1","1.10","1.6","2023-07-15T06:55:01","120","2023/07/15","06:55:01","0","0","0.0","1","300","64","21","-3188","160","-25747","6","150","150.16","117.70","32.46","19.17","48.3","7.99","89904","18.75","DUALSPOT-UV-BLUE-GREEN-RED-IR","535534","612576","903709","41.504780","15.294205","0.011481","561859","794746","762037","32.079758","11.313039","0.013201","659014","814233","815715","27.873050","9.591786","0.013915","678034","844088","863741","23.521390","7.882214","0.014925","618350","806577","952959","16.866630","5.147331","0.013165","2821","4443","5390","3075","4538","5335","3192","4518","5214","3443","4682","5306","3801","4555","4886","DualSpot on"
"MA200-0416","49205","109","1","1.10","1.6","2023-07-15T07:00:01","120","2023/07/15","07:00:01","0","0","0.0","1","300","64","41","-2056","-1400","-26332","6","150","150.43","118.49","31.94","19.45","49.5","8.59","89920","20.31","DUALSPOT-UV-BLUE-GREEN-RED-IR","533615","612575","906120","42.125528","15.562321","0.011599","559995","794718","763634","32.620288","11.525684","0.012736","654513","811163","814149","28.374588","9.780472","0.013271","675863","843851","864845","23.971386","8.042054","0.013498","616704","806366","953803","17.220226","5.262083","0.013189","3077","4930","6017","3381","4936","5785","3514","4905","5636","3810","5021","5632","4168","5019","5393","DualSpot on"
"MA200-0416","49206","109","1","1.10","1.6","2023-07-15T07:05:01","120","2023/07/15","07:05:01","0","0","0.0","1","300","64","43","-1992","-1528","-26296","6","150","150.28","118.17","32.11","20.51","50.2","9.79","89912","22.50","DUALSPOT-UV-BLUE-GREEN-RED-IR","533443","614208","910840","42.683940","15.821903","0.012424","559216","795942","766185","33.099282","11.709696","0.011790","654475","813495","817734","28.821524","9.935105","0.010206","670753","839770","861714","24.371096","8.162863","0.005920","613910","804556","952697","17.562802","5.370661","0.011000","2775","4747","5909","3004","4247","4928","3140","3997","4448","3393","3774","3965","4049","4723","5019","DualSpot on"
"MA200-0416","49207","109","1","1.10","1.6","2023-07-15T07:10:01","120","2023/07/15","07:10:01","0","0","0.0","1","300","64","45","-1884","-1619","-26136","6","150","150.63","117.63","33.00","21.58","49.9","10.68","89912","23.88","DUALSPOT-UV-BLUE-GREEN-RED-IR","528997","610684","907750","43.184240","16.053185","0.011754","554518","791229","762876","33.510720","11.864913","0.010381","648337","807921","813092","29.201572","10.054506","0.005289","670863","842042","864792","24.711572","8.248271","-0.007652","613193","805491","954740","17.894284","5.471523","0.006063","2498","4116","5073","2593","3486","3976","2682","3003","3172","2904","2596","2442","3936","4269","4415","DualSpot on"
"MA200-0416","49208","109","1","1.10","1.6","2023-07-15T07:15:01","120","2023/07/15","07:15:01","0","0","0.0","2","300","64","45","-1860","-1603","-26284","6","150","149.76","117.90","31.86","22.58","49.3","11.43","89928","24.94","DUALSPOT-UV-BLUE-GREEN-RED-IR","528631","611359","910162","43.521572","16.213577","0.012581","554363","792476","764760","33.785408","11.960882","0.009229","647119","807910","813614","29.450342","10.119218","-0.002058","671115","843942","867071","24.937072","8.285533","-0.055821","611338","804432","954203","18.136288","5.543258","0.006745","1680","2956","3714","1727","2232","2509","1751","1686","1651","1918","1173","802","2867","3144","3267","DualSpot on"
"MA200-0416","49209","109","1","1.10","1.6","2023-07-15T07:20:01","120","2023/07/15","07:20:01","0","0","0.0","2","300","64","46","-1780","-1556","-26503","6","150","150.14","118.00","32.14","23.52","48.6","12.06","89928","25.94","DUALSPOT-UV-BLUE-GREEN-RED-IR","526188","609370","908404","43.788296","16.340179","0.012383","551903","790038","762972","34.000996","12.032938","0.007647","647233","809257","815348","29.640648","10.163276","-0.009987","667038","840069","863244","25.104238","8.304052","-0.311238","609931","803612","953716","18.319676","5.593820","0.000941","1327","2313","2900","1354","1661","1830","1338","1137","1033","1421","578","161","2171","2197","2209","DualSpot on"
"MA200-0416","49210","109","1","1.10","1.6","2023-07-15T07:25:01","120","2023/07/15","07:25:01","0","0","0.0","1","300","64","48","-1811","-1772","-26528","6","150","150.05","117.28","32.77","24.38","47.7","12.56","89924","26.75","DUALSPOT-UV-BLUE-GREEN-RED-IR","525878","609971","910398","44.067792","16.464085","0.010974","551148","790207","763670","34.223592","12.104196","0.005374","646059","809051","815512","29.840030","10.208061","-0.014232","666024","840074","863425","25.275968","8.323826","-0.281083","607113","801029","951149","18.512936","5.647367","-0.000662","1399","2220","2710","1406","1611","1724","1411","1134","990","1469","605","181","2301","2282","2274","DualSpot on"
"MA200-0416","49211","109","1","1.10","1.6","2023-07-15T07:30:01","120","2023/07/15","07:30:01","0","0","0.0","1","300","64","48","-1723","-1750","-26173","6","150","149.86","117.46","32.39","25.17","46.6","12.92","89948","27.50","DUALSPOT-UV-BLUE-GREEN-RED-IR","521819","606192","905923","44.346404","16.592289","0.011647","550890","790974","764994","34.444880","12.181372","0.008433","643473","806956","813816","30.040686","10.261619","-0.001709","662135","836354","859839","25.447200","8.351887","-0.059936","606701","801542","952320","18.704556","5.704284","0.005335","1393","2324","2881","1396","1766","1968","1418","1372","1348","1462","869","579","2278","2454","2531","DualSpot on"
"MA200-0416","49212","109","1","1.10","1.6","2023-07-15T07:35:01","120","2023/07/15","07:35:01","0","0","0.0","1","300","64","50","-1576","-1748","-26296","6","150","149.83","116.87","32.96","25.89","45.5","13.22","89960","28.19","DUALSPOT-UV-BLUE-GREEN-RED-IR","521682","608048","911311","44.967660","16.877362","0.011138","547079","788067","763928","34.998596","12.405562","0.011509","642532","808409","816820","30.547822","10.446684","0.010103","661696","838417","863179","25.899628","8.494425","0.005722","605168","801813","953954","19.124966","5.845165","0.011141","3122","5079","6255","3512","5041","5881","3602","4661","5210","3884","4338","4559","5025","5970","6386","DualSpot on"
"MA200-0416","49213","109","1","1.10","1.6","2023-07-15T07:40:01","120","2023/07/15","07:40:01","0","0","0.0","2","300","64","52","-1708","-1600","-26088","6","150","149.76","116.15","33.61","26.53","44.5","13.45","89964","28.81","DUALSPOT-UV-BLUE-GREEN-RED-IR","515108","602120","904674","45.498624","17.124950","0.010879","544334","786128","763351","35.420728","12.575734","0.010689","637663","804261","813717","30.925044","10.581713","0.008561","659731","837836","863461","26.226144","8.593040","0.002322","603140","800768","953717","19.434772","5.947557","0.008741","2685","4326","5316","2694","3752","4335","2696","3335","3667","2820","2943","3003","3726","4255","4488","DualSpot on"
"MA200-0416","49214","109","1","1.10","1.6","2023-07-15T07:45:01","120","2023/07/15","07:45:01","0","0","0.0","2","300","64","53","-1652","-1564","-26247","6","150","150.14","115.88","34.27","27.10","43.4","13.58","89972","29.38","DUALSPOT-UV-BLUE-GREEN-RED-IR","514847","603266","908299","45.952784","17.336250","0.010431","543838","787101","765413","35.784424","12.721109","0.009865","637751","806041","816438","31.250688","10.696249","0.007153","658703","838165","864491","26.505806","8.676294","0.000371","598899","796519","949430","19.697788","6.032182","0.005715","2302","3621","4421","2326","3144","3596","2333","2774","3004","2421","2437","2445","3170","3449","3572","DualSpot on"
"MA200-0416","49215","109","1","1.10","1.6","2023-07-15T07:50:01","120","2023/07/15","07:50:01","0","0","0.0","2","300","64","55","-1548","-1627","-26100","6","150","149.91","115.97","33.94","27.61","42.5","13.71","89984","29.88","DUALSPOT-UV-BLUE-GREEN-RED-IR","509834","598492","902585","46.303452","17.499726","0.010540","540829","783976","763069","36.036188","12.815905","0.008543","636463","805610","816546","31.465118","10.763130","0.002889","656072","835942","862547","26.682466","8.715414","-0.021205","600704","799908","953915","19.864132","6.079893","-0.001487","1776","2829","3469","1609","2070","2325","1535","1636","1688","1528","1156","976","2003","1963","1946","DualSpot on"
"MA200-0416","49216","109","1","1.10","1.6","2023-07-15T07:55:01","120","2023/07/15","07:55:01","0","0","0.0","2","300","64","57","-1611","-1603","-26388","6","150","149.98","115.97","34.01","28.06","41.6","13.82","90000","30.25","DUALSPOT-UV-BLUE-GREEN-RED-IR","512750","602795","910240","46.576996","17.626240","0.010336","540461","784457","764141","36.246088","12.895650","0.008674","634092","803606","815009","31.652316","10.823079","0.003874","654793","835300","862201","26.837678","8.751313","-0.017025","600962","801138","955839","20.025406","6.128923","0.002504","1385","2184","2671","1341","1738","1957","1340","1463","1527","1342","1058","921","1942","2013","2045","DualSpot on"
"MA200-0416","49217","109","1","1.10","1.6","2023-07-15T08:00:01","120","2023/07/15","08:00:01","0","0","0.0","2","300","64","59","-1560","-1619","-26140","6","150","150.28","116.59","33.70","28.48","40.9","13.92","90012","30.63","DUALSPOT-UV-BLUE-GREEN-RED-IR","509267","599508","906447","46.844564","17.761802","0.011699","538598","782620","762917","36.432416","12.971568","0.010672","634273","804704","816582","31.813432","10.876629","0.005831","653561","834602","861766","26.972884","8.785243","-0.009006","596937","796559","950743","20.162812","6.166790","-0.003566","1348","2362","2982","1184","1670","1938","1147","1319","1408","1163","1010","936","1646","1569","1535","DualSpot on"
"MA200-0416","49218","109","1","1.10","1.6","2023-07-15T08:05:01","120","2023/07/15","08:05:01","0","0","0.0","2","300","64","61","-1548","-1616","-26163","6","150","150.35","116.67","33.68","28.87","40.4","14.05","90020","31.00","DUALSPOT-UV-BLUE-GREEN-RED-IR","510380","601450","910235","47.041376","17.854240","0.010683","540041","785406","766098","36.576620","13.024390","0.008050","630756","800926","813000","31.936362","10.912623","0.000660","656781","839400","866876","27.074666","8.804447","-0.038979","596841","797018","951572","20.266948","6.196445","-0.000990","990","1611","1991","916","1162","1298","874","887","893","875","572","425","1246","1229","1222","DualSpot on"
"MA200-0416","49219","109","1","1.10","1.6","2023-07-15T08:10:01","120","2023/07/15","08:10:01","0","0","0.0","2","300","64","63","-1572","-1684","-26240","6","150","149.80","116.86","32.94","29.19","39.8","14.12","90032","31.25","DUALSPOT-UV-BLUE-GREEN-RED-IR","506393","597314","904768","47.223080","17.937534","0.010639","537842","782918","764022","36.717308","13.075889","0.008627","630525","801320","813719","32.059886","10.949998","0.003128","651085","832793","860229","27.177006","8.825612","-0.023967","599380","801036","956660","20.370846","6.225530","-0.000493","913","1485","1835","892","1158","1306","877","942","975","878","644","532","1242","1233","1229","DualSpot on"
"MA200-0416","49220","109","1","1.10","1.6","2023-07-15T08:15:01","120","2023/07/15","08:15:01","0","0","0.0","2","300","64","65","-1488","-1627","-26272","6","150","150.01","117.04","32.96","29.48","39.3","14.18","90028","31.50","DUALSPOT-UV-BLUE-GREEN-RED-IR","505161","596586","904567","47.443348","18.039806","0.010779","537858","783783","765370","36.887048","13.142622","0.010326","632394","804535","817432","32.209362","10.999922","0.006836","650808","833206","860929","27.301240","8.857461","-0.005608","597553","799247","954830","20.488862","6.258337","-0.000926","1105","1822","2262","1075","1500","1736","1060","1257","1359","1064","969","923","1408","1390","1382","DualSpot on"
"MA200-0416","49221","109","1","1.10","1.6","2023-07-15T08:20:01","120","2023/07/15","08:20:01","0","0","0.0","2","300","64","67","-1464","-1652","-26212","6","150","150.25","117.32","32.93","29.73","38.8","14.21","90032","31.75","DUALSPOT-UV-BLUE-GREEN-RED-IR","503394","595375","903925","47.721852","18.172130","0.011065","536638","782983","765245","37.100440","13.227809","0.010680","630677","803289","816695","32.396344","11.066860","0.009105","649162","831992","860129","27.458604","8.905845","0.004507","595354","797053","952632","20.629040","6.303207","0.008154","1394","2360","2954","1348","1917","2233","1323","1687","1876","1345","1474","1535","1669","1903","2006","DualSpot on"
"MA200-0416","49222","109","1","1.10","1.6","2023-07-15T08:25:01","120","2023/07/15","08:25:01","0","0","0.0","2","300","64","68","-1500","-1596","-26312","6","150","150.05","117.31","32.74","29.95","38.5","14.27","90032","31.94","DUALSPOT-UV-BLUE-GREEN-RED-IR","501475","593877","902761","47.974124","18.295494","0.011439","535728","782549","765410","37.289816","13.304931","0.011173","628911","801881","815699","32.560298","11.125573","0.009239","653748","838705","867404","27.597062","8.948038","0.004343","593577","795351","950979","20.751552","6.342537","0.008579","1263","2213","2799","1196","1746","2051","1160","1489","1659","1184","1293","1345","1458","1678","1774","DualSpot on"
"MA200-0416","49223","109","1","1.10","1.6","2023-07-15T08:30:01","120","2023/07/15","08:30:01","0","0","0.0","13","300","64","70","-1532","-1643","-26452","6","150","150.62","117.18","33.44","30.17","38.1","14.32","90028","32.13","DUALSPOT-UV-BLUE-GREEN-RED-IR","503039","596401","907509","48.192188","18.398944","0.010734","533552","780128","763568","37.459996","13.374251","0.010660","625790","798657","812902","32.712296","11.181918","0.009551","649119","833531","862373","27.724288","8.985710","0.001903","593891","796383","952533","20.861756","6.376707","0.005314","1092","1817","2264","1076","1536","1792","1076","1398","1566","1089","1130","1149","1313","1427","1477","DualSpot on"
"MA200-0416","49224","109","1","1.10","1.6","2023-07-15T08:35:01","120","2023/07/15","08:35:01","0","0","0.0","13","300","64","72","-1500","-1580","-26191","6","150","149.51","116.07","33.44","30.35","37.8","14.37","90040","32.31","DUALSPOT-UV-BLUE-GREEN-RED-IR","501313","595152","906746","48.449172","18.520394","0.010508","531550","778203","762366","37.673532","13.461953","0.010578","626922","801086","815936","32.901688","11.252791","0.009498","647130","831843","861116","27.885078","9.039955","0.007247","595065","798691","955777","21.003048","6.424116","0.009136","1300","2133","2649","1363","1944","2267","1354","1759","1970","1389","1627","1741","1700","1980","2104","DualSpot on"
"MA200-0416","49225","109","1","1.10","1.6","2023-07-15T08:40:01","120","2023/07/15","08:40:01","0","0","0.0","13","300","64","74","-1560","-1580","-26419","6","150","149.73","116.25","33.48","30.52","37.6","14.45","90040","32.38","DUALSPOT-UV-BLUE-GREEN-RED-IR","496750","591128","902716","48.913356","18.749714","0.010981","531622","779945","765353","38.044024","13.627637","0.012165","623630","798379","814287","33.225884","11.388780","0.012338","648917","835584","865895","28.157720","9.142914","0.011207","592151","795875","953142","21.216342","6.503246","0.013840","2345","4023","5066","2362","3668","4398","2315","3372","3923","2352","3085","3437","2563","3301","3628","DualSpot on"
"MA200-0416","49226","109","1","1.10","1.6","2023-07-15T08:45:01","120","2023/07/15","08:45:01","0","0","0.0","13","300","64","76","-1484","-1656","-26200","6","150","149.87","116.96","32.91","30.69","37.3","14.44","90036","32.50","DUALSPOT-UV-BLUE-GREEN-RED-IR","497466","593094","907394","49.294892","18.940396","0.011313","528274","776232","762684","38.334052","13.757080","0.012461","623278","799088","815890","33.476234","11.492974","0.012603","645219","831872","862685","28.366494","9.221461","0.011746","592111","796642","954638","21.381390","6.561098","0.012244","1916","3403","4331","1838","2916","3519","1777","2628","3074","1790","2394","2685","1971","2455","2670","DualSpot on"
"MA200-0416","49227","109","1","1.10","1.6","2023-07-15T08:50:01","120","2023/07/15","08:50:01","0","0","0.0","13","300","64","78","-1524","-1584","-26444","6","150","150.11","116.44","33.67","30.80","37.0","14.43","90044","32.63","DUALSPOT-UV-BLUE-GREEN-RED-IR","494047","589626","903101","49.509800","19.048798","0.011056","529325","778449","765349","38.491308","13.824534","0.011168","621037","796833","814012","33.608940","11.545641","0.010767","647499","835409","866675","28.474612","9.257641","0.006629","589615","793773","951447","21.471180","6.589996","0.006520","1084","1890","2395","1001","1484","1756","946","1298","1482","931","1077","1148","1077","1198","1252","DualSpot on"
"MA200-0416","49228","109","1","1.10","1.6","2023-07-15T08:55:01","120","2023/07/15","08:55:01","0","0","0.0","13","300","64","80","-1524","-1680","-26268","6","150","150.63","116.21","34.42","30.93","36.8","14.47","90048","32.69","DUALSPOT-UV-BLUE-GREEN-RED-IR","495374","591689","906969","49.668880","19.128598","0.010673","526603","774928","762256","38.599736","13.869762","0.010084","621574","797994","815479","33.701632","11.579308","0.007605","643133","830172","861445","28.546790","9.279731","0.001648","590124","794765","952850","21.534774","6.610904","0.006363","804","1361","1711","691","974","1132","662","812","890","623","643","653","764","848","885","DualSpot on"
"MA200-0416","49229","109","1","1.10","1.6","2023-07-15T09:00:01","120","2023/07/15","09:00:01","0","0","0.0","13","300","64","81","-1468","-1700","-26100","6","150","150.69","116.23","34.46","31.05","36.6","14.48","90052","32.81","DUALSPOT-UV-BLUE-GREEN-RED-IR","496599","593796","911070","49.863876","19.224812","0.010418","527854","777466","765206","38.742864","13.930154","0.010269","621678","798749","816592","33.822088","11.624049","0.008223","644392","832389","864011","28.645644","9.312170","0.004770","590407","795653","954128","21.613358","6.636362","0.005457","985","1639","2050","912","1299","1516","860","1077","1191","853","944","988","944","1031","1070","DualSpot on"
"MA200-0416","49230","109","1","1.10","1.6","2023-07-15T09:05:01","120","2023/07/15","09:05:01","0","0","0.0","13","300","64","83","-1456","-1619","-26240","6","150","150.01","116.13","33.88","31.13","36.4","14.49","90052","32.88","DUALSPOT-UV-BLUE-GREEN-RED-IR","491678","588684","904422","50.135572","19.356038","0.010300","524186","772956","761399","38.949272","14.016885","0.010463","618132","795050","813370","34.000184","11.693444","0.009953","645366","834447","866600","28.793648","9.362892","0.007141","590561","796451","955464","21.731804","6.674909","0.006576","1374","2275","2841","1317","1897","2223","1273","1700","1924","1278","1502","1609","1424","1589","1662","DualSpot on"
"MA200-0416","49231","109","1","1.10","1.6","2023-07-15T09:10:01","120","2023/07/15","09:10:01","0","0","0.0","13","300","68","85","-1408","-1591","-26091","7","150","150.23","116.91","33.32","31.23","36.3","14.51","90056","32.94","DUALSPOT-UV-BLUE-GREEN-RED-IR","838192","729100","907640","0.000000","0.000000","0.000000","792645","905489","761826","0.000000","0.000000","0.000000","887048","910003","813222","0.000000","0.000000","0.000000","872754","928838","861883","0.000000","0.000000","0.000000","736492","858019","949450","0.000000","0.000000","0.000000","","","","","","","","","","","","","","","","Tape advance-DualSpot on"
"MA200-0416","49232","109","1","1.10","1.6","2023-07-15T09:15:01","120","2023/07/15","09:15:01","0","0","0.0","13","300","68","88","-1358","-1695","-26125","7","150","149.76","117.36","32.41","31.31","36.2","14.52","90060","33.00","DUALSPOT-UV-BLUE-GREEN-RED-IR","830726","725138","903972","0.000000","0.000000","0.000000","787648","901780","759399","0.000000","0.000000","0.000000","887005","911609","815265","0.000000","0.000000","0.000000","875788","933402","866576","0.000000","0.000000","0.000000","737555","860157","952132","0.000000","0.000000","0.000000","","","","","","","","","","","","","","","","Tape advance-DualSpot on"
"MA200-0416","49233","109","1","1.10","1.6","2023-07-15T09:20:01","120","2023/07/15","09:20:01","0","0","0.0","13","300","64","90","-1480","-1600","-26152","7","150","150.09","117.26","32.83","31.40","35.9","14.50","90060","33.06","DUALSPOT-UV-BLUE-GREEN-RED-IR","828588","725716","905826","0.463066","0.128488","0.000000","792185","909146","766291","0.332486","0.091863","0.000000","885989","912391","816565","0.278102","0.076001","0.000000","868151","926766","860928","0.224006","0.059658","0.000000","737492","861099","953633","0.165319","0.046261","0.000000","2319","2298","2319","2101","2074","2101","1968","1921","1968","1916","1823","1916","1969","1968","1969","DualSpot on"
"MA200-0416","49234","109","1","1.10","1.6","2023-07-15T09:25:01","120","2023/07/15","09:25:01","0","0","0.0","14","300","64","92","-1492","-1732","-26119","7","150","149.31","116.92","32.39","31.48","35.7","14.48","90060","33.06","DUALSPOT-UV-BLUE-GREEN-RED-IR","829454","727623","908789","0.690946","0.192935","0.000000","786611","903670","761957","0.471878","0.128992","0.000000","886083","913250","817542","0.387949","0.103466","0.000000","869023","928297","862513","0.307732","0.078451","0.000000","737711","861741","954501","0.227914","0.061759","0.000000","1144","1168","1144","883","849","883","780","704","780","718","582","718","747","668","747","DualSpot on"
"MA200-0416","49235","109","1","1.10","1.6","2023-07-15T09:30:01","120","2023/07/15","09:30:01","0","0","0.0","14","300","64","94","-1476","-1692","-26288","7","150","149.90","117.50","32.39","31.54","35.6","14.47","90064","33.13","DUALSPOT-UV-BLUE-GREEN-RED-IR","828720","728079","909908","0.900534","0.252897","0.000000","787111","905097","763409","0.598841","0.161428","0.000000","881031","908723","813699","0.488275","0.128984","0.000000","868869","928697","863037","0.385171","0.097483","0.000000","737224","861548","954412","0.285230","0.076141","0.000000","1047","1087","1047","801","742","801","708","653","708","661","589","661","681","620","681","DualSpot on"
