"Serial number","Datum ID","Session ID","Data format version","Firmware version","App version","Date / time local","Timezone offset (mins)","Date local (yyyy/MM/dd)","Time local (hh:mm:ss)","GPS lat (ddmm.mmmmm)","GPS long (dddmm.mmmmm)","GPS speed (km/h)","GPS sat count","Timebase (s)","Status","Battery remaining (%)","Accel X","Accel Y","Accel Z","Tape position","Flow setpoint (mL/min)","Flow total (mL/min)","Flow1 (mL/min)","Flow2 (mL/min)","Sample temp (C)","Sample RH (%)","Sample dewpoint (C)","Internal pressure (Pa)","Internal temp (C)","Optical config","UV Sen1","UV Sen2","UV Ref","UV ATN1","UV ATN2","UV K","Blue Sen1","Blue Sen2","Blue Ref","Blue ATN1","Blue ATN2","Blue K","Green Sen1","Green Sen2","Green Ref","Green ATN1","Green ATN2","Green K","Red Sen1","Red Sen2","Red Ref","Red ATN1","Red ATN2","Red K","IR Sen1","IR Sen2","IR Ref","IR ATN1","IR ATN2","IR K","UV BC1","UV BC2","UV BCc","Blue BC1","Blue BC2","Blue BCc","Green BC1","Green BC2","Green BCc","Red BC1","Red BC2","Red BCc","IR BC1","IR BC2","IR BCc","Readable status"
"MA200-0416","32072","94","1","1.10","1.4","2023-05-30T16:34:29","120","2023/05/30","16:34:29","-15.801446676254272","35.02756349183619","1.6","17","30","66","50","-16179","3389","-20182","11","150","150.49","116.63","33.86","0.00","0.0","-204.27","89992","34.00","DUALSPOT-UV-BLUE-GREEN-RED-IR","817397","699823","867255","0.000000","0.000000","0.000000","871818","985370","821271","0.000000","0.000000","0.000000","925820","940251","832985","0.000000","0.000000","0.000000","871573","919825","845383","0.000000","0.000000","0.000000","743377","852533","948217","0.000000","0.000000","0.000000","","","","","","","","","","","","","","","","Start up"
"MA200-0416","32073","94","1","1.10","1.4","2023-05-30T16:34:59","120","2023/05/30","16:34:59","-15.801397383213043","35.02757032774389","0.0","18","30","66","49","-23896","548","5588","11","150","150.43","112.94","37.49","35.55","34.8","17.63","90008","34.06","DUALSPOT-UV-BLUE-GREEN-RED-IR","850394","731177","907810","0.000000","0.000000","0.000000","804036","911448","760870","0.000000","0.000000","0.000000","900685","917121","813574","0.000000","0.000000","0.000000","886789","938023","863140","0.000000","0.000000","0.000000","744242","855233","951975","0.000000","0.000000","0.000000","","","","","","","","","","","","","","","","Start up"
"MA200-0416","32074","94","1","1.10","1.4","2023-05-30T16:35:29","120","2023/05/30","16:35:29","-15.801377892494202","35.02756532654166","0.1","17","30","66","49","-23848","492","5344","11","150","150.35","113.50","36.85","35.44","33.4","16.90","90004","34.00","DUALSPOT-UV-BLUE-GREEN-RED-IR","847910","730159","907136","0.000000","0.000000","0.000000","807794","916780","765717","0.000000","0.000000","0.000000","899188","916499","813420","0.000000","0.000000","0.000000","884864","936759","862338","0.000000","0.000000","0.000000","743500","854895","951891","0.000000","0.000000","0.000000","","","","","","","","","","","","","","","","Start up"
"MA200-0416","32075","94","1","1.10","1.4","2023-05-30T16:35:59","120","2023/05/30","16:35:59","-15.801383018493652","35.02757532708347","0.1","17","30","66","48","-23941","475","4845","11","150","149.54","112.94","36.61","35.35","32.4","16.34","90008","34.06","DUALSPOT-UV-BLUE-GREEN-RED-IR","844146","727851","904789","0.000000","0.000000","0.000000","805063","914610","764291","0.000000","0.000000","0.000000","901129","919255","816229","0.000000","0.000000","0.000000","881823","934152","860274","0.000000","0.000000","0.000000","742279","853861","950941","0.000000","0.000000","0.000000","","","","","","","","","","","","","","","","Start up"
"MA200-0416","32076","94","1","1.10","1.4","2023-05-30T16:36:29","120","2023/05/30","16:36:29","-15.801376402378082","35.027557326480746","1.6","17","30","66","49","-23656","1012","5400","11","150","149.90","112.93","36.97","35.27","31.7","15.92","90008","34.06","DUALSPOT-UV-BLUE-GREEN-RED-IR","845685","729968","907856","0.000000","0.000000","0.000000","800018","909621","760436","0.000000","0.000000","0.000000","897943","916618","814183","0.000000","0.000000","0.000000","884663","937685","863822","0.000000","0.000000","0.000000","744109","856307","953837","0.000000","0.000000","0.000000","","","","","","","","","","","","","","","","Start up"
"MA200-0416","32077","94","1","1.10","1.4","2023-05-30T16:36:59","120","2023/05/30","16:36:59","-15.801359951496124","35.02707332931459","1.2","17","30","64","49","-22892","3765","6280","11","150","150.28","112.88","37.41","35.20","31.0","15.52","90028","34.13","DUALSPOT-UV-BLUE-GREEN-RED-IR","842829","729015","907516","0.000000","0.000000","0.000000","798175","909096","760600","0.000000","0.000000","0.000000","896310","916303","814498","0.000000","0.000000","0.000000","883309","937414","864077","0.000000","0.000000","0.000000","743596","856442","954364","0.000000","0.000000","0.000000","","","","","","","","","","","","","","","",""
"MA200-0416","32078","94","1","1.10","1.4","2023-05-30T16:37:29","120","2023/05/30","16:37:29","-15.801339507102966","35.02627666480839","1.6","17","30","64","49","-24164","268","6296","11","150","150.03","113.21","36.82","35.14","30.5","15.23","90040","34.13","DUALSPOT-UV-BLUE-GREEN-RED-IR","842217","729941","909446","0.299489","0.090129","0.000000","797624","909885","761849","0.246942","0.077892","0.000000","894493","915725","814520","0.216662","0.068259","0.000000","882444","937590","864693","0.179582","0.057214","0.000000","738850","851674","949378","0.124725","0.038142","0.000000","15538","14377","15538","16170","15682","16170","15889","15390","15889","15915","15589","15915","15390","14470","15390",""
"MA200-0416","32079","94","1","1.10","1.4","2023-05-30T16:37:59","120","2023/05/30","16:37:59","-15.801091313362122","35.0262306611985","0.4","17","30","64","48","-23748","2320","5332","11","150","149.92","113.32","36.60","35.08","30.1","14.97","90040","34.13","DUALSPOT-UV-BLUE-GREEN-RED-IR","838180","729494","910489","0.819255","0.244529","0.000000","794601","909462","762584","0.661415","0.202854","0.000000","892329","916054","815785","0.566255","0.175839","0.000000","880933","938109","866051","0.464165","0.145375","0.000000","738810","852975","951481","0.318820","0.097224","0.000000","26941","24775","26941","27115","25307","27115","25613","24400","25613","25196","24163","25196","23927","22547","23927",""
"MA200-0416","32080","94","1","1.10","1.4","2023-05-30T16:38:29","120","2023/05/30","16:38:29","-15.801065683364868","35.02625482901931","2.0","17","30","64","48","-23760","2268","5456","11","150","149.80","113.09","36.71","35.04","29.7","14.74","90040","34.19","DUALSPOT-UV-BLUE-GREEN-RED-IR","825912","722082","903093","1.534517","0.467264","0.000000","791143","908779","763268","1.235240","0.383836","0.000000","888989","915454","816449","1.060581","0.333434","0.000000","870624","929472","859127","0.871032","0.275301","0.000000","737210","852632","951838","0.598299","0.184679","0.000000","37149","35641","37149","37615","36551","37615","36290","35645","36290","36095","35512","36095","34522","33283","34522",""
"MA200-0416","32081","94","1","1.10","1.4","2023-05-30T16:38:59","120","2023/05/30","16:38:59","-15.801064372062683","35.0262479968369","0.3","17","30","64","48","-23841","3012","7025","11","150","150.40","113.35","37.05","34.99","29.5","14.55","90044","34.25","DUALSPOT-UV-BLUE-GREEN-RED-IR","821410","721441","904085","2.144106","0.652765","0.000000","787229","907638","763562","1.728404","0.537473","0.000000","885401","914642","816880","1.481080","0.464909","0.000000","868529","929604","860232","1.214611","0.382846","0.000000","736210","852985","953023","0.836383","0.258748","0.000000","31588","29404","31588","32254","30737","32254","30800","29458","30800","30411","29118","30411","29343","27923","29343",""
"MA200-0416","32082","94","1","1.10","1.4","2023-05-30T16:39:29","120","2023/05/30","16:39:29","-15.800901234149933","35.02618016116321","3.5","17","30","64","48","-23448","4220","5452","11","150","150.20","113.30","36.90","34.96","29.2","14.38","90036","34.25","DUALSPOT-UV-BLUE-GREEN-RED-IR","818657","721044","904783","2.601675","0.794845","0.000000","785550","907738","764450","2.095342","0.650775","0.000000","883349","914307","817297","1.798659","0.563913","0.000000","866756","929193","860501","1.476323","0.466031","0.000000","735625","853223","953736","1.011623","0.311964","0.000000","23720","22617","23720","24008","22763","24008","23270","22276","23270","23174","22618","23174","21606","20147","21606",""
"MA200-0416","32083","94","1","1.10","1.4","2023-05-30T16:39:59","120","2023/05/30","16:39:59","-15.800877273082733","35.02792016044259","7.6","18","30","64","47","-23676","1520","5420","11","150","149.46","113.46","36.00","34.93","29.0","14.24","89984","34.31","DUALSPOT-UV-BLUE-GREEN-RED-IR","811272","717828","902487","3.147411","0.961046","-0.019533","779752","904380","762825","2.536815","0.786912","0.000000","874120","907596","812437","2.171802","0.677912","0.000000","862834","927389","859774","1.779007","0.558460","0.000000","733103","851838","952895","1.220869","0.373742","0.000000","28251","27114","26615","28845","28032","28845","27304","26288","27304","26764","25757","26764","25762","23971","25762",""
"MA200-0416","32084","94","1","1.10","1.4","2023-05-30T16:40:29","120","2023/05/30","16:40:29","-15.800455033779144","35.02863949537277","6.1","18","30","64","48","-23984","-955","5280","11","150","150.01","114.29","35.71","34.90","28.8","14.10","89992","34.31","DUALSPOT-UV-BLUE-GREEN-RED-IR","811385","719669","905828","3.562107","1.089044","-0.005013","779649","906010","764908","2.866572","0.888776","0.000000","878485","913705","818506","2.459770","0.767046","0.000000","864356","930268","863018","2.018010","0.634223","0.000000","734045","853744","955455","1.385164","0.424790","0.000000","21311","21051","20937","21388","21145","21388","20918","20721","20918","20979","21284","20979","20080","19968","20080",""
"MA200-0416","32085","94","1","1.10","1.4","2023-05-30T16:40:59","120","2023/05/30","16:40:59","-15.800269901752472","35.028602328151464","0.3","18","30","64","48","-24052","2172","4476","11","150","149.53","113.79","35.73","34.88","28.6","13.98","90012","34.31","DUALSPOT-UV-BLUE-GREEN-RED-IR","810242","719808","906655","3.874820","1.187711","0.001785","778764","906078","765391","3.114498","0.968879","0.012948","872822","908704","814467","2.675038","0.837904","0.000000","862468","929051","862272","2.198124","0.694048","0.000000","733602","853785","955776","1.509143","0.462934","0.000000","16141","16219","16253","16151","16619","16830","15705","16464","15705","15879","16797","15879","15219","14912","15219",""
"MA200-0416","32086","94","1","1.10","1.4","2023-05-30T16:41:29","120","2023/05/30","16:41:29","-15.800250589847565","35.0286021605134","0.4","18","30","64","48","-24244","2360","4868","11","150","149.51","113.68","35.82","34.86","28.4","13.87","90012","34.38","DUALSPOT-UV-BLUE-GREEN-RED-IR","808658","719162","906301","4.032007","1.236492","-0.005526","777615","905481","765162","3.233617","1.006616","0.002406","871970","908470","814499","2.775878","0.869672","0.000000","862988","930114","863493","2.279988","0.719213","0.000000","729180","848973","950527","1.566591","0.478802","0.000000","8121","7998","7944","7767","7809","7828","7364","7363","7364","7224","7048","7224","7059","6188","7059",""
"MA200-0416","32087","94","1","1.10","1.4","2023-05-30T16:41:59","120","2023/05/30","16:41:59","-15.800261855125427","35.028596663847566","0.6","17","30","64","48","-23920","2356","4216","11","150","150.13","114.13","35.99","34.84","28.2","13.77","90016","34.38","DUALSPOT-UV-BLUE-GREEN-RED-IR","807716","719080","906762","4.200463","1.290912","0.008092","771621","899111","760200","3.357822","1.047666","0.019420","871674","908676","815087","2.882748","0.906538","0.000000","862564","930100","863842","2.368447","0.751060","0.000000","729199","849305","951105","1.625598","0.497900","0.000000","8669","8880","8974","8067","8454","8630","7774","8503","7774","7775","8876","7775","7222","7412","7222",""
"MA200-0416","32088","94","1","1.10","1.4","2023-05-30T16:42:29","120","2023/05/30","16:42:29","-15.800287425518036","35.028627997264266","0.1","17","30","64","48","-24112","2288","3960","11","150","150.32","113.74","36.58","34.82","28.1","13.68","90016","34.38","DUALSPOT-UV-BLUE-GREEN-RED-IR","807028","719296","907499","4.370905","1.348899","0.017719","771086","899257","760605","3.484529","1.097995","0.073378","870921","908540","815211","2.988905","0.948374","0.000000","862425","930534","864428","2.456303","0.787514","0.000000","729094","849543","951547","1.687120","0.518368","0.000000","8801","9312","9540","8258","10201","11094","7748","9496","7748","7749","9999","7749","7555","7817","7555",""
"MA200-0416","32089","94","1","1.10","1.4","2023-05-30T16:42:59","120","2023/05/30","16:42:59","-15.80029022693634","35.02860732935369","0.0","17","30","64","47","-24072","2392","4016","11","150","149.92","114.31","35.62","34.81","28.0","13.58","90016","34.38","DUALSPOT-UV-BLUE-GREEN-RED-IR","805977","719190","907815","4.534686","1.400825","0.005458","775943","905705","766370","3.602946","1.133472","-0.016503","870291","908525","815458","3.089338","0.979119","-0.008523","861820","930401","864560","2.538951","0.813436","0.000000","728962","849734","951937","1.745601","0.536396","0.000000","8415","8563","8629","7679","7384","7248","7294","7166","7107","7254","7302","7254","7147","7070","7147",""
"MA200-0416","32090","94","1","1.10","1.4","2023-05-30T16:43:29","120","2023/05/30","16:43:29","-15.800287067890167","35.02860349416733","0.2","17","30","64","47","-24008","2376","4372","11","150","150.11","113.93","36.19","34.80","27.8","13.51","90016","34.44","DUALSPOT-UV-BLUE-GREEN-RED-IR","805746","719803","909064","4.701799","1.452869","-0.006177","770287","899829","761668","3.724640","1.170738","-0.014830","869296","908151","815380","3.197217","1.012802","-0.007971","861105","930190","864586","2.627640","0.839412","0.000000","728486","849568","951873","1.807834","0.553809","0.000000","8615","8447","8372","7918","7634","7504","7861","7728","7666","7810","7201","7810","7630","6722","7630",""
"MA200-0416","32091","94","1","1.10","1.4","2023-05-30T16:43:59","120","2023/05/30","16:43:59","-15.800276160240173","35.02861866168678","0.0","17","30","64","47","-24116","2224","4544","11","150","150.29","113.84","36.45","34.79","27.7","13.43","90016","34.44","DUALSPOT-UV-BLUE-GREEN-RED-IR","804297","719201","908688","4.841681","1.495920","-0.012273","769256","899264","761411","3.829110","1.202863","-0.015981","869230","908647","816027","3.282642","1.037287","-0.055097","861356","930910","865472","2.700609","0.862580","0.000000","728655","850084","952590","1.857545","0.567928","0.000000","7217","6937","6812","6802","6533","6410","6229","5577","5275","6430","6377","6430","6099","5411","6099",""
"MA200-0416","32092","94","1","1.10","1.4","2023-05-30T16:44:29","120","2023/05/30","16:44:29","-15.800244927406311","35.02860766276717","0.1","17","30","64","47","-24036","2452","4616","11","150","150.01","113.75","36.25","34.78","27.6","13.36","90020","34.44","DUALSPOT-UV-BLUE-GREEN-RED-IR","803638","719175","909069","4.972010","1.540676","0.020303","768559","898993","761455","3.926378","1.235855","0.021823","868595","908463","816097","3.366274","1.065450","0.022719","861218","931166","865881","2.768813","0.884378","0.000000","728780","850498","953241","1.906829","0.583372","0.000000","6729","7251","7485","6339","6746","6933","6103","6449","6609","6015","6032","6015","6052","5950","6052",""
"MA200-0416","32093","94","1","1.10","1.4","2023-05-30T16:44:59","120","2023/05/30","16:44:59","-15.800611555576324","35.02865882962942","3.2","17","30","64","47","-23816","1764","4504","11","150","149.43","113.81","35.62","34.78","27.5","13.29","89984","34.44","DUALSPOT-UV-BLUE-GREEN-RED-IR","803274","719279","909430","5.058686","1.567556","-0.002625","768801","899695","762170","3.991264","1.256734","0.009919","867887","908042","815883","3.423518","1.085716","0.047080","860072","930189","865083","2.814209","0.900000","0.000000","728124","849873","952594","1.937263","0.591656","0.000000","4473","4432","4414","4226","4345","4400","4175","4723","4978","4001","4400","4001","3735","3249","3735",""
"MA200-0416","32094","94","1","1.10","1.4","2023-05-30T16:45:29","120","2023/05/30","16:45:29","-15.800800740718842","35.0286643281579","0.0","17","30","64","46","-23808","3012","4068","11","150","153.40","113.13","40.27","34.78","27.4","13.24","89976","34.44","DUALSPOT-UV-BLUE-GREEN-RED-IR","800427","717447","907497","5.193606","1.610792","-0.032585","766055","897119","760242","4.092210","1.287979","-0.057528","866369","907048","815191","3.508901","1.111161","-0.089203","858191","928657","863874","2.884639","0.921929","0.000000","727141","849047","951861","1.986076","0.607384","0.000000","7005","6305","5991","6615","5751","5354","6266","5245","4772","6246","5462","6246","6027","5455","6027",""
"MA200-0416","32095","94","1","1.10","1.4","2023-05-30T16:45:59","120","2023/05/30","16:45:59","-15.801017880439758","35.0291499979794","6.2","17","30","64","47","-21740","5584","10984","11","150","149.91","113.65","36.26","34.76","27.3","13.16","89944","34.50","DUALSPOT-UV-BLUE-GREEN-RED-IR","799398","718342","909731","5.489398","1.703666","-0.004263","765609","898472","762093","4.326225","1.359933","-0.012870","865214","907401","816187","3.704011","1.172887","-0.003321","859179","931055","866671","3.043504","0.970995","-0.016122","727726","850593","953977","2.098121","0.640731","0.000000","15286","15045","14937","15264","14712","14459","14252","14134","14079","14023","13577","13368","13772","12848","13772",""
"MA200-0416","32096","94","1","1.10","1.4","2023-05-30T16:46:29","120","2023/05/30","16:46:29","-15.801051557064056","35.02721266262233","6.0","17","30","64","47","-23392","3072","6760","11","150","150.49","114.22","36.27","34.76","27.2","13.09","90012","34.44","DUALSPOT-UV-BLUE-GREEN-RED-IR","796659","717372","909380","5.866139","1.825124","0.003695","763663","897619","761981","4.626673","1.458318","0.009425","863321","906681","816082","3.966278","1.256275","0.000469","857357","930154","866307","3.260173","1.041245","0.009200","726747","850160","953842","2.249582","0.689188","0.000000","19373","19668","19802","19500","20108","20389","19063","19087","19098","19031","19431","19619","18524","18663","18524",""
"MA200-0416","32097","94","1","1.10","1.4","2023-05-30T16:46:59","120","2023/05/30","16:46:59","-15.801030218601227","35.02455032803118","9.4","17","30","64","47","-23780","1976","5820","11","150","149.73","113.75","35.98","34.74","27.1","13.05","90060","34.44","DUALSPOT-UV-BLUE-GREEN-RED-IR","772335","709786","908924","8.856525","2.814642","0.007168","743925","889786","761748","7.163805","2.288944","0.006854","843854","900004","816026","6.195360","1.978689","0.005652","840486","923867","865780","5.143938","1.642972","0.002806","716432","846234","953682","3.633770","1.123411","-0.003279","154408","161548","164874","165346","171156","173884","162691","166709","168594","166145","167801","168578","169987","168604","167985",""
"MA200-0416","32098","94","1","1.10","1.4","2023-05-30T16:47:29","120","2023/05/30","16:47:29","-15.800990343093872","35.02287366241217","3.2","17","30","64","47","-23592","2492","6012","11","150","150.69","114.70","35.98","34.73","27.0","12.97","90044","34.38","DUALSPOT-UV-BLUE-GREEN-RED-IR","767047","708231","909122","9.544609","3.050785","0.012716","739185","887542","761392","7.739742","2.486402","0.015553","839317","898227","815876","6.700128","2.149993","0.016046","836413","922107","865334","5.567008","1.783150","0.013717","713795","844975","953225","3.945182","1.222917","0.006641","35234","38546","40101","37223","40680","42317","36535","39524","40937","37005","39084","40064","37926","38631","38947",""
"MA200-0416","32099","94","1","1.10","1.4","2023-05-30T16:47:59","120","2023/05/30","16:47:59","-15.800964534282684","35.02208066172898","1.6","17","30","64","47","-23416","1854","5775","11","150","149.43","113.70","35.73","34.70","26.9","12.91","90040","34.38","DUALSPOT-UV-BLUE-GREEN-RED-IR","756784","703973","907267","10.425180","3.354190","0.011932","731205","883639","760550","8.485044","2.736105","0.010470","832040","895437","815641","7.349992","2.365743","0.010445","829787","919129","864595","6.115772","1.962769","0.009417","709664","843110","952742","4.351957","1.351666","0.002350","45490","49873","51952","48595","51805","53333","47453","50129","51399","48423","50432","51382","49978","50334","50494",""
"MA200-0416","32100","94","1","1.10","1.4","2023-05-30T16:48:29","120","2023/05/30","16:48:29","-15.800953924655914","35.021988494321704","0.2","17","30","64","46","-23400","2496","5492","11","150","149.76","113.84","35.93","34.68","26.8","12.81","90040","34.31","DUALSPOT-UV-BLUE-GREEN-RED-IR","752980","702099","906012","11.132528","3.602977","0.013005","732816","887312","764484","9.074481","2.940775","0.014236","828380","893142","814321","7.879591","2.546143","0.013320","825964","916368","862701","6.568262","2.113450","0.011457","707266","841251","951187","4.685383","1.459996","0.008774","36496","40674","42674","38384","42234","44079","38624","41689","43153","39878","42079","43123","40915","42123","42670",""
"MA200-0416","32101","94","1","1.10","1.4","2023-05-30T16:48:59","120","2023/05/30","16:48:59","-15.800916910171509","35.021650495007634","1.2","17","30","64","46","-23468","1880","5792","11","150","150.01","113.67","36.34","34.67","26.7","12.76","90036","34.31","DUALSPOT-UV-BLUE-GREEN-RED-IR","752486","702828","907823","11.405960","3.700451","0.012765","727714","882334","760790","9.294514","3.016849","0.011587","827953","893770","815418","8.069247","2.610307","0.009834","825645","916948","863673","6.728479","2.167868","0.012548","707220","841843","952161","4.798200","1.495625","-0.003726","14129","15755","16536","14350","15520","16082","13852","14660","15046","14141","15025","15445","13864","13697","13621",""
"MA200-0416","32102","94","1","1.10","1.4","2023-05-30T16:49:29","120","2023/05/30","16:49:29","-15.800820231437683","35.02139916084707","0.8","17","30","64","47","-23503","1588","5492","11","150","149.96","113.33","36.64","34.65","26.6","12.71","90036","34.31","DUALSPOT-UV-BLUE-GREEN-RED-IR","749823","701050","905982","11.559765","3.752370","0.005314","730866","886908","765015","9.417748","3.059078","0.008666","826722","893066","815073","8.177561","2.647077","0.008434","824789","916551","863542","6.816746","2.196484","0.000613","706730","841617","952126","4.862362","1.515607","-0.011559","7971","8323","8493","8061","8545","8777","7935","8332","8522","7814","7836","7847","7909","7619","7488",""
"MA200-0416","32103","94","1","1.10","1.4","2023-05-30T16:49:59","120","2023/05/30","16:49:59","-15.800731658935547","35.02119549550116","1.2","17","30","72","46","-23766","833","6854","11","150","150.43","113.92","36.50","34.64","26.5","12.64","90044","34.31","DUALSPOT-UV-BLUE-GREEN-RED-IR","648862","607249","785116","11.684006","3.795583","0.009622","729928","886482","764970","9.521064","3.094226","0.008807","825561","892439","814740","8.266568","2.677065","0.008558","823839","916047","863292","6.891589","2.220833","0.003212","706234","841411","952024","4.915016","1.530794","-0.034515","6405","6953","7216","6723","7138","7338","6486","6820","6980","6591","6692","6740","6456","5811","5520",""
"MA200-0416","32104","94","1","1.10","1.4","2023-05-30T16:50:29","120","2023/05/30","16:50:29","-15.800672829151154","35.021078161895275","0.4","17","30","64","46","-23448","1096","6828","11","150","149.90","113.49","36.41","34.63","26.5","12.60","90044","34.38","DUALSPOT-UV-BLUE-GREEN-RED-IR","745070","699772","906488","12.222563","3.978447","0.006508","726964","885691","765436","9.985658","3.243644","0.000352","822290","891475","814949","8.681726","2.806234","-0.005392","819808","913843","862196","7.244110","2.328801","-0.009901","704483","840815","952126","5.170416","1.607067","-0.021586","27873","29498","30282","30349","30421","30456","30371","29452","29013","31164","29749","29079","31438","29263","28282",""
"MA200-0416","32105","94","1","1.10","1.4","2023-05-30T16:50:59","120","2023/05/30","16:50:59","-15.800668060779572","35.021044827997684","0.2","17","30","64","46","-23470","2091","6366","11","150","149.96","113.72","36.24","34.63","26.5","12.58","90044","34.38","DUALSPOT-UV-BLUE-GREEN-RED-IR","743148","698936","906095","12.458055","4.062730","0.012405","725399","884839","765193","10.180135","3.310503","0.010280","820854","890851","814836","8.854115","2.864485","0.009261","818508","913181","861964","7.390917","2.376974","0.005686","703510","840214","951731","5.275350","1.640711","0.001688","12162","13660","14385","12677","13677","14159","12585","13345","13709","12951","13336","13519","12889","12969","13005",""
"MA200-0416","32106","94","1","1.10","1.4","2023-05-30T16:51:29","120","2023/05/30","16:51:29","-15.800562024116516","35.02084349654615","0.6","17","30","64","46","-23441","1587","6808","11","150","149.40","113.54","35.86","34.62","26.4","12.55","90052","34.38","DUALSPOT-UV-BLUE-GREEN-RED-IR","741104","698058","905670","12.676624","4.140455","0.012441","723990","884175","765106","10.361778","3.373993","0.013200","818764","889530","814084","9.012336","2.918487","0.011844","816938","912286","861514","7.524352","2.422124","0.012676","702298","839339","951060","5.373852","1.672905","0.008989","11306","12732","13423","11859","13126","13738","11569","12503","12951","11790","12633","13033","12118","12542","12733",""
"MA200-0416","32107","94","1","1.10","1.4","2023-05-30T16:51:59","120","2023/05/30","16:51:59","-15.800473034381866","35.02073849365115","1.2","17","30","64","46","-23408","2112","5716","11","150","149.89","113.18","36.71","34.61","26.3","12.49","90056","34.38","DUALSPOT-UV-BLUE-GREEN-RED-IR","737458","695644","903215","12.907148","4.219927","0.006608","720909","881506","763260","10.550869","3.438045","0.005836","816555","888076","813146","9.176880","2.974336","0.006991","813705","909504","859244","7.661137","2.466166","-0.001443","700893","838182","950018","5.471115","1.703637","-0.007156","11963","12714","13078","12385","12933","13198","12070","12629","12897","12125","12035","11992","12005","11693","11552",""
"MA200-0416","32108","94","1","1.10","1.4","2023-05-30T16:52:29","120","2023/05/30","16:52:29","-15.800264358520508","35.02043249644339","0.7","17","30","64","46","-23684","1388","5948","11","150","149.63","113.88","35.75","34.61","26.3","12.47","90060","34.38","DUALSPOT-UV-BLUE-GREEN-RED-IR","734914","696237","906262","13.412106","4.405828","0.015260","718096","881341","764710","10.982728","3.593464","0.016278","813878","888096","814658","9.551865","3.105961","0.015605","813369","911693","862586","7.973705","2.573645","0.015487","700298","839255","952225","5.700664","1.780084","0.014276","26043","30544","32745","28112","32229","34232","27337","30568","32125","27536","30163","31415","28157","29873","30652",""
"MA200-0416","32109","94","1","1.10","1.4","2023-05-30T16:52:59","120","2023/05/30","16:52:59","-15.800170063972473","35.02034249715507","0.9","17","30","64","45","-23312","2040","6044","11","150","149.27","113.50","35.77","34.61","26.2","12.42","90060","34.38","DUALSPOT-UV-BLUE-GREEN-RED-IR","725672","691409","902848","14.337465","4.739559","0.012369","710802","876692","762697","11.772654","3.869249","0.011747","807162","884691","813381","10.251497","3.345816","0.011244","806380","907337","860090","8.570795","2.773088","0.009480","695798","836246","950111","6.141771","1.922985","0.006353","47886","54796","58208","51593","57152","59873","51175","55667","57843","52778","55935","57446","54290","55804","56494",""
"MA200-0416","32110","94","1","1.10","1.4","2023-05-30T16:53:29","120","2023/05/30","16:53:29","-15.800113022327423","35.020190328359604","0.2","17","30","64","46","-23576","2228","6020","11","150","150.49","113.34","37.16","34.60","26.2","12.39","90068","34.38","DUALSPOT-UV-BLUE-GREEN-RED-IR","724845","692360","905377","14.850670","4.925115","0.008982","709907","877418","764210","12.197184","4.018230","0.007795","805967","885018","814476","10.629827","3.475564","0.006030","806383","908759","862121","8.892442","2.880257","0.002652","695662","837124","951659","6.378738","2.000315","-0.001054","26596","29332","30690","27768","29724","30686","27714","28991","29612","28472","28937","29160","29208","29074","29013",""
"MA200-0416","32111","94","1","1.10","1.4","2023-05-30T16:53:59","120","2023/05/30","16:53:59","-15.800099670886993","35.02013466320932","1.2","17","30","64","46","-23528","2504","5872","11","150","150.09","113.60","36.49","34.60","26.1","12.37","90072","34.38","DUALSPOT-UV-BLUE-GREEN-RED-IR","722448","691262","904874","15.137560","5.029951","0.011292","708841","877334","764710","12.427534","4.099346","0.010112","803950","883894","814012","10.828850","3.544461","0.009568","804368","907444","861356","9.057502","2.936273","0.008527","694647","836500","951291","6.496456","2.038579","0.002637","14832","16874","17891","15031","16479","17192","14544","15675","16226","14576","15401","15797","14475","14648","14727",""
"MA200-0416","32112","94","1","1.10","1.4","2023-05-30T16:54:29","120","2023/05/30","16:54:29","-15.800179123878479","35.019809825345874","0.3","17","30","64","45","-23564","1432","5388","11","150","149.73","113.46","36.27","34.60","26.1","12.34","90072","34.38","DUALSPOT-UV-BLUE-GREEN-RED-IR","719621","689432","903168","15.347015","5.107773","0.012750","706231","875038","763171","12.595651","4.160249","0.013179","802063","882638","813231","10.974348","3.595787","0.012161","801433","904854","859226","9.178460","2.977174","0.008588","692904","834888","949728","6.581239","2.065939","0.002081","10843","12603","13480","10984","12448","13170","10646","11749","12286","10695","11314","11610","10438","10538","10583",""
"MA200-0416","32113","94","1","1.10","1.4","2023-05-30T16:54:59","120","2023/05/30","16:54:59","-15.800252735614777","35.01971782930195","0.0","17","30","64","46","-23336","2576","5964","11","150","149.76","113.37","36.40","34.59","26.0","12.31","90076","34.38","DUALSPOT-UV-BLUE-GREEN-RED-IR","719347","689952","904376","15.533138","5.173389","0.008251","705988","875508","763947","12.741337","4.210283","0.007395","802164","883430","814275","11.100720","3.638255","0.005849","803164","907369","861907","9.283204","3.012765","0.008558","693874","836439","951702","6.657314","2.090445","0.000728","9643","10588","11060","9526","10190","10517","9254","9686","9897","9269","9810","10069","9374","9405","9419",""
"MA200-0416","32114","94","1","1.10","1.4","2023-05-30T16:55:29","120","2023/05/30","16:55:29","-15.800248205661774","35.01969865895808","0.1","17","30","64","45","-23684","1888","7256","11","150","149.09","112.25","36.83","34.59","26.0","12.29","90076","34.38","DUALSPOT-UV-BLUE-GREEN-RED-IR","716540","688153","902665","15.698759","5.232597","0.007536","703579","873456","762562","12.872253","4.255230","0.005024","799950","881805","813162","11.213903","3.675925","0.001856","800277","904817","859795","9.377685","3.043479","-0.001490","692067","834716","950005","6.725017","2.110845","-0.020112","8666","9441","9828","8645","9046","9243","8371","8490","8549","8444","8365","8327","8425","7736","7421",""
"MA200-0416","32115","94","1","1.10","1.4","2023-05-30T16:55:59","120","2023/05/30","16:55:59","-15.800624430179596","35.01926049590111","5.2","17","30","64","45","-24220","1524","4400","11","150","150.16","113.49","36.68","34.59","26.0","12.29","90072","34.38","DUALSPOT-UV-BLUE-GREEN-RED-IR","715056","688448","904227","16.084028","5.368353","0.007423","703229","874719","764423","13.176188","4.360176","0.007043","798290","881475","813591","11.474606","3.764998","0.006840","799460","905176","860745","9.593461","3.114628","0.003045","691566","835006","950773","6.882398","2.160238","-0.006383","19940","21741","22643","19854","21213","21885","19072","20163","20696","19075","19463","19649","19372","18813","18557",""
"MA200-0416","32116","94","1","1.10","1.4","2023-05-30T16:56:29","120","2023/05/30","16:56:29","-15.801093697547913","35.017343332991004","5.3","17","30","64","45","-23808","1148","5788","11","150","150.01","113.67","36.34","34.59","26.0","12.29","90084","34.38","DUALSPOT-UV-BLUE-GREEN-RED-IR","713073","687823","904287","16.377422","5.463644","0.001431","701240","873636","764030","13.410610","4.432394","-0.004279","797150","881426","814014","11.677096","3.825866","-0.008342","798293","904932","860904","9.760042","3.161865","-0.020556","690974","835006","951056","6.999922","2.192099","-0.040579","15160","15402","15524","15288","14733","14458","14789","13907","13476","14702","13041","12246","14443","12248","11248",""
"MA200-0416","32117","94","1","1.10","1.4","2023-05-30T16:56:59","120","2023/05/30","16:56:59","-15.801219403743744","35.01680266298354","0.0","17","30","64","45","-24272","1832","2992","11","150","149.96","113.49","36.48","34.57","26.0","12.28","90088","34.31","DUALSPOT-UV-BLUE-GREEN-RED-IR","709910","686347","903358","16.711134","5.575311","0.003473","698889","872311","763518","13.674052","4.514284","-0.003777","794684","880173","813425","11.907853","3.894991","-0.009448","802433","910875","867036","9.951662","3.218448","-0.013727","693825","839315","956324","7.136142","2.229538","-0.037436","17271","17980","18336","17209","16642","16363","16881","15732","15174","16940","15562","14904","16768","14337","13233",""
"MA200-0416","32118","94","1","1.10","1.4","2023-05-30T16:57:29","120","2023/05/30","16:57:29","-15.801247239112854","35.01681683026254","0.1","17","30","64","45","-24276","1980","2936","11","150","150.29","113.49","36.81","34.56","26.0","12.27","90092","34.31","DUALSPOT-UV-BLUE-GREEN-RED-IR","713265","690903","910324","17.017078","5.680652","0.004973","696503","870576","762547","13.902106","4.589189","0.001336","796557","883342","816823","12.101312","3.956901","-0.001666","793997","902223","859219","10.109079","3.266901","-0.008062","692464","838291","955513","7.250789","2.263294","-0.021346","15834","16809","17298","14897","15086","15179","14152","13964","13873","13916","13206","12867","14112","12811","12221",""
"MA200-0416","32119","94","1","1.10","1.4","2023-05-30T16:57:59","120","2023/05/30","16:57:59","-15.801085531711578","35.01714966259897","7.1","17","30","64","45","-24175","2920","4241","11","150","150.03","113.56","36.46","34.55","26.0","12.26","90076","34.31","DUALSPOT-UV-BLUE-GREEN-RED-IR","708373","688740","909360","17.350950","5.800461","0.008654","692704","868488","761939","14.161522","4.677606","0.005941","793526","882311","816995","12.318781","4.028546","0.003026","791321","901178","859120","10.286962","3.323162","-0.002195","690858","837756","955597","7.378559","2.301536","-0.014818","17267","19298","20318","16934","17976","18489","15898","16312","16513","15714","15479","15367","15716","14650","14167",""
"MA200-0416","32120","94","1","1.10","1.4","2023-05-30T16:58:29","120","2023/05/30","16:58:29","-15.800811052322388","35.0187843311578","0.9","17","30","64","45","-24168","700","4372","11","150","150.36","113.33","37.03","34.55","26.0","12.26","0","0.00","DUALSPOT-UV-BLUE-GREEN-RED-IR","704338","686969","908616","18.102756","6.071533","0.007436","689462","866669","761409","14.775306","4.892612","0.006574","789829","880279","816083","12.863959","4.215323","0.005221","794399","906537","865140","10.750631","3.476465","0.001592","688372","836016","954321","7.726330","2.414560","-0.001037","38965","42993","45026","40151","43040","44470","39939","41873","42815","41048","41532","41763","42869","42634","42528",""
"MA200-0416","32121","94","1","1.10","1.4","2023-05-30T16:58:59","120","2023/05/30","16:58:59","-15.800740480422974","35.018978828564286","4.4","17","30","64","45","-24208","1808","4052","11","150","149.34","113.46","35.88","34.53","25.9","12.18","0","0.00","DUALSPOT-UV-BLUE-GREEN-RED-IR","700006","683709","905176","18.241358","6.125797","0.014469","690923","869581","764578","14.886011","4.934265","0.014858","786986","877905","814354","12.956843","4.249578","0.015311","790491","902756","861883","10.827400","3.505015","0.019085","686168","833812","952091","7.780296","2.433123","0.014564","7175","8883","9747","7233","8606","9287","6796","7927","8478","6788","7984","8556","6644","7228","7493",""
"MA200-0416","32122","94","1","1.10","1.4","2023-05-30T16:59:29","120","2023/05/30","16:59:29","-15.800536096096039","35.01922449469566","0.2","17","30","64","45","-24058","2458","4195","11","150","149.73","113.38","36.35","34.52","25.9","12.15","90068","34.19","DUALSPOT-UV-BLUE-GREEN-RED-IR","698711","684334","907422","18.766376","6.322912","0.010923","689928","870271","766117","15.315710","5.092098","0.011691","785563","878157","815520","13.332600","4.384809","0.011574","789604","903417","863356","11.144111","3.615511","0.010355","685736","834420","953437","8.015499","2.514325","0.012550","27199","31849","34211","28096","32187","34224","27515","30885","32536","28025","30495","31681","28980","31204","32221",""
"MA200-0416","32123","94","1","1.10","1.4","2023-05-30T16:59:59","120","2023/05/30","16:59:59","-15.80053973197937","35.01926599629223","1.9","17","30","64","45","-24144","3088","3964","11","150","149.39","113.41","35.98","34.50","25.8","12.09","90068","34.19","DUALSPOT-UV-BLUE-GREEN-RED-IR","694931","682582","906738","19.206694","6.491239","0.012307","686963","868618","765742","15.676132","5.224844","0.012400","782711","876799","815224","13.642483","4.496919","0.012686","786956","901937","862773","11.400860","3.706878","0.013396","684330","833772","953343","8.199142","2.575365","0.007920","22805","27478","29864","23560","27350","29245","22686","25869","27434","22714","25477","26808","22621","23699","24192",""
"MA200-0416","32124","94","1","1.10","1.4","2023-05-30T17:00:29","120","2023/05/30","17:00:29","-15.800246179103851","35.01958032697439","2.4","17","30","64","45","-24236","1572","3904","11","150","149.90","113.37","36.53","34.49","25.8","12.08","90064","34.19","DUALSPOT-UV-BLUE-GREEN-RED-IR","690521","680271","905245","19.624692","6.647245","0.009839","683325","866178","764676","16.018211","5.348463","0.009630","779895","875591","815076","13.939386","4.601108","0.008415","784662","901024","862758","11.647987","3.790534","0.005981","682677","832927","953029","8.378185","2.634998","0.005581","21656","25083","26839","22369","25086","26449","21743","23679","24632","21870","22975","23508","22062","22804","23144",""
"MA200-0416","32125","94","1","1.10","1.4","2023-05-30T17:00:59","120","2023/05/30","17:00:59","-15.799630045890808","35.0200018286705","2.4","17","30","64","44","-24236","1560","3864","11","150","149.73","113.38","36.35","34.48","25.7","12.04","90068","34.19","DUALSPOT-UV-BLUE-GREEN-RED-IR","678398","675644","905454","21.405170","7.346866","0.011942","672518","860638","764266","17.553116","5.934597","0.012758","768891","870691","814681","15.302210","5.109447","0.012870","775089","896745","862324","12.814572","4.213589","0.012747","676362","829991","952601","9.252064","2.940434","0.012610","92239","113042","123913","100361","119531","129322","99795","116097","124269","103231","116759","123386","107673","117374","121894",""
"MA200-0416","32126","94","1","1.10","1.4","2023-05-30T17:01:29","120","2023/05/30","17:01:29","-15.800337433815002","35.02088049426675","7.4","17","30","64","44","-24228","1988","2592","11","150","149.34","112.75","36.59","34.46","25.7","12.03","90048","34.13","DUALSPOT-UV-BLUE-GREEN-RED-IR","673063","672071","902259","21.842470","7.518993","0.011228","668748","857772","762804","17.917562","6.072080","0.011018","764495","867469","812649","15.628470","5.230551","0.011384","769594","891886","858506","13.094453","4.314011","0.010408","673182","827181","950055","9.460369","3.012192","0.008771","22780","27634","30182","23961","27858","29856","24023","27482","29222","24903","27538","28833","25808","27399","28143",""
"MA200-0416","32127","94","1","1.10","1.4","2023-05-30T17:01:59","120","2023/05/30","17:01:59","-15.800760686397552","35.0219968277961","5.5","17","30","64","45","-24512","2284","2148","11","150","149.51","113.25","36.26","34.45","25.7","11.99","90028","34.13","DUALSPOT-UV-BLUE-GREEN-RED-IR","670645","671650","903447","22.357720","7.723144","0.011908","666290","856841","763194","18.357258","6.239731","0.012218","762918","867725","814024","16.020914","5.377208","0.012549","769118","893181","860751","13.428661","4.435361","0.012419","672781","827966","951771","9.708126","3.098688","0.012072","26723","33070","36420","28783","34276","37105","28770","33580","36010","29608","33577","35534","30562","33324","34619",""
"MA200-0416","32128","94","1","1.10","1.4","2023-05-30T17:02:29","120","2023/05/30","17:02:29","-15.80092740058899","35.0231903269887","6.7","17","30","64","44","-24080","2724","3680","11","150","150.70","113.38","37.32","34.42","25.7","11.95","90036","34.06","DUALSPOT-UV-BLUE-GREEN-RED-IR","674822","676984","911558","22.678334","7.847467","0.009433","664860","856225","763261","18.627526","6.340505","0.008992","760810","866424","813406","16.260412","5.463767","0.007904","773345","899136","866995","13.634195","4.507405","0.006476","671493","827060","951101","9.860222","3.149667","0.002645","16609","19565","21129","17671","20016","21227","17537","19255","20124","18187","19366","19949","18740","19081","19242",""
"MA200-0416","32129","94","1","1.10","1.4","2023-05-30T17:02:59","120","2023/05/30","17:02:59","-15.800872564315796","35.025670163333416","9.1","17","30","64","44","-23916","2264","1224","11","150","150.49","113.76","36.73","34.41","25.6","11.92","90032","34.06","DUALSPOT-UV-BLUE-GREEN-RED-IR","669688","673284","907877","23.052686","7.996584","0.011436","660920","852784","761098","18.948424","6.461609","0.010770","761041","868225","815949","16.546778","5.568778","0.010273","763490","889021","857961","13.878312","4.593599","0.008851","669281","825324","949690","10.038685","3.210208","0.006918","19327","23847","26247","20911","24444","26272","20898","23737","25178","21528","23545","24543","21914","23026","23549",""
"MA200-0416","32130","94","1","1.10","1.4","2023-05-30T17:03:29","120","2023/05/30","17:03:29","-15.800885558128357","35.02687266282737","0.1","17","30","64","44","-24156","2460","3412","11","150","149.87","113.13","36.74","34.39","25.6","11.88","90020","34.00","DUALSPOT-UV-BLUE-GREEN-RED-IR","668750","673424","909017","23.303274","8.095140","0.010485","660162","852930","761860","19.153990","6.539692","0.010689","760769","868930","817139","16.725634","5.635071","0.010500","769932","897412","866569","14.029712","4.648828","0.011092","669350","826000","950810","10.148365","3.248619","0.010180","13010","15755","17217","13470","15755","16939","13126","14980","15922","13426","15081","15901","13543","14604","15104",""
"MA200-0416","32131","94","1","1.10","1.4","2023-05-30T17:03:59","120","2023/05/30","17:03:59","-15.80092853307724","35.028998494148254","7.0","17","30","64","44","-5100","-1416","22366","11","150","149.34","113.25","36.09","34.36","25.6","11.85","89964","33.94","DUALSPOT-UV-BLUE-GREEN-RED-IR","667003","672562","908626","23.554480","8.193002","0.010805","658856","852166","761672","19.355474","6.615436","0.011088","759065","867829","816584","16.902334","5.700242","0.011363","767289","895068","864717","14.176973","4.701876","0.011529","668064","824875","949838","10.252094","3.286797","0.018133","13028","15929","17476","13188","15561","16792","12953","14994","16032","13045","14749","15594","12794","14779","15716",""
"MA200-0416","32132","94","1","1.10","1.4","2023-05-30T17:04:29","120","2023/05/30","17:04:29","-15.801033735275269","35.0275719948113","9.5","17","30","64","44","-5120","-152","23632","11","150","150.55","113.62","36.93","34.33","25.5","11.79","89988","33.88","DUALSPOT-UV-BLUE-GREEN-RED-IR","662644","668764","904102","23.712122","8.260147","0.013605","659963","854282","763972","19.483262","6.667436","0.014212","756012","864915","814184","17.013116","5.743634","0.013892","763012","890595","860700","14.272513","4.738748","0.015343","669239","826743","952215","10.322060","3.311028","0.008517","8149","10678","12030","8337","10437","11530","8094","9754","10600","8436","10016","10801","8602","9165","9431",""
"MA200-0416","32133","94","1","1.10","1.4","2023-05-30T17:04:59","120","2023/05/30","17:04:59","-15.801037430763245","35.025276996195316","8.0","17","30","64","44","-5344","-440","22872","11","150","150.24","113.36","36.88","34.29","25.5","11.76","90052","33.75","DUALSPOT-UV-BLUE-GREEN-RED-IR","660938","667969","903893","23.914060","8.340881","0.010870","658045","852807","763197","19.649226","6.731613","0.011338","754842","864502","814318","17.159536","5.798793","0.011217","762295","890576","861136","14.395642","4.783344","0.010067","669116","827122","952995","10.411629","3.341581","0.006386","10463","12857","14138","10853","12899","13965","10723","12416","13279","10897","12130","12744","11038","11572","11824",""
"MA200-0416","32134","94","1","1.10","1.4","2023-05-30T17:05:29","120","2023/05/30","17:05:29","-15.801022827625275","35.024326829239726","0.5","17","30","64","44","-6208","-512","22272","11","150","150.24","113.43","36.81","34.25","25.5","11.73","90052","33.69","DUALSPOT-UV-BLUE-GREEN-RED-IR","663302","671676","910038","24.230258","8.464039","0.009716","655283","850637","762033","19.913724","6.831802","0.010196","752497","863084","813688","17.392024","5.886668","0.011471","765960","896000","867016","14.591266","4.855645","0.011817","667602","826088","952278","10.554779","3.390789","0.007621","16373","19653","21414","17286","20179","21690","17016","19821","21257","17302","19707","20907","17629","18676","19171",""
"MA200-0416","32135","94","1","1.10","1.4","2023-05-30T17:05:59","120","2023/05/30","17:05:59","-15.80103188753128","35.0242659971118","0.5","17","30","64","44","-5756","-483","22272","11","150","149.51","113.01","36.50","34.22","25.5","11.70","90048","33.63","DUALSPOT-UV-BLUE-GREEN-RED-IR","658173","668124","906639","24.582936","8.604752","0.010815","656192","853586","765674","20.208376","6.945587","0.011367","752508","864686","816116","17.650204","5.983597","0.011178","761902","892642","864546","14.810678","4.935384","0.010678","668819","828526","955735","10.717110","3.448020","0.011105","18330","22645","24968","19328","23111","25092","18967","22049","23629","19479","21919","23138","20066","21905","22777",""
"MA200-0416","32136","94","1","1.10","1.4","2023-05-30T17:06:29","120","2023/05/30","17:06:29","-15.801036179065704","35.023922830820084","0.1","17","30","64","44","-5884","-104","22364","11","150","149.37","113.32","36.06","34.19","25.5","11.66","90044","33.56","DUALSPOT-UV-BLUE-GREEN-RED-IR","655619","666654","905672","24.948414","8.748329","0.010640","654110","852089","765006","20.509718","7.059915","0.011060","750488","863500","815618","17.916968","6.082868","0.011401","758609","889804","862339","15.036432","5.016721","0.011020","667175","827232","954618","10.880852","3.503843","0.008765","18943","23389","25790","19713","23506","25497","19544","22858","24562","19987","22632","23957","20185","21628","22313",""
"MA200-0416","32137","94","1","1.10","1.4","2023-05-30T17:06:59","120","2023/05/30","17:06:59","-15.801021575927734","35.02351849526167","2.0","17","30","64","44","-5680","-444","22592","11","150","150.14","113.17","36.98","34.16","25.6","11.66","90040","33.50","DUALSPOT-UV-BLUE-GREEN-RED-IR","651608","663883","903096","25.223866","8.856951","0.009586","650871","849277","763297","20.742074","7.149679","0.010496","748006","861905","814866","18.117734","6.157827","0.009812","756429","888311","861575","15.205797","5.080169","0.011866","665373","825759","953422","11.004879","3.548613","0.012172","14296","17254","18855","15220","17996","19457","14728","16830","17913","15014","17215","18320","15309","16914","17677",""
"MA200-0416","32138","94","1","1.10","1.4","2023-05-30T17:07:29","120","2023/05/30","17:07:29","-15.801018595695496","35.02328515984118","0.0","17","30","64","43","-5888","-550","22257","11","150","150.42","113.84","36.59","34.11","25.6","11.62","90032","33.44","DUALSPOT-UV-BLUE-GREEN-RED-IR","653218","666909","908478","25.627952","9.018721","0.010724","647324","846138","761343","21.078070","7.280338","0.011521","744219","858888","812819","18.413158","6.270676","0.012075","757526","890856","864714","15.456075","5.172569","0.011818","662820","823418","951273","11.187408","3.612178","0.009817","20849","25970","28751","21881","26474","28898","21546","25608","27706","22057","25337","26987","22399","24270","25163",""
"MA200-0416","32139","94","1","1.10","1.4","2023-05-30T17:07:59","120","2023/05/30","17:07:59","-15.801031172275543","35.02300799638033","2.1","17","30","64","44","-6242","-315","22192","11","150","149.94","113.25","36.68","34.08","25.6","11.60","90032","33.44","DUALSPOT-UV-BLUE-GREEN-RED-IR","652098","666607","908843","25.834140","9.101484","0.010439","646674","846244","761952","21.250508","7.347168","0.010867","746849","862794","817001","18.566962","6.328970","0.011048","757336","891419","865664","15.584853","5.219692","0.010470","662196","823147","951291","11.282963","3.645331","0.008424","10693","13251","14642","11287","13504","14676","11274","13192","14184","11408","12887","13632","11786","12624","13024",""
"MA200-0416","32140","94","1","1.10","1.4","2023-05-30T17:08:29","120","2023/05/30","17:08:29","-15.801019549369812","35.02247882820666","1.7","17","30","64","43","-6572","-56","22620","11","150","150.43","113.62","36.81","34.06","25.6","11.58","90028","33.38","DUALSPOT-UV-BLUE-GREEN-RED-IR","650034","665426","907977","26.066216","9.189451","0.007983","649362","850749","766523","21.440408","7.415939","0.007126","745582","862181","816866","18.732936","6.388664","0.007652","755112","889531","864255","15.725325","5.269021","0.007137","661439","822719","951046","11.379311","3.675078","-0.006539","11996","14037","15149","12390","13851","14624","12127","13465","14157","12403","13446","13971","11845","11290","11025",""
"MA200-0416","32141","94","1","1.10","1.4","2023-05-30T17:08:59","120","2023/05/30","17:08:59","-15.800974726676941","35.02198466472328","1.4","17","30","64","44","-6008","-770","22170","11","150","150.16","113.17","36.99","34.03","25.6","11.55","90016","33.31","DUALSPOT-UV-BLUE-GREEN-RED-IR","647957","663832","906363","26.193660","9.241678","0.010749","647303","848665","764954","21.544462","7.456978","0.011139","744217","861166","816216","18.823228","6.422173","0.009052","754110","888834","863826","15.800713","5.297143","0.011083","660372","821735","950125","11.435955","3.696851","0.018038","6614","8292","9206","6816","8223","8968","6624","7520","7984","6683","7626","8102","6992","8222","8809",""
"MA200-0416","32142","94","1","1.10","1.4","2023-05-30T17:09:29","120","2023/05/30","17:09:29","-15.800877034664154","35.021602327004075","0.7","17","30","64","43","-5228","-720","22576","11","150","149.76","113.33","36.44","34.01","25.6","11.56","90020","33.31","DUALSPOT-UV-BLUE-GREEN-RED-IR","645006","662206","905291","26.503864","9.363674","0.009679","645412","847604","764839","21.797274","7.553484","0.010218","742033","859907","815757","19.043496","6.504756","0.010576","750767","886017","861733","15.986276","5.363369","0.008884","662794","825637","955085","11.573654","3.741285","0.000457","16077","19665","21625","16537","19634","21276","16136","18816","20206","16427","18234","19147","16973","17035","17064",""
"MA200-0416","32143","94","1","1.10","1.4","2023-05-30T17:09:59","120","2023/05/30","17:09:59","-15.800799369812012","35.02135766111314","0.1","17","30","64","43","-5038","-715","22611","11","150","150.28","113.21","37.07","33.97","25.6","11.52","90028","33.25","DUALSPOT-UV-BLUE-GREEN-RED-IR","642039","660430","904065","26.837296","9.499617","0.010247","642901","845694","763906","22.071926","7.660957","0.010417","739639","858380","815024","19.284718","6.595820","0.009774","748307","884281","860652","16.191175","5.438811","0.009741","661345","824614","954426","11.726055","3.794840","0.008320","17299","21537","23860","17984","21491","23354","17690","20393","21798","18158","20416","21558","18805","20180","20838",""
"MA200-0416","32144","94","1","1.10","1.4","2023-05-30T17:10:29","120","2023/05/30","17:10:29","-15.800771951675415","35.02127699367702","0.7","17","30","64","43","-5856","-540","22620","11","150","149.87","113.46","36.41","33.95","25.6","11.51","90028","33.25","DUALSPOT-UV-BLUE-GREEN-RED-IR","642789","662588","908416","27.203456","9.651743","0.011528","638921","841975","761484","22.377698","7.782568","0.012001","735733","855279","812925","19.556396","6.701607","0.012536","749988","887513","864553","16.425303","5.527067","0.012693","658276","821667","951607","11.900192","3.856376","0.010950","18955","24542","27615","19978","24762","27313","19879","24123","26336","20702","24321","26156","21440","23611","24652",""
"MA200-0416","32145","94","1","1.10","1.4","2023-05-30T17:10:59","120","2023/05/30","17:10:59","-15.80051338672638","35.02081532590091","2.5","17","30","64","43","-5288","-24","23672","11","150","150.43","113.39","37.03","33.93","25.6","11.49","90036","33.19","DUALSPOT-UV-BLUE-GREEN-RED-IR","640172","662244","910181","27.749618","9.875397","0.010187","636324","841106","762191","22.831206","7.960922","0.010453","733709","855230","814275","19.954138","6.854081","0.010488","743222","881579","859942","16.761213","5.652243","0.010465","657722","822520","953494","12.151436","3.944284","0.007859","28290","35471","39438","29648","35701","38942","29121","34181","36828","29720","33910","36042","30951","33159","34219",""
"MA200-0416","32146","94","1","1.10","1.4","2023-05-30T17:11:29","120","2023/05/30","17:11:29","-15.8002410531044","35.02044616267085","1.3","17","30","64","43","-5324","-596","23508","11","150","149.73","113.51","36.22","33.91","25.6","11.49","90052","33.19","DUALSPOT-UV-BLUE-GREEN-RED-IR","635861","660024","909364","28.319432","10.112110","0.011278","632839","839045","761862","23.317376","8.155508","0.012052","729875","853088","813662","20.385246","7.022053","0.012363","745118","885957","865497","17.132374","5.792022","0.012482","654913","820464","952141","12.428955","4.044148","0.012794","29485","38381","43322","31752","39821","44162","31532","38497","42157","32806","38713","41730","34154","38511","40612",""
"MA200-0416","32147","94","1","1.10","1.4","2023-05-30T17:11:59","120","2023/05/30","17:11:59","-15.800122797489166","35.02026532962918","0.2","17","30","64","43","-5068","-784","22936","11","150","150.17","113.24","36.93","33.89","25.7","11.50","90056","33.13","DUALSPOT-UV-BLUE-GREEN-RED-IR","629392","655689","905899","28.954728","10.385933","0.011533","627629","834752","759680","23.859202","8.378208","0.011997","728682","854151","816215","20.867558","7.214933","0.012310","739767","881747","862749","17.540748","5.949372","0.012278","651941","818264","950607","12.732998","4.156739","0.013146","32951","43546","49472","35470","44700","49695","35360","43357","47583","36180","42743","46111","37506","42585","45047",""
"MA200-0416","32148","94","1","1.10","1.4","2023-05-30T17:12:29","120","2023/05/30","17:12:29","-15.80009388923645","35.02017899788916","0.2","17","30","64","43","-5512","-548","22616","11","150","150.35","113.29","37.06","33.87","25.7","11.50","90064","33.13","DUALSPOT-UV-BLUE-GREEN-RED-IR","627108","655201","907154","29.526126","10.632050","0.011215","625581","834096","760381","24.336636","8.576437","0.012069","726572","853548","816915","21.287854","7.384330","0.012319","738128","881517","863603","17.898436","6.088317","0.012366","651152","818467","951662","12.994373","4.253087","0.012215","29623","39008","44288","31240","39653","44232","30799","37950","41747","31674","37615","40678","32228","36318","38309",""
"MA200-0416","32149","94","1","1.10","1.4","2023-05-30T17:12:59","120","2023/05/30","17:12:59","-15.800094902515411","35.02015666291118","0.0","17","30","64","43","-5136","-576","22216","11","150","149.67","113.05","36.62","33.85","25.7","11.48","90064","33.06","DUALSPOT-UV-BLUE-GREEN-RED-IR","624521","653599","906098","29.785912","10.743290","0.011246","628042","838594","765219","24.549416","8.662445","0.011284","724272","851938","816001","21.474420","7.458019","0.011716","736034","879970","862646","18.055028","6.148589","0.012302","649432","816995","950388","13.109337","4.295091","0.012202","13497","17843","20295","13952","17412","19298","13701","16707","18306","13896","16513","17865","14205","16024","16910",""
"MA200-0416","32150","94","1","1.10","1.4","2023-05-30T17:13:29","120","2023/05/30","17:13:29","-15.800112426280975","35.02015349455178","0.0","17","30","64","43","-5080","-664","21704","11","150","149.70","113.25","36.45","33.83","25.8","11.51","90064","33.06","DUALSPOT-UV-BLUE-GREEN-RED-IR","621064","651617","904969","30.260170","10.942009","0.010607","625189","836567","764464","24.940808","8.819748","0.011139","722125","851047","816158","21.816372","7.591378","0.011232","734157","879218","862768","18.345968","6.258238","0.011225","648235","816512","950487","13.320007","4.370228","0.010401","24597","32020","36225","25621","31991","35477","25068","30374","33206","25775","30179","32459","25987","28795","30166",""
"MA200-0416","32151","94","1","1.10","1.4","2023-05-30T17:13:59","120","2023/05/30","17:13:59","-15.800137460231781","35.0198666639626","0.7","17","30","64","42","-4572","-435","21508","11","150","149.76","113.25","36.52","33.81","25.8","11.50","90064","33.06","DUALSPOT-UV-BLUE-GREEN-RED-IR","617268","649142","903022","30.632256","11.097935","0.010434","621766","833598","762768","25.245320","8.940943","0.010543","718915","848739","814820","22.081546","7.694131","0.010704","730360","875955","860333","18.567768","6.340623","0.010095","645991","814583","948834","13.481770","4.426666","0.008070","19298","25079","28364","19933","24603","27164","19440","23361","25457","19649","22634","24182","19954","21590","22390",""
"MA200-0416","32152","94","1","1.10","1.4","2023-05-30T17:14:29","120","2023/05/30","17:14:29","-15.800207495689392","35.019740326330066","0.1","17","30","64","42","-5616","-204","22872","11","150","149.76","113.17","36.60","33.79","25.8","11.50","90064","33.00","DUALSPOT-UV-BLUE-GREEN-RED-IR","614998","648352","903573","31.041546","11.269157","0.010165","620170","833256","763504","25.580482","9.076191","0.010849","717274","848417","815495","22.375214","7.809180","0.010957","729712","876571","861785","18.813258","6.433380","0.010831","649321","819806","955570","13.665352","4.491857","0.009329","21242","27480","31035","21955","27397","30389","21544","26099","28542","21763","25428","27333","22661","24884","25972",""
"MA200-0416","32153","94","1","1.10","1.4","2023-05-30T17:14:59","120","2023/05/30","17:14:59","-15.80027186870575","35.019666492938995","3.4","17","30","64","42","-6479","-512","22096","11","150","149.70","113.29","36.41","33.78","25.9","11.52","90068","33.00","DUALSPOT-UV-BLUE-GREEN-RED-IR","611965","647219","903974","31.600746","11.497974","0.009505","617724","832165","763831","26.034346","9.254654","0.009886","714546","847135","815455","22.769556","7.960087","0.009955","726396","874302","860565","19.142564","6.555194","0.009750","643571","813754","949287","13.905914","4.576932","0.009353","28993","36911","41439","29700","36334","39993","28899","34408","37370","29163","33564","35856","29664","32639","34099",""
"MA200-0416","32154","94","1","1.10","1.4","2023-05-30T17:15:29","120","2023/05/30","17:15:29","-15.800879120826721","35.018532160669565","6.4","17","30","64","42","-5850","-2012","22025","11","150","149.57","113.37","36.20","33.77","25.9","11.51","90068","33.00","DUALSPOT-UV-BLUE-GREEN-RED-IR","606701","643519","900675","32.146636","11.724300","0.009942","613064","827885","761150","26.483230","9.435947","0.011006","710500","844212","813791","23.165046","8.114570","0.011041","722526","871359","858662","19.478948","6.682795","0.011421","644855","816600","953405","14.156971","4.665392","0.009442","28283","36722","41567","29353","37127","41429","28963","35430","38917","29769","35364","38287","30936","34137","35710",""
"MA200-0416","32155","94","1","1.10","1.4","2023-05-30T17:15:59","120","2023/05/30","17:15:59","-15.801200270652771","35.0169239975512","3.4","17","30","64","42","-4984","-1228","23060","11","150","150.01","113.13","36.88","33.75","25.9","11.51","90088","33.00","DUALSPOT-UV-BLUE-GREEN-RED-IR","611559","649404","909659","32.334896","11.804123","0.009938","613101","828661","762310","26.629138","9.492781","0.008728","710278","844626","814568","23.292766","8.163160","0.008781","722692","872142","859780","19.587068","6.722176","0.007736","645075","817305","954455","14.234856","4.692447","0.006262","9774","12713","14402","9561","11424","12456","9373","10938","11783","9588","10713","11301","9617","10248","10558",""
"MA200-0416","32156","94","1","1.10","1.4","2023-05-30T17:16:29","120","2023/05/30","17:16:29","-15.801248013973236","35.01678032800555","0.1","17","30","64","42","-5644","-544","22256","11","150","149.73","113.34","36.39","33.74","25.9","11.53","90092","32.94","DUALSPOT-UV-BLUE-GREEN-RED-IR","600037","643971","909588","33.567260","12.338295","0.010610","602921","822771","762223","27.703086","9.941650","0.011548","699533","839126","814229","24.236006","8.545857","0.011936","718229","873455","865439","20.393066","7.038009","0.012343","637866","813211","953146","14.858406","4.918262","0.010793","63867","86210","99196","70247","91434","103292","69096","87303","97219","71349","87066","95350","76857","86678","91537",""
"MA200-0416","32157","94","1","1.10","1.4","2023-05-30T17:16:59","120","2023/05/30","17:16:59","-15.800978064537048","35.01798749528825","6.8","17","30","64","42","-4196","1044","22352","11","150","149.90","113.41","36.49","33.72","26.0","11.53","90068","32.88","DUALSPOT-UV-BLUE-GREEN-RED-IR","586656","635638","905440","35.991632","13.461994","0.011476","591240","813946","759427","29.846086","10.889603","0.012433","692137","837195","817484","26.203440","9.388984","0.013008","707389","866846","863471","22.124072","7.749349","0.013515","630853","809132","952047","16.185349","5.434223","0.014756","125564","180873","213922","140087","192583","222740","144033","191828","218515","153138","195577","218456","163455","197523","214744",""
"MA200-0416","32158","94","1","1.10","1.4","2023-05-30T17:17:29","120","2023/05/30","17:17:29","-15.800865888595581","35.01868499442935","1.3","17","30","64","42","-5000","1256","21768","11","150","149.70","113.46","36.25","33.71","25.9","11.50","90072","32.88","DUALSPOT-UV-BLUE-GREEN-RED-IR","586418","636227","907376","36.276848","13.596832","0.011968","590488","813840","760088","30.094754","11.002029","0.013143","690773","836486","817529","26.433938","9.488797","0.013493","706981","867257","864528","22.329686","7.833791","0.013677","630245","809100","952513","16.346966","5.493282","0.010889","14765","21849","26095","16248","22993","26879","16867","22861","26218","18182","23372","26176","19899","22760","24208",""
"MA200-0416","32159","94","1","1.10","1.4","2023-05-30T17:17:59","120","2023/05/30","17:17:59","-15.800815224647522","35.01887749694288","1.5","17","30","64","42","-5600","1552","22444","11","150","149.54","113.24","36.30","33.68","25.9","11.46","90072","32.81","DUALSPOT-UV-BLUE-GREEN-RED-IR","584863","635125","906489","36.451820","13.679028","0.011711","594028","819411","765784","30.240942","11.067923","0.012909","686151","831457","813038","26.562656","9.545308","0.013770","706224","866840","864508","22.442854","7.881534","0.014593","629796","808897","952575","16.433468","5.527595","0.016031","9075","13298","15835","9570","13455","15698","9436","12923","14879","10026","13194","14909","10670","13203","14487",""
"MA200-0416","32160","94","1","1.10","1.4","2023-05-30T17:18:29","120","2023/05/30","17:18:29","-15.800701379776001","35.01910499483347","0.1","17","30","64","41","-5544","812","22976","11","150","149.48","113.21","36.27","33.67","25.9","11.43","90068","32.81","DUALSPOT-UV-BLUE-GREEN-RED-IR","582231","632818","903898","36.608700","13.753483","0.011895","591886","817129","764123","30.372314","11.127468","0.013029","687590","833837","815815","26.680298","9.596825","0.013656","702067","862306","860387","22.544776","7.924349","0.014387","627484","806362","949877","16.512383","5.557514","0.013123","8138","12058","14417","8602","12171","14235","8626","11793","13571","9032","11843","13367","9737","11524","12430",""
"MA200-0416","32161","94","1","1.10","1.4","2023-05-30T17:18:59","120","2023/05/30","17:18:59","-15.80058741569519","35.019225327298045","0.1","17","30","64","42","-5864","536","23128","11","150","150.29","113.37","36.93","33.65","25.9","11.41","90068","32.81","DUALSPOT-UV-BLUE-GREEN-RED-IR","581912","633064","904897","36.784008","13.828014","0.008929","591895","817764","765146","30.518014","11.185785","0.008694","687104","833834","816215","26.812320","9.647799","0.008373","702604","863533","861921","22.656814","7.965463","0.007211","627631","806955","950843","16.596718","5.587232","0.006616","9082","11854","13524","9527","11707","12968","9668","11460","12467","9915","11170","11851","10392","11242","11674",""
"MA200-0416","32162","94","1","1.10","1.4","2023-05-30T17:19:29","120","2023/05/30","17:19:29","-15.800594210624695","35.01922649331391","0.0","17","30","64","42","-5544","556","22344","11","150","150.42","113.25","37.17","33.63","25.8","11.38","90072","32.81","DUALSPOT-UV-BLUE-GREEN-RED-IR","580703","632417","904740","36.971728","13.910946","0.009652","590817","817038","764973","30.672432","11.251356","0.010334","685954","833104","815950","26.946600","9.703588","0.010894","701373","862616","861419","22.771090","8.010763","0.010661","626902","806464","950583","16.682617","5.618547","0.008578","9735","13104","15137","10107","13077","14798","9843","12461","13934","10123","12227","13368","10595","11769","12365",""
"MA200-0416","32163","94","1","1.10","1.4","2023-05-30T17:19:59","120","2023/05/30","17:19:59","-15.800407648086548","35.01944166235626","0.0","17","30","64","42","-5440","-80","22200","11","150","149.85","113.35","36.51","33.62","25.8","11.37","90064","32.75","DUALSPOT-UV-BLUE-GREEN-RED-IR","577699","629998","902285","37.215064","14.020874","0.010545","588012","814108","762959","30.878562","11.342110","0.011887","683919","831558","815118","27.130276","9.781045","0.012014","698240","859591","858977","22.928956","8.075673","0.013048","629115","809956","955140","16.803944","5.663036","0.010279","12609","17685","20753","13481","18428","21299","13453","17614","19959","13973","17837","19938","14953","17023","18075",""
"MA200-0416","32164","94","1","1.10","1.4","2023-05-30T17:20:29","120","2023/05/30","17:20:29","-15.799986958503723","35.01980949379504","4.1","17","30","64","42","-5020","-1300","22536","11","150","149.63","113.25","36.38","33.61","25.8","11.36","90060","32.75","DUALSPOT-UV-BLUE-GREEN-RED-IR","577090","630242","903737","37.445820","14.130524","0.011611","587374","814272","763880","31.078610","11.430349","0.011937","683203","831654","815893","27.309456","9.857816","0.012558","698907","861294","861299","23.084446","8.139807","0.013202","625388","805816","950730","16.919780","5.707903","0.013992","11968","17700","21174","13095","17978","20818","13136","17517","19992","13775","17684","19813","14289","17225","18721",""
"MA200-0416","32165","94","1","1.10","1.4","2023-05-30T17:20:59","120","2023/05/30","17:20:59","-15.799702405929565","35.01991582661867","0.2","17","30","64","42","-5507","-519","22346","11","150","150.24","113.81","36.43","33.59","25.8","11.35","90064","32.75","DUALSPOT-UV-BLUE-GREEN-RED-IR","575206","629155","903385","37.769764","14.278259","0.010746","585926","813374","763855","31.356024","11.551315","0.011628","681416","830570","815621","27.561150","9.963637","0.011952","696509","859332","860003","23.303020","8.227731","0.012196","624226","805052","950403","17.086658","5.772039","0.013619","16718","23821","28139","18069","24618","28438","18360","24119","27379","19267","24216","26917","20482","24596","26695",""
"MA200-0416","32166","94","1","1.10","1.4","2023-05-30T17:21:29","120","2023/05/30","17:21:29","-15.799704372882843","35.019917495548725","0.1","17","30","64","41","-5616","-376","22528","11","150","150.08","113.29","36.78","33.58","25.8","11.34","90068","32.69","DUALSPOT-UV-BLUE-GREEN-RED-IR","578458","633409","910467","37.967564","14.371967","0.011192","584368","812049","763242","31.525858","11.627092","0.011808","679836","829409","815054","27.712410","10.029799","0.012718","694984","858200","859370","23.433258","8.281988","0.012999","626580","808622","954975","17.185498","5.810333","0.013156","10254","14964","17832","11112","15272","17702","11084","14933","17117","11533","14799","16585","12187","14543","15747",""
"MA200-0416","32167","94","1","1.10","1.4","2023-05-30T17:21:59","120","2023/05/30","17:21:59","-15.79967588186264","35.019923159852624","0.1","16","30","64","42","-5616","-328","22528","11","150","149.95","113.78","36.16","33.57","25.9","11.35","90068","32.69","DUALSPOT-UV-BLUE-GREEN-RED-IR","576277","632237","910392","38.362768","14.562973","0.011895","582393","810750","763161","31.874072","11.787703","0.013092","677810","828323","815089","28.029506","10.170907","0.013764","698872","864300","866482","23.713166","8.400738","0.014401","625466","808218","955280","17.402012","5.895889","0.015459","20400","31023","37524","22687","32925","38933","23137","32396","37669","24680","32945","37479","26582","33050","36364",""
"MA200-0416","32168","94","1","1.10","1.4","2023-05-30T17:22:29","120","2023/05/30","17:22:29","-15.799614012241364","35.02002649568021","0.7","16","30","64","41","-5386","-425","22519","11","150","149.76","113.72","36.04","33.55","25.9","11.33","90068","32.69","DUALSPOT-UV-BLUE-GREEN-RED-IR","575212","631644","910194","38.526784","14.638763","0.011029","581389","809941","762854","32.013314","11.850906","0.012715","676512","827269","814490","28.158316","10.226625","0.012938","697817","863535","866077","23.823020","8.446899","0.014086","624439","807310","954503","17.488368","5.928539","0.012924","8471","12351","14730","9076","13001","15307","9403","12835","14792","9691","12850","14585","10607","12655","13705",""
"MA200-0416","32169","94","1","1.10","1.4","2023-05-30T17:22:59","120","2023/05/30","17:22:59","-15.799958527088165","35.02039766125381","5.5","16","30","64","41","-6775","-1166","22233","11","150","150.59","114.12","36.47","33.53","25.9","11.32","90060","32.69","DUALSPOT-UV-BLUE-GREEN-RED-IR","572071","629739","909365","38.788212","14.759323","0.010750","578593","807985","762479","32.253090","11.954714","0.011176","673652","825638","814291","28.370808","10.317236","0.012141","689011","854402","858187","24.009982","8.522929","0.012370","622489","806170","954235","17.635414","5.983238","0.011277","13455","19416","23078","15576","21101","24355","15459","20627","23581","16436","20916","23381","18000","20952","22468",""
"MA200-0416","32170","94","1","1.10","1.4","2023-05-30T17:23:29","120","2023/05/30","17:23:29","-15.800596356391907","35.021808829158545","4.7","17","30","64","41","-4128","2340","22592","11","150","149.54","114.00","35.54","33.52","25.9","11.31","90032","32.69","DUALSPOT-UV-BLUE-GREEN-RED-IR","570113","628317","908392","39.225396","14.967155","0.011703","576964","806567","761843","32.649620","12.135561","0.012992","672707","825323","814632","28.744086","10.481728","0.013714","694389","861924","866373","24.348098","8.667208","0.014952","622129","806377","954960","17.906166","6.090524","0.016258","22524","34345","41639","25785","37720","44780","27184","38423","44874","29756","40726","46789","33177","42167","46802",""
"MA200-0416","32171","94","1","1.10","1.4","2023-05-30T17:23:59","120","2023/05/30","17:23:59","-15.800856590270996","35.02327832952142","6.8","17","30","64","41","-5816","-220","21896","11","150","150.49","114.00","36.49","33.51","25.8","11.28","90040","32.69","DUALSPOT-UV-BLUE-GREEN-RED-IR","568209","626645","906460","39.349312","15.025364","0.010945","578466","809175","764610","32.754276","12.181564","0.011382","670918","823565","813211","28.837488","10.521949","0.012215","691949","859270","863997","24.431542","8.701087","0.012046","620610","804690","953168","17.970734","6.114710","0.011415","6384","9369","11213","6805","9346","10850","6802","9151","10501","7343","9315","10405","7911","9259","9953",""
"MA200-0416","32172","94","1","1.10","1.4","2023-05-30T17:24:29","120","2023/05/30","17:24:29","-15.800845921039581","35.02529049664736","7.6","17","30","64","41","-5361","-450","22484","11","150","149.39","114.32","35.07","33.49","25.8","11.26","90048","32.69","DUALSPOT-UV-BLUE-GREEN-RED-IR","568337","627577","908809","39.561140","15.123138","0.011368","575186","805468","761837","32.933460","12.262136","0.012938","670384","823750","814032","28.998146","10.591322","0.013489","691902","859991","865283","24.567832","8.757545","0.014353","620654","805319","954375","18.074502","6.154667","0.015444","10883","16377","19777","11619","17034","20246","11667","16425","19163","11960","16153","18475","12680","15918","17590",""
"MA200-0416","32173","94","1","1.10","1.4","2023-05-30T17:24:59","120","2023/05/30","17:24:59","-15.80085688829422","35.02651749737561","3.0","17","30","64","41","-7168","104","22056","11","150","150.29","114.64","35.65","33.49","25.8","11.26","90036","32.63","DUALSPOT-UV-BLUE-GREEN-RED-IR","566813","626803","908834","39.806296","15.237480","0.011238","574153","804968","762086","33.135514","12.350769","0.011936","669337","823421","814350","29.177402","10.666311","0.012074","690556","859173","865018","24.721442","8.819266","0.012628","620169","805332","954813","18.191140","6.199482","0.014464","12560","18836","22728","13066","18428","21615","12982","17461","20042","13443","17367","19544","14213","17558","19288",""
"MA200-0416","32174","94","1","1.10","1.4","2023-05-30T17:25:29","120","2023/05/30","17:25:29","-15.800848364830017","35.02801832742989","4.0","17","30","64","41","-4684","-2260","22708","11","150","150.18","114.25","35.93","33.49","25.8","11.24","89996","32.63","DUALSPOT-UV-BLUE-GREEN-RED-IR","563468","624766","907919","40.311828","15.469391","0.010587","571321","802948","761570","33.563104","12.536993","0.011341","666282","821428","813696","29.557302","10.825938","0.011728","687944","857632","864578","25.050070","8.950803","0.011897","618044","803834","953875","18.437062","6.289659","0.010921","25988","37914","45339","27744","38425","44794","27605","36887","42252","28857","36731","41109","30068","35063","37649",""
"MA200-0416","32175","94","1","1.10","1.4","2023-05-30T17:25:59","120","2023/05/30","17:25:59","-15.80057168006897","35.028314493596554","0.0","16","30","64","41","-6080","-669","22484","11","150","149.96","114.56","35.40","33.48","25.8","11.22","90004","32.63","DUALSPOT-UV-BLUE-GREEN-RED-IR","562264","623960","907384","40.502464","15.559280","0.011371","573784","806965","765808","33.719128","12.605949","0.012076","665602","821134","813747","29.698486","10.884738","0.011931","686800","856662","863970","25.172090","8.999588","0.012463","617297","803232","953434","18.531148","6.324402","0.012320","9774","14913","18118","10096","14439","17031","10231","13789","15847","10686","13824","15571","11472","13708","14867",""
"MA200-0416","32176","94","1","1.10","1.4","2023-05-30T17:26:29","120","2023/05/30","17:26:29","-15.800573647022247","35.02833182550967","0.1","16","30","64","41","-6136","-584","22296","11","150","149.35","114.05","35.30","33.46","25.8","11.20","90000","32.56","DUALSPOT-UV-BLUE-GREEN-RED-IR","561597","623592","907429","40.626488","15.618477","0.011524","573257","806655","765826","33.816832","12.649961","0.012450","668451","825085","817993","29.785334","10.922850","0.013341","686118","856161","863698","25.245616","9.030644","0.014342","616729","802763","953079","18.585670","6.344755","0.012814","6387","9848","12010","6351","9241","10969","6322","8962","10491","6468","8825","10139","6678","8053","8766",""
"MA200-0416","32177","94","1","1.10","1.4","2023-05-30T17:26:59","120","2023/05/30","17:26:59","-15.800576746463776","35.0283448304981","0.1","16","30","64","41","-6124","-800","22404","11","150","150.03","114.60","35.43","33.45","25.8","11.19","90004","32.63","DUALSPOT-UV-BLUE-GREEN-RED-IR","559906","622141","905847","40.751244","15.677315","0.011304","571886","805155","764751","33.912272","12.692739","0.012332","664103","820046","813291","29.868242","10.959548","0.013575","685705","855983","863792","25.315924","9.059956","0.013895","616632","802882","953379","18.637142","6.363435","0.011209","6394","9754","11855","6174","8951","10612","6006","8599","10102","6155","8300","9495","6274","7365","7931",""
"MA200-0416","32178","94","1","1.10","1.4","2023-05-30T17:27:29","120","2023/05/30","17:27:29","-15.800604045391083","35.02841233089566","1.1","16","30","64","41","-6908","215","21996","11","150","149.95","113.89","36.05","33.44","25.8","11.18","90004","32.56","DUALSPOT-UV-BLUE-GREEN-RED-IR","558926","621484","905472","40.882832","15.741409","0.011422","571128","804517","764531","34.014972","12.741018","0.012842","666407","823302","816873","29.957924","10.999590","0.013134","683951","854181","862264","25.393104","9.093450","0.014423","615711","801970","952525","18.693200","6.385254","0.013829","6786","10442","12731","6684","9927","11869","6537","9221","10778","6798","9320","10727","6875","8453","9272",""
"MA200-0416","32179","94","1","1.10","1.4","2023-05-30T17:27:59","120","2023/05/30","17:27:59","-15.800931990146637","35.02897849492729","6.5","16","30","64","41","-4100","-1619","22660","11","150","149.31","114.63","34.67","33.42","25.8","11.19","89956","32.56","DUALSPOT-UV-BLUE-GREEN-RED-IR","557776","620732","905111","41.034548","15.814098","0.011874","570134","803759","764284","34.142096","12.797543","0.012570","665496","822799","816788","30.069906","11.046958","0.012853","682921","853475","861918","25.491416","9.131495","0.011899","614885","801338","952046","18.767822","6.412510","0.012774","7773","12313","15160","8221","12085","14402","8110","11342","13219","8604","11008","12350","9093","10981","11961",""
"MA200-0416","32180","94","1","1.10","1.4","2023-05-30T17:28:29","120","2023/05/30","17:28:29","-15.801048636436462","35.028129329904914","4.6","16","30","64","41","-3716","-662","22729","11","150","150.43","115.03","35.40","33.41","25.8","11.18","89992","32.56","DUALSPOT-UV-BLUE-GREEN-RED-IR","555816","619172","903597","41.229492","15.905483","0.011158","568491","802132","763280","34.303196","12.868763","0.011992","664371","822082","816545","30.212768","11.108428","0.012789","682249","853250","862126","25.612920","9.181969","0.013780","614563","801323","952396","18.860996","6.448673","0.015066","9954","15163","18435","10382","14915","17637","10311","14417","16804","10597","14305","16377","11315","14271","15807",""
"MA200-0416","32181","94","1","1.10","1.4","2023-05-30T17:28:59","120","2023/05/30","17:28:59","-15.801043272018433","35.02762449532747","2.0","16","30","64","40","-4728","-276","22644","11","150","150.23","114.88","35.35","33.40","25.8","11.17","90008","32.56","DUALSPOT-UV-BLUE-GREEN-RED-IR","554241","618094","902976","41.444360","16.007763","0.011370","567242","801146","762925","34.478864","12.947107","0.012136","663093","821196","816212","30.368488","11.175805","0.012882","680894","852184","861495","25.746098","9.237566","0.013883","613634","800644","951937","18.961914","6.486067","0.012488","10986","16994","20775","11336","16429","19492","11254","15824","18485","11630","15779","18100","12272","14777","16079",""
"MA200-0416","32182","94","1","1.10","1.4","2023-05-30T17:29:29","120","2023/05/30","17:29:29","-15.801050066947937","35.02753316052258","0.1","16","30","64","40","-4396","-427","22796","11","150","149.70","114.52","35.18","33.40","25.8","11.17","90008","32.50","DUALSPOT-UV-BLUE-GREEN-RED-IR","553155","617771","903591","41.693200","16.126064","0.011315","565844","800123","762717","34.686076","13.041861","0.012661","661782","820449","816169","30.551866","11.256850","0.013417","679553","851302","861230","25.902856","9.303299","0.014011","612757","800079","951733","19.081798","6.533216","0.015662","12762","19752","24160","13413","19967","23916","13294","19126","22529","13733","18746","21556","14624","18723","20857",""
"MA200-0416","32183","94","1","1.10","1.4","2023-05-30T17:29:59","120","2023/05/30","17:29:59","-15.801048219203949","35.02727999538183","2.2","16","30","64","40","-3704","-452","22784","11","150","149.89","114.52","35.38","33.37","25.8","11.16","90016","32.50","DUALSPOT-UV-BLUE-GREEN-RED-IR","550268","615248","900883","41.926008","16.237747","0.011315","563927","798200","761523","34.878024","13.130219","0.012619","659725","818653","815001","30.722488","11.332119","0.013154","682149","855250","865741","26.049778","9.367036","0.014857","611107","798440","950191","19.191040","6.576017","0.015105","11940","18543","22717","12425","18516","22193","12369","17664","20759","12871","18076","20998","13326","16901","18765",""
"MA200-0416","32184","94","1","1.10","1.4","2023-05-30T17:30:29","120","2023/05/30","17:30:29","-15.801045835018158","35.02705632895231","0.1","16","30","64","40","-3864","-532","22748","11","150","150.41","114.19","36.23","33.37","25.9","11.18","90020","32.50","DUALSPOT-UV-BLUE-GREEN-RED-IR","555395","621749","911459","42.164112","16.350296","0.010541","563757","798807","762752","35.071296","13.218815","0.011877","659163","818718","815641","30.893904","11.407865","0.012421","676702","849154","860094","26.197232","9.428085","0.012317","610995","798824","951048","19.302090","6.618870","0.012829","12247","18247","22047","12547","18129","21505","12463","17358","20224","12955","16906","19127","13585","16523","18057",""
"MA200-0416","32185","94","1","1.10","1.4","2023-05-30T17:30:59","120","2023/05/30","17:30:59","-15.801048338413239","35.02687666378915","0.7","16","30","64","40","-3868","-300","23056","11","150","150.19","114.40","35.78","33.36","25.8","11.15","90028","32.50","DUALSPOT-UV-BLUE-GREEN-RED-IR","552735","619427","908918","42.367860","16.448803","0.011127","561862","796783","761391","35.238292","13.295116","0.012067","657071","816805","814276","31.042226","11.472076","0.012195","674059","846438","857779","26.323922","9.481235","0.013212","609455","797255","949523","19.397450","6.656059","0.014079","10460","16168","19790","10821","15806","18827","10763","14897","17320","11110","14901","17035","11644","14517","16019",""
"MA200-0416","32186","94","1","1.10","1.4","2023-05-30T17:31:29","120","2023/05/30","17:31:29","-15.8010213971138","35.02682316116989","0.1","16","30","64","40","-3900","-196","22504","11","150","149.99","114.95","35.03","33.36","25.8","11.15","90028","32.50","DUALSPOT-UV-BLUE-GREEN-RED-IR","547840","614692","902897","42.598112","16.555805","0.010845","561918","797728","762930","35.428480","13.378151","0.011575","657331","817962","816003","31.213914","11.544275","0.012050","674960","848335","860195","26.469850","9.539779","0.012504","610137","798721","951635","19.505600","6.696142","0.012696","11764","17940","21866","12265","17571","20790","12399","17110","19875","12736","16766","19037","13142","15983","17468",""
"MA200-0416","32187","94","1","1.10","1.4","2023-05-30T17:31:59","120","2023/05/30","17:31:59","-15.801044404506683","35.02682616375387","0.1","16","30","64","40","-4004","-200","23004","11","150","150.42","114.88","35.54","33.35","25.9","11.16","90028","32.50","DUALSPOT-UV-BLUE-GREEN-RED-IR","546553","614044","903008","42.835024","16.666771","0.010664","560483","796618","762559","35.625832","13.463964","0.011074","656770","818073","816753","31.384960","11.618078","0.012271","674766","848846","861278","26.617362","9.600159","0.012608","609924","799020","952422","19.618252","6.738092","0.012062","12113","18336","22300","12735","17897","21033","12361","17238","20104","12882","17042","19389","13698","16486","17945",""
"MA200-0416","32188","94","1","1.10","1.4","2023-05-30T17:32:29","120","2023/05/30","17:32:29","-15.80105173587799","35.02676832862198","1.4","16","30","64","40","-4572","-48","22700","11","150","149.51","114.20","35.30","33.35","25.9","11.16","90032","32.50","DUALSPOT-UV-BLUE-GREEN-RED-IR","543446","611723","901225","43.164460","16.826152","0.011138","558222","794736","761862","35.899636","13.590891","0.012413","653673","815478","815179","31.629158","11.726332","0.012905","671014","845311","858576","26.828104","9.689260","0.013616","607238","796397","950006","19.781158","6.801809","0.014551","16943","26516","32632","17773","26652","32061","17752","25457","29996","18514","25320","29168","19927","25212","27981",""
"MA200-0416","32189","94","1","1.10","1.4","2023-05-30T17:32:59","120","2023/05/30","17:32:59","-15.801050066947937","35.02652782946825","3.0","16","30","64","40","-4188","-660","22688","11","150","149.54","114.08","35.47","33.34","25.9","11.17","90040","32.50","DUALSPOT-UV-BLUE-GREEN-RED-IR","546501","616939","911466","43.733612","17.104744","0.011100","556669","794655","763521","36.392796","13.818813","0.012079","651331","814554","815870","32.071248","11.924038","0.012817","669890","845758","860438","27.212100","9.853964","0.013711","606325","796639","951396","20.080558","6.922748","0.015614","29304","46137","56950","32047","47641","57187","32174","46281","54630","33770","46591","53869","36663","47635","53408",""
"MA200-0416","32190","94","1","1.10","1.4","2023-05-30T17:33:29","120","2023/05/30","17:33:29","-15.801038026809692","35.026117999106646","0.2","16","30","64","40","-4264","-672","22580","11","150","149.17","114.55","34.62","33.33","25.9","11.19","0","0.00","DUALSPOT-UV-BLUE-GREEN-RED-IR","543354","614202","908623","44.053648","17.265816","0.011860","553710","791280","761097","36.662276","13.948269","0.013299","649197","812749","814801","32.313946","12.035291","0.013975","667097","843027","858317","27.423594","9.946508","0.015049","604675","795091","950074","20.241806","6.988874","0.017429","16410","27327","34363","17440","27720","34034","17590","26679","32074","18523","26819","31540","19664","26682","30383",""
"MA200-0416","32191","94","1","1.10","1.4","2023-05-30T17:33:59","120","2023/05/30","17:33:59","-15.801041007041931","35.02598582953215","0.1","16","30","64","40","-4116","-600","22928","11","150","149.63","114.36","35.27","33.33","25.9","11.19","0","0.00","DUALSPOT-UV-BLUE-GREEN-RED-IR","543685","615133","910839","44.233708","17.357728","0.011728","553938","792241","762540","36.809488","14.017805","0.012549","648992","813083","815625","32.446208","12.095729","0.013386","667875","844576","860295","27.537650","9.994956","0.013506","605039","796006","951499","20.327286","7.022182","0.014116","9247","15305","19217","9542","14614","17734","9602","14226","16974","10006","13780","15931","10441","13191","14643",""
"MA200-0416","32192","94","1","1.10","1.4","2023-05-30T17:34:29","120","2023/05/30","17:34:29","-15.801044404506683","35.02582532912493","2.0","16","30","64","40","-5088","-176","22560","11","150","150.23","114.80","35.43","33.32","26.0","11.23","90064","32.50","DUALSPOT-UV-BLUE-GREEN-RED-IR","537522","608732","902243","44.421200","17.451736","0.011416","553072","791674","762556","36.966780","14.090319","0.012005","648505","813106","816133","32.585502","12.157399","0.012564","667429","844611","860766","27.657684","10.046075","0.013510","604711","795987","951849","20.418812","7.057895","0.014091","9593","15585","19462","10157","15173","18262","10073","14451","17057","10490","14475","16749","11137","14081","15636",""
"MA200-0416","32193","94","1","1.10","1.4","2023-05-30T17:34:59","120","2023/05/30","17:34:59","-15.80103325843811","35.025469494983554","1.3","16","30","64","40","-4424","-624","22520","11","150","149.53","114.46","35.06","33.32","26.1","11.25","90064","32.50","DUALSPOT-UV-BLUE-GREEN-RED-IR","541694","614101","911191","44.632000","17.556458","0.011339","552359","791374","762923","37.137360","14.170994","0.012599","647247","812217","815855","32.738976","12.226531","0.013098","665989","843426","860045","27.788274","10.101377","0.013505","603722","795174","951250","20.516064","7.097690","0.016533","10817","17541","21901","11047","17056","20763","11132","16368","19489","11446","15823","18322","11869","15853","17961",""
"MA200-0416","32194","94","1","1.10","1.4","2023-05-30T17:35:29","120","2023/05/30","17:35:29","-15.801018595695496","35.02487766370177","1.3","16","30","64","39","-3707","-996","22796","11","150","150.35","114.09","36.27","33.31","26.1","11.24","90072","32.50","DUALSPOT-UV-BLUE-GREEN-RED-IR","529909","603556","899945","45.589840","18.044766","0.010963","545766","785539","760580","38.029068","14.603443","0.012106","641596","808708","815509","33.570628","12.616711","0.012886","660004","839322","858779","28.540846","10.438518","0.013741","599709","792714","950761","21.130332","7.355022","0.015510","49313","79083","98585","57943","88396","107380","60521","89320","106660","66181","93265","108882","75215","99120","111883",""
"MA200-0416","32195","94","1","1.10","1.4","2023-05-30T17:35:59","120","2023/05/30","17:35:59","-15.801022231578827","35.024687161669135","1.1","17","30","64","40","-4362","-591","22945","11","150","149.43","114.00","35.43","33.31","26.0","11.22","90068","32.44","DUALSPOT-UV-BLUE-GREEN-RED-IR","535580","610413","910856","45.742852","18.128926","0.012252","546148","786548","761986","38.155384","14.669479","0.013777","641238","808672","815915","33.686140","12.672558","0.013985","660775","840713","860564","28.641790","10.485777","0.015504","599813","793149","951551","21.208760","7.387880","0.016416","7883","13951","17935","8214","13816","17316","8412","13086","15905","8883","13381","15979","9610","12955","14743",""
"MA200-0416","32196","94","1","1.10","1.4","2023-05-30T17:36:29","120","2023/05/30","17:36:29","-15.80100953578949","35.02434416487813","0.2","17","30","64","40","-5136","-420","22296","11","150","149.70","114.36","35.34","33.30","26.0","11.21","90072","32.44","DUALSPOT-UV-BLUE-GREEN-RED-IR","534380","609680","910727","45.934404","18.227280","0.011388","545533","786450","762541","38.318956","14.747038","0.012133","639729","807520","815326","33.833176","12.740229","0.012999","664643","846339","866885","28.771628","10.542091","0.013526","598705","792243","950890","21.308536","7.427789","0.014609","9838","16347","20630","10603","16270","19815","10674","15898","19054","11390","15988","18647","12188","15776","17697",""
"MA200-0416","32197","94","1","1.10","1.4","2023-05-30T17:36:59","120","2023/05/30","17:36:59","-15.80099242925644","35.023909997195005","1.4","17","30","64","39","-4991","-452","22666","11","150","150.49","115.75","34.74","33.30","26.0","11.20","90060","32.44","DUALSPOT-UV-BLUE-GREEN-RED-IR","531699","607254","908321","46.184420","18.362888","0.012400","543153","783872","760941","38.559764","14.862862","0.012840","637342","805502","814126","34.067872","12.844213","0.012718","661461","843361","864557","28.991288","10.631621","0.012459","600134","795044","954884","21.489132","7.492574","0.010735","12686","22928","29688","15422","24716","30546","16833","24851","29703","19038","25856","29804","21795","26051","28330",""
"MA200-0416","32198","94","1","1.10","1.4","2023-05-30T17:37:29","120","2023/05/30","17:37:29","-15.800999939441681","35.02371899411082","0.1","17","30","64","39","-5172","-452","22728","11","150","149.76","114.12","35.64","33.29","26.0","11.19","90060","32.44","DUALSPOT-UV-BLUE-GREEN-RED-IR","531384","607394","909370","46.359816","18.455922","0.011585","542900","784138","761713","38.711340","14.936813","0.012345","637141","805802","814953","34.204400","12.908710","0.013201","662675","845491","867197","29.114174","10.684803","0.013004","596893","791159","950543","21.585060","7.529907","0.012706","9027","15331","19500","9846","15381","18858","9932","15023","18109","10803","14969","17385","11742","14632","16180",""
"MA200-0416","32199","94","1","1.10","1.4","2023-05-30T17:37:59","120","2023/05/30","17:37:59","-15.801002264022827","35.02307349443436","4.4","17","30","64","39","-5592","-475","22748","11","150","150.32","114.31","36.01","33.29","26.0","11.19","90048","32.44","DUALSPOT-UV-BLUE-GREEN-RED-IR","529225","606375","910169","46.839396","18.706390","0.011161","540835","782841","762036","39.124216","15.140715","0.012290","635028","804762","815375","34.579060","13.086473","0.012981","659769","843308","866260","29.439398","10.832348","0.013945","595798","790859","951218","21.836010","7.636255","0.015883","24642","40855","51635","26776","41977","51574","27211","40985","49372","28544","41108","48423","30667","41257","46952",""
"MA200-0416","32200","94","1","1.10","1.4","2023-05-30T17:38:29","120","2023/05/30","17:38:29","-15.800964415073395","35.0221973285079","1.6","17","30","64","39","-5444","72","22600","11","150","150.21","114.71","35.50","33.28","26.0","11.18","90040","32.44","DUALSPOT-UV-BLUE-GREEN-RED-IR","525092","602975","907184","47.227536","18.903812","0.010959","540617","784144","764812","39.460488","15.302296","0.012022","631876","802287","814216","34.876108","13.224843","0.012862","655779","839602","863654","29.695910","10.946749","0.013848","593204","788558","949364","22.034946","7.717317","0.014866","19874","32660","41195","21731","33739","41344","21499","32356","38988","22434","32328","38104","24226","31895","36028",""
"MA200-0416","32201","94","1","1.10","1.4","2023-05-30T17:38:59","120","2023/05/30","17:38:59","-15.800799369812012","35.0214501619339","2.2","17","30","64","39","-4068","-680","23056","11","150","150.08","114.50","35.57","33.27","26.0","11.15","90040","32.44","DUALSPOT-UV-BLUE-GREEN-RED-IR","525351","603943","909690","47.532320","19.062122","0.011123","537126","779828","761348","39.725568","15.432306","0.012239","631634","802785","815376","35.116916","13.336839","0.012668","657217","842242","866958","29.911566","11.041808","0.013339","593586","789653","951142","22.198632","7.785267","0.015368","15634","26138","33172","17162","27093","33402","17460","26138","31451","18895","26809","31440","19969","26683","30309",""
"MA200-0416","32202","94","1","1.10","1.4","2023-05-30T17:39:29","120","2023/05/30","17:39:29","-15.800580203533173","35.020945828408","0.1","17","30","64","39","-1872","-944","23256","11","150","149.70","114.04","35.66","33.27","26.0","11.15","0","0.00","DUALSPOT-UV-BLUE-GREEN-RED-IR","523364","602502","909016","47.827196","19.218948","0.011282","535698","778819","761411","39.988348","15.564730","0.012514","629773","801369","814979","35.360032","13.456572","0.013617","655233","840637","866238","30.122052","11.140568","0.014699","595674","793197","956169","22.368766","7.857311","0.015793","15187","25834","32986","17082","27532","34192","17698","27879","34133","18517","27788","33230","20840","28226","32225",""
"MA200-0416","32203","94","1","1.10","1.4","2023-05-30T17:39:59","120","2023/05/30","17:39:59","-15.800392031669617","35.02067166380584","2.7","17","30","64","39","-4732","-264","22652","11","150","149.73","114.19","35.54","33.26","25.9","11.09","0","0.00","DUALSPOT-UV-BLUE-GREEN-RED-IR","521725","601220","908189","48.050032","19.343360","0.011875","537546","782244","765525","40.186780","15.670332","0.013384","628254","800179","814488","35.541800","13.548735","0.014185","653511","839157","865394","30.287568","11.221059","0.015581","594532","792275","955607","22.499974","7.916698","0.018315","11461","20561","26693","12881","22027","27873","13215","21529","26651","14541","22722","27536","16050","23343","27301",""
"MA200-0416","32204","94","1","1.10","1.4","2023-05-30T17:40:29","120","2023/05/30","17:40:29","-15.80007690191269","35.020108330994844","0.0","17","30","64","39","-4280","-584","22932","11","150","149.53","114.06","35.46","33.25","25.8","11.06","90076","32.38","DUALSPOT-UV-BLUE-GREEN-RED-IR","519449","599172","906118","48.281132","19.467250","0.011354","535507","779963","764023","40.389680","15.774168","0.012739","626187","798236","813211","35.729688","13.640958","0.013531","650509","836006","862725","30.454934","11.297494","0.014021","592554","790164","953542","22.634064","7.974382","0.016432","11900","20518","26340","13187","21705","27163","13675","21589","26476","14721","21622","25692","16422","22721","26147",""
"MA200-0416","32205","94","1","1.10","1.4","2023-05-30T17:40:59","120","2023/05/30","17:40:59","-15.800076723098755","35.020015662536025","1.2","17","30","64","39","-5572","-460","22488","11","150","149.95","114.11","35.83","33.23","25.8","11.01","0","0.00","DUALSPOT-UV-BLUE-GREEN-RED-IR","519551","599533","907093","48.377432","19.519104","0.011266","535597","780405","764754","40.472564","15.814718","0.011810","626414","798863","814106","35.807888","13.678257","0.012746","651391","837437","864475","30.524638","11.329348","0.013757","589691","786571","949414","22.688182","7.996294","0.013611","4956","8499","10895","5384","8388","10315","5689","8641","10466","6128","8918","10564","6625","8542","9585",""
"MA200-0416","32206","94","1","1.10","1.4","2023-05-30T17:41:29","120","2023/05/30","17:41:29","-15.80027836561203","35.01963599398732","0.9","17","30","64","39","-5648","-268","22184","11","150","149.73","114.00","35.73","33.23","25.7","10.98","0","0.00","DUALSPOT-UV-BLUE-GREEN-RED-IR","518515","598760","906583","48.510168","19.587116","0.010632","534614","779492","764346","40.591068","15.873196","0.011961","625541","798215","813864","35.911388","13.726192","0.012145","650509","836741","864116","30.616336","11.370370","0.013221","592582","790817","954863","22.762600","8.025896","0.012906","6838","11181","14122","7706","12134","14977","7537","11139","13367","8070","11519","13557","9118","11574","12912",""
"MA200-0416","32207","94","1","1.10","1.4","2023-05-30T17:41:59","120","2023/05/30","17:41:59","-15.801031053066254","35.01781099662185","13.2","17","30","64","39","-4784","52","22516","11","150","149.87","114.04","35.82","33.22","25.7","10.97","90064","32.38","DUALSPOT-UV-BLUE-GREEN-RED-IR","516582","597685","907022","48.910172","19.800118","0.011015","532563","777896","764195","40.945124","16.051264","0.012142","623550","797065","814011","36.236456","13.881555","0.012642","648682","835764","864294","30.902068","11.499846","0.013379","591308","790199","955092","22.990544","8.121956","0.015033","20601","34923","44664","23015","36849","45769","23664","36005","43669","25136","36261","42854","27921","37458","42668",""
"MA200-0416","32208","94","1","1.10","1.4","2023-05-30T17:42:29","120","2023/05/30","17:42:29","-15.801593363285065","35.014368831180036","13.4","17","30","64","39","-3676","-448","22772","11","150","149.70","114.16","35.54","33.22","25.8","11.00","90140","32.31","DUALSPOT-UV-BLUE-GREEN-RED-IR","515003","596418","906041","49.112108","19.907952","0.011120","531154","776516","763474","41.119040","16.138306","0.012162","622309","796082","813629","36.393332","13.959344","0.013472","647490","834764","863813","31.040076","11.565493","0.014724","590338","789379","954505","23.098710","8.168846","0.016360","10389","17823","22890","11293","18157","22592","11408","18173","22383","12128","18533","22337","13235","18432","21276",""
"MA200-0416","32209","94","1","1.10","1.4","2023-05-30T17:42:59","120","2023/05/30","17:42:59","-15.802830994129181","35.0118254981935","10.2","17","30","64","38","-4188","-716","23096","11","150","149.86","114.65","35.21","33.20","25.8","10.98","90236","32.31","DUALSPOT-UV-BLUE-GREEN-RED-IR","512056","593608","902767","49.331656","20.025624","0.011279","528683","773589","761311","41.305516","16.232355","0.012447","623162","797857","816120","36.560812","14.040413","0.013220","643959","830916","860382","31.185064","11.632355","0.014252","588242","787085","952166","23.210098","8.215078","0.015181","11247","19629","25357","12057","19801","24815","12127","19115","23472","12687","19051","22837","13572","18342","20956",""
"MA200-0416","32210","94","1","1.10","1.4","2023-05-30T17:43:29","120","2023/05/30","17:43:29","-15.80491816997528","35.01018416509032","11.1","17","30","64","39","-4280","-515","22865","11","150","150.36","113.88","36.48","33.19","25.7","10.94","90300","32.25","DUALSPOT-UV-BLUE-GREEN-RED-IR","511529","593519","903623","49.527444","20.129658","0.010623","528446","773900","762253","41.471436","16.316332","0.011789","619597","793887","812621","36.709752","14.112542","0.012369","644163","831713","861751","31.316694","11.692938","0.013119","588212","787505","953059","23.311332","8.257309","0.013682","10097","16752","21308","10800","17067","21131","10858","16417","19889","11596","16663","19682","12418","16173","18233",""
"MA200-0416","32211","94","1","1.10","1.4","2023-05-30T17:43:59","120","2023/05/30","17:43:59","-15.80663949251175","35.007833832874894","12.7","17","30","64","38","-4280","292","22640","11","150","149.92","114.27","35.65","33.18","25.7","10.93","90320","32.19","DUALSPOT-UV-BLUE-GREEN-RED-IR","513875","597098","910518","49.801776","20.275066","0.010863","529647","776661","765946","41.704472","16.431297","0.011738","621019","796701","816413","36.921092","14.214240","0.012691","641976","829810","860543","31.497618","11.775297","0.013428","586910","786460","952434","23.450982","8.316601","0.015290","14101","23954","30721","15118","23904","29616","15355","23681","28893","15885","23175","27528","17072","23231","26615",""
"MA200-0416","32212","94","1","1.10","1.4","2023-05-30T17:44:29","120","2023/05/30","17:44:29","-15.806051909923553","35.00507999910042","10.1","17","30","64","38","-3416","236","22504","11","150","150.16","114.44","35.72","33.17","25.8","10.95","90412","32.19","DUALSPOT-UV-BLUE-GREEN-RED-IR","511407","594862","908192","50.064204","20.414364","0.010824","524426","769741","759898","41.929444","16.544725","0.012021","618878","794707","815046","37.123600","14.310405","0.012364","644055","833207","864683","31.675682","11.857242","0.013613","584852","784263","950254","23.589436","8.375961","0.015548","13469","22904","29401","14573","23540","29384","14691","22350","27155","15610","23015","27445","16900","23214","26690",""
"MA200-0416","32213","94","1","1.10","1.4","2023-05-30T17:44:59","120","2023/05/30","17:44:59","-15.805087208747864","35.003641666145995","4.0","17","30","68","38","-4080","2880","22228","12","150","150.14","113.79","36.35","33.18","25.8","10.98","90436","32.38","DUALSPOT-UV-BLUE-GREEN-RED-IR","839855","725515","907283","0.000000","0.000000","0.000000","794621","905458","761414","0.000000","0.000000","0.000000","892931","913669","816380","0.000000","0.000000","0.000000","877399","932460","863894","0.000000","0.000000","0.000000","736939","850086","951216","0.000000","0.000000","0.000000","0","0","0","0","0","0","0","0","0","0","0","0","0","0","0","Tape advance"
"MA200-0416","32214","94","1","1.10","1.4","2023-05-30T17:45:29","120","2023/05/30","17:45:29","-15.802737176418304","35.003118333173916","13.5","17","30","68","39","-3904","-608","22844","12","150","150.58","113.84","36.74","33.16","25.8","10.94","90300","32.25","DUALSPOT-UV-BLUE-GREEN-RED-IR","839432","726566","909330","0.000000","0.000000","0.000000","794523","906610","762831","0.000000","0.000000","0.000000","887910","909512","813089","0.000000","0.000000","0.000000","877988","933926","865605","0.000000","0.000000","0.000000","737218","850949","952448","0.000000","0.000000","0.000000","","","","","","","","","","","","","","","","Tape advance"
"MA200-0416","32215","94","1","1.10","1.4","2023-05-30T17:45:59","120","2023/05/30","17:45:59","-15.800862550735474","35.00277966633439","13.7","17","30","64","38","-4200","-940","22468","12","150","150.56","114.04","36.52","33.14","25.8","10.94","90364","32.19","DUALSPOT-UV-BLUE-GREEN-RED-IR","833398","722972","905610","0.282764","0.081586","0.000000","789734","902589","759919","0.201612","0.057947","0.000000","889315","912185","815921","0.166815","0.047927","0.000000","874342","930989","863238","0.129687","0.038701","0.000000","735198","849196","950763","0.086299","0.024806","0.000000","14563","13123","14563","13105","11764","13105","12144","10897","12144","11409","10633","11409","10571","9490","10571",""
"MA200-0416","32216","94","1","1.10","1.4","2023-05-30T17:46:29","120","2023/05/30","17:46:29","-15.797902405261993","35.00306099979207","9.7","17","30","64","38","-2992","955","21876","12","150","150.08","114.04","36.03","33.12","25.8","10.92","90400","32.13","DUALSPOT-UV-BLUE-GREEN-RED-IR","830598","722680","906409","0.679189","0.195390","0.000000","793011","908282","765388","0.482416","0.137155","0.000000","887692","912088","816427","0.396537","0.113285","0.000000","872967","930788","863558","0.312101","0.090837","0.000000","734673","849316","951261","0.209518","0.059271","0.000000","20417","18551","20417","18253","16296","18253","16723","15059","16723","16047","14516","16047","15093","13362","15093",""
"MA200-0416","32217","94","1","1.10","1.4","2023-05-30T17:46:59","120","2023/05/30","17:46:59","-15.796248495578766","35.00343983294442","2.7","17","30","64","38","-8064","-1919","21888","12","150","150.01","114.29","35.71","33.11","25.9","10.96","90568","32.13","DUALSPOT-UV-BLUE-GREEN-RED-IR","817862","718616","904960","1.933290","0.563186","0.000000","783257","904266","764490","1.489496","0.429725","0.000000","878564","908906","815805","1.250809","0.360661","0.000000","864294","926722","861704","1.007151","0.291556","0.000000","730008","847112","950273","0.679765","0.197798","0.000000","64448","60491","64448","65321","60732","65321","62054","57509","62054","61011","56388","61011","57475","54187","57475",""
"MA200-0416","32218","94","1","1.10","1.4","2023-05-30T17:47:29","120","2023/05/30","17:47:29","-15.796144664287567","35.00297366618179","1.5","17","30","64","38","-5665","-223","23134","12","150","149.87","113.67","36.20","33.08","26.0","10.99","90532","32.06","DUALSPOT-UV-BLUE-GREEN-RED-IR","805843","713873","902151","3.136503","0.924926","-0.027471","773646","899339","762527","2.492219","0.726144","0.000000","869432","904859","814213","2.122855","0.616812","0.000000","855370","921741","858868","1.732281","0.503587","0.000000","729480","849427","954251","1.180740","0.347442","0.000000","62173","58695","57241","65395","60704","65395","63693","58749","63693","64002","58766","64002","61568","57749","61568",""
"MA200-0416","32219","94","1","1.10","1.4","2023-05-30T17:47:59","120","2023/05/30","17:47:59","-15.796106100082397","35.00287599954754","0.1","17","30","64","38","-6056","-1660","21900","12","150","149.83","114.28","35.55","33.06","26.0","11.01","90528","32.06","DUALSPOT-UV-BLUE-GREEN-RED-IR","805638","718923","911495","4.191476","1.246809","-0.006691","767790","897904","763252","3.347367","0.981431","-0.018071","863265","903081","814376","2.856481","0.835055","0.000000","851530","921520","860179","2.331808","0.680953","0.000000","726565","848488","954406","1.596616","0.472387","0.000000","54221","53182","52742","55472","53236","52308","53296","50969","53296","52632","50056","52632","50836","49098","50836",""
"MA200-0416","32220","94","1","1.10","1.4","2023-05-30T17:48:29","120","2023/05/30","17:48:29","-15.796099066734314","35.00288016651757","0.1","17","30","64","38","-6212","-1616","22308","12","150","150.16","113.88","36.28","33.04","26.1","11.02","90528","32.00","DUALSPOT-UV-BLUE-GREEN-RED-IR","795909","715761","910807","5.310656","1.604780","0.001094","759873","894589","762745","4.296392","1.277763","-0.006746","855912","900672","814357","3.689808","1.094049","-0.009717","851997","926584","866825","3.028319","0.895744","-0.015682","722622","846841","954026","2.083171","0.624108","0.000000","57722","57957","58059","61777","60555","60037","60751","59271","58648","61360","59401","58578","59683","58423","59683",""
"MA200-0416","32221","94","1","1.10","1.4","2023-05-30T17:48:59","120","2023/05/30","17:48:59","-15.79567164182663","35.00286533287726","1.3","17","30","64","38","-3480","-308","22648","12","150","150.01","113.79","36.21","33.02","26.2","11.05","90528","32.00","DUALSPOT-UV-BLUE-GREEN-RED-IR","786289","711426","907937","6.347239","1.937606","0.002007","752438","890442","761018","5.173444","1.552188","-0.004740","848964","897499","813198","4.464644","1.333416","-0.009742","844939","922499","864473","3.680265","1.093006","-0.020445","718586","844380","952401","2.540792","0.765355","0.000000","53504","53984","54194","57137","56179","55769","56531","54878","54175","57479","54651","53457","56178","54488","56178",""
"MA200-0416","32222","94","1","1.10","1.4","2023-05-30T17:49:29","120","2023/05/30","17:49:29","-15.795669198036194","35.002887832932174","0.0","17","30","64","38","-4600","-808","22780","12","150","149.53","113.96","35.56","33.00","26.2","11.05","90528","32.00","DUALSPOT-UV-BLUE-GREEN-RED-IR","785841","712562","910280","6.673112","2.043174","0.007791","752016","891437","762472","5.429829","1.634491","0.007241","847885","897645","813884","4.686100","1.403474","0.004094","845240","923908","866288","3.863700","1.151508","0.007843","718590","845101","953620","2.669798","0.804181","0.000000","16795","17434","17716","16678","17155","17360","16133","16354","16449","16149","16503","16653","15813","15250","15813",""
