"Serial number","Datum ID","Session ID","Data format version","Firmware version","App version","Date / time local","Timezone offset (mins)","Date local (yyyy/MM/dd)","Time local (hh:mm:ss)","GPS lat (ddmm.mmmmm)","GPS long (dddmm.mmmmm)","GPS speed (km/h)","GPS sat count","Timebase (s)","Status","Battery remaining (%)","Accel X","Accel Y","Accel Z","Tape position","Flow setpoint (mL/min)","Flow total (mL/min)","Flow1 (mL/min)","Flow2 (mL/min)","Sample temp (C)","Sample RH (%)","Sample dewpoint (C)","Internal pressure (Pa)","Internal temp (C)","Optical config","UV Sen1","UV Sen2","UV Ref","UV ATN1","UV ATN2","UV K","Blue Sen1","Blue Sen2","Blue Ref","Blue ATN1","Blue ATN2","Blue K","Green Sen1","Green Sen2","Green Ref","Green ATN1","Green ATN2","Green K","Red Sen1","Red Sen2","Red Ref","Red ATN1","Red ATN2","Red K","IR Sen1","IR Sen2","IR Ref","IR ATN1","IR ATN2","IR K","UV BC1","UV BC2","UV BCc","Blue BC1","Blue BC2","Blue BCc","Green BC1","Green BC2","Green BCc","Red BC1","Red BC2","Red BCc","IR BC1","IR BC2","IR BCc","Readable status"
"MA200-0420","24505","57","1","1.10","1.4","2023-05-12T08:37:30","120","2023/05/12","08:37:30","0","0","0.0","4","30","66","86","-24940","-1124","-7011","7","150","151.74","117.07","34.66","21.61","68.0","15.45","90516","21.00","DUALSPOT-UV-BLUE-GREEN-RED-IR","814878","716890","912053","0.000000","0.000000","0.000000","908797","915352","840384","0.000000","0.000000","0.000000","877689","881230","827324","0.000000","0.000000","0.000000","876115","866401","868794","0.000000","0.000000","0.000000","785047","907775","966927","0.000000","0.000000","0.000000","","","","","","","","","","","","","","","","Start up"
"MA200-0420","24506","57","1","1.10","1.4","2023-05-12T08:38:00","120","2023/05/12","08:38:00","0","0","0.0","5","30","66","86","-25256","-712","-4896","7","150","149.94","115.54","34.40","21.77","68.5","15.70","90524","21.44","DUALSPOT-UV-BLUE-GREEN-RED-IR","807387","711439","905374","0.000000","0.000000","0.000000","907583","915073","840102","0.000000","0.000000","0.000000","883288","887633","833264","0.000000","0.000000","0.000000","899133","889835","892290","0.000000","0.000000","0.000000","785476","908483","967850","0.000000","0.000000","0.000000","","","","","","","","","","","","","","","","Start up"
"MA200-0420","24507","57","1","1.10","1.4","2023-05-12T08:38:30","120","2023/05/12","08:38:30","0","0","0.0","6","30","66","86","-25288","-859","-4824","7","150","150.34","115.36","34.98","21.92","68.7","15.90","90528","21.75","DUALSPOT-UV-BLUE-GREEN-RED-IR","809465","714274","909413","0.000000","0.000000","0.000000","903588","911699","837174","0.000000","0.000000","0.000000","884455","889358","834986","0.000000","0.000000","0.000000","893187","884343","886857","0.000000","0.000000","0.000000","781333","903988","963109","0.000000","0.000000","0.000000","","","","","","","","","","","","","","","","Start up"
"MA200-0420","24508","57","1","1.10","1.4","2023-05-12T08:39:00","120","2023/05/12","08:39:00","0","0","0.0","8","30","66","86","-25288","-820","-5032","7","150","149.74","115.92","33.82","22.06","68.7","16.03","90520","22.06","DUALSPOT-UV-BLUE-GREEN-RED-IR","808627","714535","910292","0.000000","0.000000","0.000000","903386","912086","837858","0.000000","0.000000","0.000000","882831","888122","834091","0.000000","0.000000","0.000000","892672","884177","886900","0.000000","0.000000","0.000000","780264","903061","962234","0.000000","0.000000","0.000000","","","","","","","","","","","","","","","","Start up"
"MA200-0420","24509","57","1","1.10","1.4","2023-05-12T08:39:30","120","2023/05/12","08:39:30","0","0","0.0","8","30","66","86","-25216","-929","-4833","7","150","150.34","116.27","34.07","22.21","68.5","16.12","90520","22.25","DUALSPOT-UV-BLUE-GREEN-RED-IR","807101","714172","910315","0.000000","0.000000","0.000000","901350","910662","836812","0.000000","0.000000","0.000000","880874","886648","832907","0.000000","0.000000","0.000000","892007","883871","886798","0.000000","0.000000","0.000000","779711","902707","961999","0.000000","0.000000","0.000000","","","","","","","","","","","","","","","","Start up"
"MA200-0420","24510","57","1","1.10","1.4","2023-05-12T08:40:00","120","2023/05/12","08:40:00","0","0","0.0","7","30","64","85","-25256","-888","-4840","7","150","150.21","116.58","33.64","22.34","68.2","16.19","90512","22.50","DUALSPOT-UV-BLUE-GREEN-RED-IR","804516","712908","909149","0.000000","0.000000","0.000000","899279","909204","835727","0.000000","0.000000","0.000000","878935","885160","831714","0.000000","0.000000","0.000000","897085","889274","892361","0.000000","0.000000","0.000000","782890","906656","966335","0.000000","0.000000","0.000000","","","","","","","","","","","","","","","",""
"MA200-0420","24511","57","1","1.10","1.4","2023-05-12T08:40:30","120","2023/05/12","08:40:30","0","0","0.0","7","30","64","86","-25316","-944","-4724","7","150","149.89","116.35","33.54","22.47","68.0","16.27","90520","22.69","DUALSPOT-UV-BLUE-GREEN-RED-IR","802287","712001","908505","0.203186","0.052566","0.000000","897306","907916","834822","0.108629","0.030964","0.000000","876632","883436","830323","0.086658","0.023275","0.000000","894293","886929","890222","0.065952","0.018507","0.000000","780707","904458","964073","0.046792","0.010064","0.000000","10257","9206","10257","6921","6844","6921","6183","5762","6183","5687","5536","5687","5618","4192","5618",""
"MA200-0420","24512","57","1","1.10","1.4","2023-05-12T08:41:00","120","2023/05/12","08:41:00","-15.79566216468811","35.002865666057914","0.4","7","30","64","85","-25300","-812","-4816","7","150","149.89","115.95","33.93","22.58","67.7","16.31","90524","22.81","DUALSPOT-UV-BLUE-GREEN-RED-IR","798410","709596","905912","0.401862","0.105249","0.000000","900387","911749","838608","0.218451","0.065076","0.000000","880362","887746","834568","0.173359","0.050294","0.000000","890927","883996","887467","0.132155","0.040212","0.000000","782559","906867","966777","0.093143","0.023482","0.000000","10063","9119","10063","7021","7452","7021","6207","6610","6207","5728","6417","5728","5584","5524","5584",""
"MA200-0420","24513","57","1","1.10","1.4","2023-05-12T08:41:30","120","2023/05/12","08:41:30","-15.795659899711609","35.00286833290011","0.0","7","30","64","85","-25348","-900","-4880","7","150","149.72","115.92","33.80","22.71","67.4","16.36","90528","22.94","DUALSPOT-UV-BLUE-GREEN-RED-IR","800279","712218","909737","0.589624","0.157400","0.000000","895920","907819","835265","0.317698","0.094723","0.000000","875984","883768","831053","0.250673","0.074106","0.000000","892166","885557","889213","0.191837","0.059696","0.000000","778836","902818","962589","0.134811","0.035912","0.000000","9514","9062","9514","6347","6502","6347","5537","5848","5537","5165","5783","5165","5021","5136","5021",""
"MA200-0420","24514","57","1","1.10","1.4","2023-05-12T08:42:00","120","2023/05/12","08:42:00","-15.795670509338379","35.00284866639413","0.0","8","30","64","85","-25228","-900","-4820","7","150","150.07","115.74","34.33","22.82","67.1","16.39","90528","23.06","DUALSPOT-UV-BLUE-GREEN-RED-IR","797755","710946","908507","0.773613","0.205070","0.000000","900625","913237","840479","0.415605","0.123715","0.000000","879300","887612","834826","0.328564","0.096172","0.000000","890231","883996","887774","0.249445","0.077244","0.000000","781827","906549","966665","0.173994","0.045889","0.000000","9337","8155","9337","6270","6259","6270","5587","5335","5587","4993","5127","4993","4729","4059","4729",""
"MA200-0420","24515","57","1","1.10","1.4","2023-05-12T08:42:30","120","2023/05/12","08:42:30","-15.79567301273346","35.00284449988976","0.0","8","30","64","85","-25216","-855","-4844","7","150","150.21","116.29","33.93","22.93","66.9","16.46","90524","23.13","DUALSPOT-UV-BLUE-GREEN-RED-IR","792971","707639","904660","0.950637","0.246572","0.000000","896512","909724","837418","0.511151","0.145543","0.000000","875216","884010","831592","0.403380","0.112569","0.000000","892503","886657","890584","0.307667","0.090090","0.000000","777930","902366","962253","0.212762","0.053885","0.000000","8941","7185","8941","6091","4769","6091","5341","4012","5341","5023","3798","5023","4657","3292","4657",""
"MA200-0420","24516","57","1","1.10","1.4","2023-05-12T08:43:00","120","2023/05/12","08:43:00","-15.79567700624466","35.00284716649912","0.0","9","30","64","85","-25292","-924","-4940","7","150","150.15","116.00","34.15","23.05","66.8","16.52","90524","23.25","DUALSPOT-UV-BLUE-GREEN-RED-IR","793875","709373","907339","1.134733","0.294494","0.000000","898950","912865","840564","0.611615","0.173645","0.000000","876986","886319","833922","0.482028","0.133759","0.000000","888679","883238","887248","0.365132","0.105513","0.000000","780007","905020","965185","0.252494","0.061678","0.000000","9321","8242","9321","6420","6100","6420","5629","5151","5629","4970","4531","4970","4784","3187","4784",""
"MA200-0420","24517","57","1","1.10","1.4","2023-05-12T08:43:30","120","2023/05/12","08:43:30","-15.795670509338379","35.00286383298226","0.1","9","30","64","85","-25256","-984","-4784","7","150","149.94","116.16","33.78","23.16","66.5","16.57","90524","23.38","DUALSPOT-UV-BLUE-GREEN-RED-IR","794408","710763","909532","1.310652","0.341419","0.000000","893220","907663","836002","0.710153","0.202072","0.000000","872953","882709","830713","0.559145","0.155627","0.000000","891237","886157","890348","0.424003","0.123201","0.000000","781277","906804","967178","0.294240","0.071174","0.000000","8895","8159","8895","6288","6238","6288","5511","5375","5511","5084","5253","5084","5020","3927","5020",""
"MA200-0420","24518","57","1","1.10","1.4","2023-05-12T08:44:00","120","2023/05/12","08:44:00","-15.795678853988647","35.00287533295341","0.2","9","30","64","84","-25236","-1408","-5076","7","150","149.44","115.79","33.65","23.26","66.2","16.59","90528","23.50","DUALSPOT-UV-BLUE-GREEN-RED-IR","790725","708276","906774","1.473090","0.388916","0.000000","896740","911814","840117","0.802469","0.232839","0.000000","874701","884925","833002","0.632619","0.179773","0.000000","893653","888857","893253","0.481683","0.142366","0.000000","777779","903006","963217","0.333547","0.083076","0.000000","8240","8290","8240","5910","6777","5910","5268","5957","5268","4997","5713","4997","4742","4940","4742",""
"MA200-0420","24519","57","1","1.10","1.4","2023-05-12T08:44:30","120","2023/05/12","08:44:30","-15.795982003211975","35.00281066610478","0.3","9","30","64","85","-25300","-1641","-5187","7","150","149.63","115.68","33.95","23.36","65.7","16.58","90532","23.56","DUALSPOT-UV-BLUE-GREEN-RED-IR","792265","710566","910182","1.644750","0.438619","0.000000","891690","907297","836203","0.902521","0.266104","0.000000","875933","886680","834877","0.714987","0.207471","0.000000","888451","884099","888633","0.544238","0.162600","0.000000","779006","904703","965178","0.377975","0.096251","0.000000","8716","8599","8716","6411","7264","6411","5911","6773","5911","5425","5980","5425","5365","5421","5365",""
"MA200-0420","24520","57","1","1.10","1.4","2023-05-12T08:45:00","120","2023/05/12","08:45:00","-15.79609078168869","35.00305949966423","2.0","9","30","64","84","-24545","704","-5216","7","150","148.77","116.35","32.42","23.45","65.3","16.56","90544","23.63","DUALSPOT-UV-BLUE-GREEN-RED-IR","786290","705994","904778","1.815080","0.491674","0.000000","892811","908990","838053","1.000690","0.301021","0.000000","871053","882162","830851","0.793880","0.235879","0.000000","889034","885004","889764","0.605953","0.185823","0.000000","779040","905018","965644","0.423189","0.112301","0.000000","8598","9612","8598","6254","7984","6254","5629","7274","5629","5321","7186","5321","5428","6915","5428",""
"MA200-0420","24521","57","1","1.10","1.4","2023-05-12T08:45:30","120","2023/05/12","08:45:30","-15.796891748905182","35.00323783303611","9.5","9","30","64","85","-25287","-4641","-4345","7","150","149.81","115.92","33.89","23.55","64.9","16.55","90476","23.75","DUALSPOT-UV-BLUE-GREEN-RED-IR","788101","708551","908526","1.992314","0.540296","0.000000","894536","911417","840578","1.104211","0.332654","0.000000","873034","884691","833433","0.875413","0.257557","0.000000","885692","882055","886986","0.668243","0.205264","0.000000","776211","902001","962537","0.465646","0.122223","0.000000","8980","8426","8980","6620","6919","6620","5839","5310","5839","5391","5755","5391","5116","4090","5116",""
"MA200-0420","24522","57","1","1.10","1.4","2023-05-12T08:46:00","120","2023/05/12","08:46:00","-15.799631178379059","35.0027498328127","12.2","9","30","64","84","-25736","-1903","-4496","7","150","148.77","116.35","32.42","23.65","64.3","16.50","90372","23.81","DUALSPOT-UV-BLUE-GREEN-RED-IR","788063","709516","910365","2.182498","0.600780","0.000000","888961","906324","836243","1.211362","0.376266","0.000000","873001","885118","834173","0.962203","0.294286","0.000000","885316","882014","887187","0.734705","0.232693","0.000000","775818","901783","962467","0.510740","0.135988","0.000000","9600","10957","9600","6827","9972","6827","6193","9405","6193","5730","8488","5730","5414","5931","5414",""
"MA200-0420","24523","57","1","1.10","1.4","2023-05-12T08:46:30","120","2023/05/12","08:46:30","-15.803415477275848","35.00231683300808","12.4","9","30","64","85","-24996","3064","-4860","7","150","150.15","115.95","34.19","23.73","63.7","16.44","90316","23.88","DUALSPOT-UV-BLUE-GREEN-RED-IR","783211","706674","907426","2.495010","0.687130","0.000000","892420","910697","840617","1.343291","0.418490","0.000000","869703","882364","831816","1.061516","0.326788","0.000000","889255","886370","891789","0.807773","0.257827","0.000000","778537","905308","966393","0.564477","0.152885","0.000000","15830","14833","15830","8434","9154","8434","7110","7892","7110","6322","7375","6322","6473","6903","6473",""
"MA200-0420","24524","57","1","1.10","1.4","2023-05-12T08:47:00","120","2023/05/12","08:47:00","-15.805113852024078","35.002630666596815","7.0","9","30","64","84","-25560","-392","-3108","7","150","150.28","116.00","34.28","23.83","63.2","16.40","90376","23.94","DUALSPOT-UV-BLUE-GREEN-RED-IR","783981","708326","910017","2.684743","0.739433","0.000000","886745","905561","836146","1.453161","0.451416","0.000000","870315","883511","833113","1.148784","0.353384","0.000000","883337","880856","886400","0.873574","0.277461","0.000000","779278","906500","967750","0.612148","0.165814","0.000000","9607","8960","9607","7021","7119","7021","6245","6440","6245","5691","5745","5691","5740","5267","5740",""
"MA200-0420","24525","57","1","1.10","1.4","2023-05-12T08:47:30","120","2023/05/12","08:47:30","-15.80573582649231","35.00464183278382","9.7","9","30","64","84","-25376","-2404","-5020","7","150","149.67","116.33","33.34","23.90","62.7","16.35","90392","24.00","DUALSPOT-UV-BLUE-GREEN-RED-IR","782501","708122","910270","2.893031","0.793802","0.000000","885505","905191","836112","1.586103","0.489366","0.000000","870505","884432","834208","1.255851","0.382524","0.000000","885320","883399","889185","0.959421","0.302187","0.000000","774633","901488","962568","0.670639","0.181532","0.000000","10516","9578","10516","8471","8438","8471","7641","7256","7641","7403","7440","7403","7023","6586","7023",""
"MA200-0420","24526","57","1","1.10","1.4","2023-05-12T08:48:00","120","2023/05/12","08:48:00","-15.806721031665802","35.00734266638756","11.2","9","30","64","84","-25836","-2008","-4568","7","150","149.81","116.25","33.56","23.99","62.2","16.32","90316","24.06","DUALSPOT-UV-BLUE-GREEN-RED-IR","776484","703875","905314","3.107591","0.847168","-0.075646","886933","907629","838688","1.719141","0.523990","0.000000","870373","885084","835077","1.364117","0.408613","0.000000","885261","883955","889931","1.039950","0.322334","0.000000","774891","902241","963469","0.727514","0.193523","0.000000","10841","9340","8777","8484","7648","8484","7732","6454","7732","6950","6023","6950","6834","4991","6834",""
"MA200-0420","24527","57","1","1.10","1.4","2023-05-12T08:48:30","120","2023/05/12","08:48:30","-15.805161237716675","35.00981533154845","11.5","9","30","64","84","-24712","-548","-6304","7","150","150.15","115.87","34.28","24.08","61.8","16.29","90272","24.13","DUALSPOT-UV-BLUE-GREEN-RED-IR","777247","705601","908024","3.321777","0.904600","-0.044423","887678","909200","840417","1.852941","0.561845","0.000000","865526","880822","831295","1.475095","0.439769","0.000000","886578","885775","891970","1.127547","0.346722","0.000000","775049","902806","964236","0.790092","0.208762","0.000000","10857","9841","9461","8560","8187","8560","7951","7546","7951","7584","7138","7584","7544","6210","7544",""
"MA200-0420","24528","57","1","1.10","1.4","2023-05-12T08:49:00","120","2023/05/12","08:49:00","-15.805636584758759","35.01089349668473","8.3","10","30","64","84","-24728","2196","-4300","7","150","149.41","115.83","33.57","24.15","61.4","16.27","90360","24.19","DUALSPOT-UV-BLUE-GREEN-RED-IR","777077","706260","909213","3.486404","0.942310","-0.115651","880822","902853","834750","1.957356","0.584125","0.000000","866298","882144","832681","1.561284","0.458282","0.000000","881067","880687","886982","1.194123","0.362004","0.000000","776021","904267","965891","0.835628","0.217993","0.000000","8347","6597","5949","6682","4919","6682","6177","4578","6177","5766","4566","5766","5491","3841","5491",""
"MA200-0420","24529","57","1","1.10","1.4","2023-05-12T08:49:30","120","2023/05/12","08:49:30","-15.807386338710785","35.01146299857646","6.5","10","30","64","84","-25260","-4000","-5612","7","150","149.63","116.23","33.39","24.23","61.3","16.29","90436","24.25","DUALSPOT-UV-BLUE-GREEN-RED-IR","771974","702959","905504","3.740473","1.004373","-0.068835","882602","905908","837915","2.138269","0.626796","0.000000","866851","883728","834439","1.713872","0.491732","0.000000","882080","882547","889084","1.318108","0.389128","0.000000","776726","905692","967556","0.923511","0.236114","0.000000","12839","10916","10210","11538","9472","11538","10899","8316","10899","10702","8148","10702","10562","7580","10562",""
"MA200-0420","24530","57","1","1.10","1.4","2023-05-12T08:50:00","120","2023/05/12","08:50:00","-15.8090118765831","35.01235949806869","5.8","10","30","64","84","-24732","-516","-6792","7","150","149.35","115.84","33.51","24.31","61.0","16.30","90348","24.31","DUALSPOT-UV-BLUE-GREEN-RED-IR","771388","702874","905585","3.828647","1.026622","-0.055213","882877","906511","838603","2.190846","0.641364","0.000000","866325","883442","834268","1.754701","0.501936","0.000000","881154","881801","888395","1.349759","0.397162","0.000000","775734","904714","966558","0.946279","0.239578","0.000000","4470","3899","3690","3364","3222","3364","2926","2528","2926","2741","2405","2741","2745","1443","2745",""
"MA200-0420","24531","57","1","1.10","1.4","2023-05-12T08:50:30","120","2023/05/12","08:50:30","-15.809684455394745","35.0130364978686","3.0","10","30","64","84","-24945","208","-5825","7","150","149.49","115.41","34.08","24.39","60.8","16.31","90376","24.44","DUALSPOT-UV-BLUE-GREEN-RED-IR","773458","705594","909355","3.969150","1.058359","-0.118940","885584","910046","842011","2.285623","0.661921","0.000000","863249","880888","831996","1.832246","0.519347","0.000000","885026","886173","892900","1.410278","0.410157","0.000000","772976","901861","963544","0.989534","0.246723","0.000000","7150","5469","4857","6088","4471","6088","5578","4240","5578","5261","3825","5261","5235","2928","5235",""
"MA200-0420","24532","57","1","1.10","1.4","2023-05-12T08:51:00","120","2023/05/12","08:51:00","-15.809217751026154","35.013718164525926","7.8","10","30","64","84","-24492","-936","-5356","7","150","150.41","115.88","34.53","24.46","60.6","16.33","90372","24.50","DUALSPOT-UV-BLUE-GREEN-RED-IR","768720","701790","904728","4.075925","1.084600","-0.076992","880694","905386","837870","2.347135","0.676840","0.000000","864998","882992","834088","1.882368","0.529623","0.000000","880252","881597","888370","1.446782","0.417352","0.000000","774224","903448","965367","1.018192","0.251970","0.000000","5412","4463","4119","3935","3202","3935","3591","2470","3591","3160","2090","3160","3454","2122","3454",""
"MA200-0420","24533","57","1","1.10","1.4","2023-05-12T08:51:30","120","2023/05/12","08:51:30","-15.808830201625824","35.016127998009324","10.9","10","30","64","84","-25236","-1340","-5736","7","150","149.35","115.27","34.08","24.53","60.4","16.34","90328","24.56","DUALSPOT-UV-BLUE-GREEN-RED-IR","771013","704411","908284","4.177551","1.107753","-0.108583","883451","908621","840951","2.406567","0.690806","0.000000","866060","884407","835484","1.929003","0.539410","0.000000","882268","883830","890710","1.482614","0.426350","0.000000","775303","904941","966951","1.044738","0.257078","0.000000","5178","3990","3562","3822","3038","3822","3358","2384","3358","3118","2648","3118","3217","2093","3217",""
"MA200-0420","24534","57","1","1.10","1.4","2023-05-12T08:52:00","120","2023/05/12","08:52:00","-15.808137714862823","35.01922232657671","11.4","10","30","64","84","-25224","-612","-4700","7","150","150.21","115.84","34.37","24.59","60.2","16.36","90284","24.69","DUALSPOT-UV-BLUE-GREEN-RED-IR","772108","705901","910427","4.262668","1.127534","-0.097996","876985","902347","835247","2.457600","0.701219","0.000000","862745","881325","832633","1.970273","0.547289","0.000000","878583","880356","887259","1.513017","0.432116","0.000000","771925","901205","962995","1.068811","0.260021","0.000000","4315","3380","3044","3265","2246","3265","2957","1903","2957","2633","1683","2633","2903","1196","2903",""
"MA200-0420","24535","57","1","1.10","1.4","2023-05-12T08:52:30","120","2023/05/12","08:52:30","-15.80785870552063","35.02202449552715","11.2","11","30","64","84","-25016","-508","-5537","7","150","150.21","115.48","34.73","24.68","60.0","16.38","90224","24.75","DUALSPOT-UV-BLUE-GREEN-RED-IR","766566","701459","904941","4.367002","1.153041","-0.078066","878944","904880","837707","2.520632","0.715774","0.000000","863007","881956","833376","2.020967","0.558793","0.000000","877607","879735","886707","1.551582","0.439289","0.000000","771560","900995","962817","1.095657","0.264620","0.000000","5306","4313","3957","4046","3106","4046","3644","2749","3644","3350","2071","3350","3247","1849","3247",""
"MA200-0420","24536","57","1","1.10","1.4","2023-05-12T08:53:00","120","2023/05/12","08:53:00","-15.807048618793488","35.02416432835162","1.0","10","30","64","84","-24345","4250","-7370","7","150","149.44","116.15","33.28","24.75","59.7","16.39","90140","24.88","DUALSPOT-UV-BLUE-GREEN-RED-IR","768947","704479","909205","4.530246","1.193924","-0.045591","881861","908577","841403","2.631598","0.743491","0.000000","860089","879602","831333","2.114915","0.580698","0.000000","882269","884903","892048","1.626901","0.456652","0.000000","774187","904470","966640","1.151449","0.274925","0.000000","8254","7214","6841","7082","6173","7082","6715","5463","6715","6505","5233","6505","6710","4324","6710",""
"MA200-0420","24537","57","1","1.10","1.4","2023-05-12T08:53:30","120","2023/05/12","08:53:30","-15.807048976421356","35.02419116348028","0.1","10","30","64","84","-24420","2579","-7233","7","150","149.87","115.71","34.17","24.83","59.6","16.42","90144","24.94","DUALSPOT-UV-BLUE-GREEN-RED-IR","763836","700371","904073","4.640249","1.220655","-0.068119","875890","902901","836251","2.700728","0.759256","0.000000","861078","881011","832726","2.171570","0.592863","0.000000","877133","880009","887202","1.672588","0.468273","0.000000","775544","906288","968635","1.186639","0.282532","0.000000","5583","4595","4242","4429","3420","4429","4065","2956","4065","3961","3412","3961","4248","3110","4248",""
"MA200-0420","24538","57","1","1.10","1.4","2023-05-12T08:54:00","120","2023/05/12","08:54:00","-15.806914865970612","35.02416216395795","0.1","10","30","64","84","-24862","2050","-3720","7","150","149.69","115.32","34.37","24.90","59.6","16.50","90156","25.00","DUALSPOT-UV-BLUE-GREEN-RED-IR","765626","702639","907255","4.757543","1.244245","-0.165338","879187","906780","839912","2.764135","0.768072","0.000000","862046","882366","834022","2.220934","0.598126","0.000000","878509","881665","888903","1.707728","0.470280","0.000000","771368","901587","963636","1.210722","0.284251","0.000000","5973","4031","3343","4076","1901","4076","3553","1271","3553","3057","585","3057","2917","698","2917",""
"MA200-0420","24539","57","1","1.10","1.4","2023-05-12T08:54:30","120","2023/05/12","08:54:30","-15.806903541088104","35.02415716275573","0.0","10","30","64","84","-24750","4034","-3834","7","150","150.28","115.60","34.68","24.98","59.7","16.60","90164","25.13","DUALSPOT-UV-BLUE-GREEN-RED-IR","766521","704218","909605","4.892616","1.274110","-0.112743","880313","908520","841598","2.833515","0.778627","0.000000","858821","879487","831394","2.275824","0.604790","0.000000","880974","884486","891802","1.748347","0.476013","0.000000","772722","903450","965652","1.240984","0.285819","0.000000","6863","5058","4423","4449","2256","4449","3942","1595","3942","3525","1658","3525","3656","631","3656",""
"MA200-0420","24540","57","1","1.10","1.4","2023-05-12T08:55:00","120","2023/05/12","08:55:00","-15.806890785694122","35.02414916083217","0.0","10","30","64","84","-24712","3900","-3720","7","150","150.15","115.96","34.19","25.04","59.8","16.69","90164","25.19","DUALSPOT-UV-BLUE-GREEN-RED-IR","761886","700495","904971","4.998768","1.298053","-0.093042","875133","903563","837094","2.892530","0.789201","0.000000","859845","880907","832778","2.324849","0.613927","0.000000","876242","879976","887301","1.784444","0.481445","0.000000","774112","905247","967618","1.266668","0.289667","0.000000","5376","4113","3670","3772","2292","3772","3510","2218","3510","3123","1594","3123","3094","1572","3094",""
"MA200-0420","24541","57","1","1.10","1.4","2023-05-12T08:55:30","120","2023/05/12","08:55:30","-15.806885004043579","35.02414932847023","0.0","10","30","64","84","-24700","3954","-3858","7","150","149.90","115.24","34.66","25.12","59.9","16.78","90164","25.25","DUALSPOT-UV-BLUE-GREEN-RED-IR","763913","702818","908119","5.081894","1.317956","-0.074795","877823","906719","840123","2.946179","0.802320","0.000000","861657","883059","834890","2.365720","0.620257","0.000000","878563","882586","890000","1.818417","0.487840","0.000000","770360","901068","963166","1.291194","0.291706","0.000000","4236","3372","3070","3451","2805","3451","2944","1516","2944","2957","1850","2957","2973","821","2973",""
"MA200-0420","24542","57","1","1.10","1.4","2023-05-12T08:56:00","120","2023/05/12","08:56:00","-15.806881308555603","35.02415182814002","0.0","10","30","64","84","-24740","3904","-3700","7","150","150.08","115.38","34.70","25.19","60.0","16.87","90168","25.31","DUALSPOT-UV-BLUE-GREEN-RED-IR","764849","704287","910328","5.189880","1.344947","-0.056919","872858","902098","835948","3.010469","0.814050","-0.388561","857494","879159","831282","2.417236","0.630509","0.000000","879134","883413","890900","1.856665","0.495678","0.000000","771449","902530","964791","1.319622","0.297198","0.000000","5497","4568","4243","4130","2505","1903","3706","2452","3706","3325","2266","3325","3441","2211","3441",""
"MA200-0420","24543","57","1","1.10","1.4","2023-05-12T08:56:30","120","2023/05/12","08:56:30","-15.806882679462433","35.0241558291018","0.0","10","30","64","83","-24754","3845","-3879","7","150","149.84","115.54","34.30","25.27","60.0","16.94","90168","25.38","DUALSPOT-UV-BLUE-GREEN-RED-IR","758140","698497","903040","5.280205","1.369079","-0.029556","872168","901681","835679","3.064024","0.828146","-0.060001","857338","879274","831485","2.462864","0.642478","0.000000","872835","877284","884777","1.891931","0.504045","0.000000","771133","902380","964654","1.344745","0.301136","0.000000","4591","4132","3971","3436","3046","2902","3278","2897","3278","3062","2447","3062","3037","1604","3037",""
"MA200-0420","24544","57","1","1.10","1.4","2023-05-12T08:57:00","120","2023/05/12","08:57:00","-15.806887686252594","35.024165662005544","0.0","10","30","64","84","-24704","3925","-3787","7","150","149.67","115.17","34.50","25.34","59.9","16.99","90168","25.44","DUALSPOT-UV-BLUE-GREEN-RED-IR","761251","701774","907446","5.356603","1.390422","-0.018681","876005","905982","839770","3.113305","0.842380","-0.016566","859258","881479","833644","2.500468","0.651586","0.000000","876274","880965","888590","1.922472","0.511740","0.000000","773121","904863","967370","1.368621","0.305673","0.000000","3896","3633","3541","3172","3058","3016","2710","2191","2710","2660","2237","2660","2896","1836","2896",""
"MA200-0420","24545","57","1","1.10","1.4","2023-05-12T08:57:30","120","2023/05/12","08:57:30","-15.806897819042206","35.02417182922363","0.0","10","30","64","84","-24696","3960","-3607","7","150","149.79","115.48","34.31","25.42","59.7","17.01","90164","25.56","DUALSPOT-UV-BLUE-GREEN-RED-IR","763275","703987","910526","5.428922","1.410078","-0.023942","870715","900833","835107","3.160554","0.855201","-0.042621","855920","878319","830749","2.539038","0.661391","0.000000","878903","883848","891507","1.953348","0.519279","0.000000","769472","900782","963015","1.391834","0.310223","0.000000","3678","3365","3255","3033","2770","2673","2772","2372","2772","2682","2204","2682","2807","1852","2807",""
"MA200-0420","24546","57","1","1.10","1.4","2023-05-12T08:58:00","120","2023/05/12","08:58:00","-15.806908547878265","35.02417849749327","0.0","10","30","64","83","-24936","3944","-3607","7","150","149.65","115.70","33.95","25.49","59.7","17.06","90160","25.63","DUALSPOT-UV-BLUE-GREEN-RED-IR","758179","699711","905172","5.507786","1.429660","-0.047560","872450","902993","837200","3.209322","0.864542","-0.282289","857120","879864","832263","2.580309","0.669223","0.000000","873725","878830","886527","1.983931","0.525652","0.000000","770887","902640","965048","1.415779","0.313855","0.000000","4003","3388","3172","3124","2039","1639","2961","1915","2961","2652","1883","2652","2891","1494","2891",""
"MA200-0420","24547","57","1","1.10","1.4","2023-05-12T08:58:30","120","2023/05/12","08:58:30","-15.806899309158325","35.02417749725282","0.0","11","30","64","83","-24712","3916","-3639","7","150","150.00","115.22","34.78","25.57","59.6","17.11","90156","25.69","DUALSPOT-UV-BLUE-GREEN-RED-IR","760402","702196","908557","5.590820","1.450313","-0.055793","875484","906495","840568","3.266346","0.878137","-0.123527","858098","881196","833615","2.628302","0.679612","0.000000","874974","880326","888128","2.022254","0.534864","0.000000","771446","903481","965996","1.444286","0.319182","0.000000","4232","3487","3226","3668","2897","2614","3458","2479","3458","3337","2656","3337","3456","2139","3456",""
"MA200-0420","24548","57","1","1.10","1.4","2023-05-12T08:59:00","120","2023/05/12","08:59:00","-15.806905150413513","35.0241824965924","0.1","11","30","64","83","-24632","3939","-4096","7","150","150.01","115.67","34.34","25.64","59.5","17.16","90156","25.81","DUALSPOT-UV-BLUE-GREEN-RED-IR","761631","703776","910807","5.676281","1.472803","-0.031951","870350","901601","836135","3.322875","0.891859","-0.100024","854581","877878","830597","2.675253","0.691348","0.000000","877309","882927","890819","2.059467","0.543643","0.000000","772972","905482","968194","1.471786","0.324524","0.000000","4339","3846","3673","3623","2961","2719","3369","2837","3369","3227","2564","3227","3321","2172","3321",""
"MA200-0420","24549","57","1","1.10","1.4","2023-05-12T08:59:30","120","2023/05/12","08:59:30","-15.806911826133728","35.024168495088816","0.0","11","30","64","83","-24740","3952","-3928","7","150","150.45","115.70","34.75","25.72","59.4","17.22","90152","25.88","DUALSPOT-UV-BLUE-GREEN-RED-IR","754061","697639","903287","5.832935","1.514759","-0.029349","869097","900910","835701","3.411400","0.913304","-0.105163","853891","877693","830543","2.746248","0.705963","0.000000","877279","883268","891277","2.111140","0.555394","0.000000","767486","899290","961653","1.505935","0.331712","0.000000","7952","7092","6790","5672","4575","4174","5094","3492","5094","4480","3393","4480","4123","2889","4123",""
"MA200-0420","24550","57","1","1.10","1.4","2023-05-12T09:00:00","120","2023/05/12","09:00:00","-15.806912362575531","35.02416632883251","0.0","11","30","64","83","-24632","3964","-3800","7","150","149.72","115.26","34.45","25.79","59.4","17.29","90156","25.94","DUALSPOT-UV-BLUE-GREEN-RED-IR","757443","701418","908434","5.965866","1.548408","-0.043701","873281","905716","840273","3.482747","0.929797","-0.128517","857020","881297","834020","2.802342","0.717818","0.000000","874600","880863","888912","2.152032","0.563767","0.000000","770291","902799","965413","1.535602","0.335677","0.000000","6773","5736","5373","4588","3548","3169","4040","2856","4040","3559","2438","3559","3595","1607","3595",""
"MA200-0420","24551","57","1","1.10","1.4","2023-05-12T09:00:30","120","2023/05/12","09:00:30","-15.806911170482635","35.024156995117664","0.0","11","30","64","83","-24696","3916","-3712","7","150","150.40","115.39","35.01","25.89","59.3","17.35","90160","26.06","DUALSPOT-UV-BLUE-GREEN-RED-IR","752979","697840","904046","6.070820","1.576955","-0.026781","867896","900665","835732","3.554815","0.947720","-0.091706","852537","877083","830195","2.862489","0.732499","0.000000","876114","882733","890931","2.203014","0.575196","0.000000","770843","903744","966530","1.574428","0.343122","0.000000","5342","4789","4595","4630","3795","3491","4327","3481","4327","4432","3275","4432","4700","2970","4700",""
"MA200-0420","24552","57","1","1.10","1.4","2023-05-12T09:01:00","120","2023/05/12","09:01:00","-15.806905329227448","35.02413949556649","0.1","11","30","64","83","-24720","3966","-3691","7","150","149.37","115.39","33.98","25.95","59.3","17.41","90160","26.06","DUALSPOT-UV-BLUE-GREEN-RED-IR","754009","699304","906207","6.176227","1.603126","-0.043485","869630","902925","837987","3.629404","0.964111","-0.145380","853133","878121","831277","2.926391","0.744873","0.000000","870677","877571","885821","2.253803","0.586385","0.000000","771483","904784","967688","1.611785","0.350541","0.000000","5365","4524","4229","4791","3576","3136","4597","3023","4597","4415","3304","4415","4522","3050","4522",""
"MA200-0420","24553","57","1","1.10","1.4","2023-05-12T09:01:30","120","2023/05/12","09:01:30","-15.806897461414337","35.024132162332535","0.1","11","30","64","83","-24672","3996","-3739","7","150","149.41","114.93","34.47","25.96","59.2","17.38","90164","26.19","DUALSPOT-UV-BLUE-GREEN-RED-IR","755497","701139","908811","6.263447","1.627655","-0.014708","871194","904996","840049","3.690505","0.980604","-0.042783","854862","880224","833359","2.979153","0.758934","0.000000","872606","879824","888176","2.297059","0.597239","0.000000","767897","900777","963490","1.644399","0.356994","0.000000","4457","4179","4081","3941","3546","3403","3811","3386","3811","3775","3158","3775","3964","2614","3964",""
"MA200-0420","24554","57","1","1.10","1.4","2023-05-12T09:02:00","120","2023/05/12","09:02:00","-15.80689388513565","35.02414866164327","0.1","11","30","64","83","-24700","3962","-3958","7","150","149.57","115.35","34.22","26.08","59.0","17.43","90164","26.25","DUALSPOT-UV-BLUE-GREEN-RED-IR","751578","698076","905099","6.372448","1.658870","-0.007732","867258","901444","836934","3.770649","1.003009","-0.022627","856384","882301","835511","3.049421","0.778407","-0.031848","874577","882202","890721","2.353371","0.613679","0.000000","769189","902613","965558","1.687303","0.368356","0.000000","5550","5357","5289","5150","4853","4745","5057","4724","4609","4897","4819","4897","5195","4637","5195",""
"MA200-0420","24555","57","1","1.10","1.4","2023-05-12T09:02:30","120","2023/05/12","09:02:30","-15.806888222694397","35.02415466308594","0.1","11","30","64","83","-24708","3971","-3692","7","150","149.57","115.39","34.18","26.16","58.8","17.45","90168","26.31","DUALSPOT-UV-BLUE-GREEN-RED-IR","750782","697830","905059","6.473404","1.687316","-0.010896","866077","900644","836375","3.843557","1.023340","-0.022560","851113","877266","830857","3.111857","0.794393","-0.071526","867927","875784","884366","2.404455","0.626028","0.000000","769275","902975","966002","1.725290","0.375254","0.000000","5138","4888","4800","4683","4409","4310","4492","3883","3674","4441","3624","4441","4598","2819","4598",""
"MA200-0420","24556","57","1","1.10","1.4","2023-05-12T09:03:00","120","2023/05/12","09:03:00","-15.806882321834564","35.02415416203439","0.6","11","30","64","83","-24796","2368","-3604","7","150","150.02","115.35","34.67","26.24","58.5","17.46","90176","26.38","DUALSPOT-UV-BLUE-GREEN-RED-IR","752671","700383","908792","6.630771","1.732053","-0.011955","869107","904655","840381","3.965098","1.056432","-0.037159","852855","879798","833490","3.217882","0.822180","-0.064585","871549","880047","888889","2.492733","0.649009","0.000000","766287","899936","962882","1.788461","0.389921","0.000000","8013","7578","7424","7811","7075","6808","7631","6653","6318","7678","6649","7678","7650","5909","7650",""
"MA200-0420","24557","57","1","1.10","1.4","2023-05-12T09:03:30","120","2023/05/12","09:03:30","-15.807007372379303","35.02451732940972","5.0","11","30","64","83","-25045","-3354","-5062","7","150","149.53","115.46","34.07","26.31","58.2","17.44","90136","26.44","DUALSPOT-UV-BLUE-GREEN-RED-IR","749139","697622","905508","6.732187","1.761894","-0.000588","865124","900949","837121","4.037475","1.076663","-0.019236","848835","875967","830037","3.280377","0.838887","-0.044119","872561","881358","890338","2.543621","0.663495","0.000000","766951","900962","964063","1.825838","0.398009","0.000000","5159","5144","5138","4647","4401","4312","4493","4070","3925","4421","4265","4421","4522","3316","4522",""
"MA200-0420","24558","57","1","1.10","1.4","2023-05-12T09:04:00","120","2023/05/12","09:04:00","-15.80690199136734","35.02605349384248","6.6","11","30","64","83","-25583","-2550","-4729","7","150","149.65","115.26","34.38","26.38","57.8","17.38","90048","26.56","DUALSPOT-UV-BLUE-GREEN-RED-IR","746522","697800","906999","7.260959","1.904138","-0.021133","863501","901870","838900","4.444480","1.188195","-0.028085","847211","876566","831383","3.637004","0.934338","-0.044094","871799","882495","892162","2.837977","0.741073","0.000000","766525","901876","965577","2.039344","0.451738","0.000000","26945","24300","23360","26176","24048","23272","25687","23049","22137","25621","22638","25621","25876","21830","25876",""
"MA200-0420","24559","57","1","1.10","1.4","2023-05-12T09:04:30","120","2023/05/12","09:04:30","-15.807137668132782","35.02816099487245","8.9","11","30","64","83","-25208","-3728","-3636","7","150","149.65","115.39","34.25","26.47","57.2","17.32","89992","26.63","DUALSPOT-UV-BLUE-GREEN-RED-IR","747076","698759","908529","7.356579","1.937564","0.026425","864037","902773","839938","4.506379","1.211524","0.059809","847769","877403","832344","3.687161","0.955289","0.096205","866936","877742","887555","2.879094","0.757886","0.000000","767331","903029","966903","2.071947","0.460315","0.000000","4867","5732","6041","3976","5049","5443","3608","5078","5592","3574","4924","3574","3946","3498","3946",""
"MA200-0420","24560","57","1","1.10","1.4","2023-05-12T09:05:00","120","2023/05/12","09:05:00","-15.807727992534637","35.03032082878053","9.7","11","30","64","82","-25312","-1100","-4816","7","150","150.21","115.56","34.65","26.53","56.7","17.23","89948","26.69","DUALSPOT-UV-BLUE-GREEN-RED-IR","747196","699286","909475","7.446203","1.966487","0.012604","856866","895556","833371","4.558355","1.230794","0.053673","848382","878271","833281","3.731000","0.970906","0.054302","867763","878840","888721","2.913661","0.770518","0.000000","762916","897996","961606","2.100298","0.469211","0.000000","4555","4902","5027","3334","4122","4414","3149","3741","3949","3001","3657","3001","3427","3586","3427",""
"MA200-0420","24561","57","1","1.10","1.4","2023-05-12T09:05:30","120","2023/05/12","09:05:30","-15.808594405651093","35.032972160726786","9.9","11","30","64","83","-24836","-84","-5600","7","150","149.63","115.48","34.14","26.61","56.2","17.16","89928","26.75","DUALSPOT-UV-BLUE-GREEN-RED-IR","744235","696835","906428","7.503963","1.983839","0.002835","861301","900472","838044","4.596740","1.242876","0.017671","850584","880772","835738","3.761476","0.979733","-0.007535","871524","882771","892793","2.937884","0.779559","0.000000","764893","900505","964328","2.120149","0.473628","0.000000","2937","2984","3001","2464","2623","2682","2191","2146","2130","2104","2656","2104","2401","1807","2401",""
"MA200-0420","24562","57","1","1.10","1.4","2023-05-12T09:06:00","120","2023/05/12","09:06:00","-15.807650029659271","35.034124828875065","10.7","11","30","64","83","-25276","-2196","-5676","7","150","149.38","115.24","34.13","26.68","55.9","17.14","89936","26.81","DUALSPOT-UV-BLUE-GREEN-RED-IR","744802","698672","909429","7.731863","2.042532","-0.027870","862002","902491","840281","4.764694","1.284837","-0.057212","845461","876527","832033","3.906995","1.014757","-0.086735","864527","876537","886751","3.054137","0.808123","-0.098749","764808","901012","965087","2.204698","0.493775","0.000000","11615","10100","9556","10803","9113","8489","10483","8519","7829","10120","8396","7775","10248","8245","10248",""
"MA200-0420","24563","57","1","1.10","1.4","2023-05-12T09:06:30","120","2023/05/12","09:06:30","-15.804802000522614","35.03469765931368","12.5","11","30","64","83","-25537","-1679","-5833","7","150","149.30","115.87","33.43","26.76","55.5","17.10","89788","26.88","DUALSPOT-UV-BLUE-GREEN-RED-IR","744497","699994","911924","8.025369","2.120370","-0.015376","855730","897411","836088","4.977524","1.340878","-0.027294","845227","877612","833490","4.087627","1.060432","-0.049005","865189","878289","888882","3.200564","0.844693","-0.069786","765164","902254","966671","2.307239","0.516531","0.000000","14877","13675","13243","13616","12426","11987","12942","11342","10782","12678","10974","10363","12362","9508","12362",""
"MA200-0420","24564","57","1","1.10","1.4","2023-05-12T09:07:00","120","2023/05/12","09:07:00","-15.802947342395782","35.03565649315715","6.0","11","30","64","83","-24860","-316","-6936","7","150","149.60","115.25","34.35","26.82","55.0","17.03","89748","27.00","DUALSPOT-UV-BLUE-GREEN-RED-IR","739161","695751","906763","8.214098","2.171264","-0.018079","856284","898733","837579","5.118245","1.379084","-0.027087","846596","879643","835623","4.210603","1.093119","-0.040603","867336","880982","891794","3.302440","0.870947","-0.068156","761679","898574","962840","2.384595","0.533989","0.000000","9618","8703","8374","9051","8246","7949","8858","7901","7565","8868","7668","7238","9376","7100","9376",""
"MA200-0420","24565","57","1","1.10","1.4","2023-05-12T09:07:30","120","2023/05/12","09:07:30","-15.801839053630829","35.03626065701246","8.9","11","30","64","83","-25929","-3387","-3816","7","150","149.71","115.08","34.63","26.90","54.8","17.03","89756","27.06","DUALSPOT-UV-BLUE-GREEN-RED-IR","735314","695680","908403","8.812233","2.333282","-0.017807","853592","899590","839581","5.593133","1.505125","-0.034379","838375","874242","831586","4.631138","1.204252","-0.042496","858658","874797","886487","3.653238","0.963155","-0.056712","760025","898617","963607","2.644294","0.600036","0.000000","30527","27482","26386","30590","26984","25656","30337","26646","25348","30581","26716","25333","31523","26645","31523",""
"MA200-0420","24566","57","1","1.10","1.4","2023-05-12T09:08:00","120","2023/05/12","09:08:00","-15.802281498908997","35.03891432657838","6.6","11","30","64","82","-25154","-108","-4775","7","150","149.53","115.67","33.87","26.96","54.4","16.98","89604","27.13","DUALSPOT-UV-BLUE-GREEN-RED-IR","736591","697450","911038","9.046301","2.396055","-0.014265","855041","901623","841700","5.765682","1.550120","-0.030498","838872","875219","832658","4.782122","1.242989","-0.041968","858952","875444","887310","3.778378","0.995335","-0.052380","760320","899294","964439","2.733539","0.619619","0.000000","11886","10887","10527","11058","9849","9405","10837","9496","9025","10854","9533","9061","10778","8077","10778",""
"MA200-0420","24567","57","1","1.10","1.4","2023-05-12T09:08:30","120","2023/05/12","09:08:30","-15.803110301494598","35.040104154497385","7.7","12","30","64","83","-25188","-1040","-5620","7","150","149.38","115.32","34.05","27.04","54.1","16.95","89520","27.13","DUALSPOT-UV-BLUE-GREEN-RED-IR","722679","690415","904690","10.124058","2.682508","-0.015537","840794","893018","835728","6.630939","1.774692","-0.029861","832348","873967","833303","5.541098","1.437377","-0.039375","854372","875481","888937","4.410321","1.154724","-0.055830","757032","898906","965232","3.190111","0.731096","-0.090805","54891","49408","47431","55621","48888","46428","54640","47392","44853","54977","46958","44114","55306","45730","42883",""
"MA200-0420","24568","57","1","1.10","1.4","2023-05-12T09:09:00","120","2023/05/12","09:09:00","-15.804077446460724","35.04191116243601","8.5","12","30","64","82","-25224","-1324","-4668","7","150","150.08","115.52","34.56","27.10","53.8","16.92","89416","27.19","DUALSPOT-UV-BLUE-GREEN-RED-IR","702703","685313","905381","12.267582","3.291507","-0.006024","821757","888062","836674","8.420414","2.273142","-0.012387","810830","864756","829376","7.123466","1.870894","-0.018111","841090","873411","891194","5.740132","1.514151","-0.026301","748241","897224","966757","4.165420","0.986342","-0.047127","108986","103498","101486","114835","106917","103989","113722","104140","100727","115491","104339","100342","117941","103170","98587",""
"MA200-0420","24569","57","1","1.10","1.4","2023-05-12T09:09:30","120","2023/05/12","09:09:30","-15.804247796535492","35.04444032162428","15.8","12","30","64","82","-25083","-729","-5300","7","150","150.07","114.91","35.16","27.16","53.4","16.86","89328","27.25","DUALSPOT-UV-BLUE-GREEN-RED-IR","698789","684577","905967","13.695108","3.689947","-0.009981","817980","887194","836994","9.584297","2.589685","-0.018754","811546","868444","833891","8.194738","2.157193","-0.025323","836736","871404","890026","6.665118","1.756912","-0.035941","745152","895427","965513","4.830923","1.154418","-0.061651","72968","66557","64193","75087","66738","63646","77400","67600","64098","80760","69267","65153","80905","66775","62338",""
"MA200-0420","24570","57","1","1.10","1.4","2023-05-12T09:10:00","120","2023/05/12","09:10:00","-15.802572011947632","35.04822915792465","14.3","13","30","64","83","-24970","120","-5558","7","150","150.33","115.61","34.72","27.23","53.0","16.81","89388","27.25","DUALSPOT-UV-BLUE-GREEN-RED-IR","699219","686383","909109","14.016357","3.780599","-0.006428","818954","889696","839879","9.841566","2.661646","-0.010548","807161","865014","831056","8.423722","2.219462","-0.017472","838302","874096","893174","6.857041","1.808470","-0.024384","741312","891650","961706","4.972198","1.187428","-0.082783","16320","15335","14971","16496","15364","14945","16443","14889","14333","16654","14898","14269","17070","13281","12092",""
"MA200-0420","24571","57","1","1.10","1.4","2023-05-12T09:10:30","120","2023/05/12","09:10:30","-15.80134117603302","35.05126065760851","11.3","13","30","64","82","-24879","-1562","-5054","7","150","150.09","115.63","34.46","27.28","52.6","16.74","89328","27.31","DUALSPOT-UV-BLUE-GREEN-RED-IR","698209","686603","910022","14.244804","3.844808","-0.005939","817396","889288","839977","10.026052","2.714622","-0.005256","807002","865903","832341","8.583151","2.264691","-0.008153","831574","868000","887303","6.989020","1.843909","-0.022241","741323","892386","962728","5.069074","1.212387","-0.042767","11604","10943","10699","11828","11396","11236","11447","10896","10698","11451","10317","9911","11704","10117","9618",""
"MA200-0420","24572","57","1","1.10","1.4","2023-05-12T09:11:00","120","2023/05/12","09:11:00","-15.801322042942047","35.05397832766175","13.8","13","30","64","82","-24742","-1280","-7040","7","150","150.21","115.31","34.90","27.35","52.3","16.71","89288","27.31","DUALSPOT-UV-BLUE-GREEN-RED-IR","692567","681983","904317","14.461603","3.904369","-0.009999","811762","884090","835425","10.200400","2.762109","-0.015586","806079","865749","832452","8.737344","2.305043","-0.025765","831249","868370","887904","7.118304","1.877727","-0.031738","740684","892123","962659","5.164015","1.235088","-0.073787","11043","10024","9647","11208","10087","9671","11101","9599","9061","11248","9722","9175","11501","9087","8328",""
"MA200-0420","24573","57","1","1.10","1.4","2023-05-12T09:11:30","120","2023/05/12","09:11:30","-15.803534865379333","35.057341661304235","15.2","13","30","64","82","-24668","-2128","-6868","7","150","149.86","115.26","34.60","27.40","51.9","16.66","89176","27.38","DUALSPOT-UV-BLUE-GREEN-RED-IR","686101","680654","905356","15.054842","4.076343","-0.003266","805539","882816","836317","10.690711","2.904224","-0.004625","800651","864637","833211","9.161541","2.424824","-0.009561","827246","868152","889287","7.466992","1.974480","-0.015326","738252","892215","963949","5.418363","1.302321","-0.034393","30230","29197","28813","31534","30452","30048","30554","28744","28093","30350","28057","27233","30826","27147","25983",""
"MA200-0420","24574","57","1","1.10","1.4","2023-05-12T09:12:00","120","2023/05/12","09:12:00","-15.804021298885345","35.061292327940464","14.5","13","30","64","82","-24932","-1152","-6064","7","150","149.69","115.24","34.45","27.46","51.6","16.60","89132","27.38","DUALSPOT-UV-BLUE-GREEN-RED-IR","684468","680628","906120","15.839130","4.300613","-0.003992","804352","883161","837236","11.337756","3.086382","-0.007658","799296","864738","833831","9.750558","2.587986","-0.011360","826176","868395","890027","7.970656","2.111415","-0.017593","737316","892130","964190","5.779976","1.395479","-0.038512","39972","38240","37595","41622","39202","38297","42433","39325","38202","43847","39883","38454","43833","37779","35852",""
"MA200-0420","24575","57","1","1.10","1.4","2023-05-12T09:12:30","120","2023/05/12","09:12:30","-15.804498314857483","35.06489332020283","13.1","13","30","64","82","-25104","-1170","-6750","7","150","149.53","115.63","33.91","27.52","51.3","16.56","0","0.00","DUALSPOT-UV-BLUE-GREEN-RED-IR","684426","680847","906475","15.892788","4.311023","-0.054545","803700","882708","836881","11.380109","3.096712","-0.026434","799435","865150","834265","9.786762","2.594679","-0.103345","826348","868758","890453","7.998871","2.117598","-0.065498","737114","892070","964119","5.802479","1.398429","-0.462643","2725","1803","1460","2715","2258","2087","2599","1638","1292","2448","1829","1606","2718","1215","737",""
"MA200-0420","24576","57","1","1.10","1.4","2023-05-12T09:13:00","120","2023/05/12","09:13:00","-15.804941833019257","35.06805965304375","11.2","13","30","64","82","-25016","-871","-6044","7","150","150.56","115.67","34.89","27.56","51.1","16.54","0","0.00","DUALSPOT-UV-BLUE-GREEN-RED-IR","684008","681450","907799","16.068167","4.359810","-0.007435","804163","884294","838756","11.522552","3.136951","-0.008288","798751","865322","834707","9.907186","2.626222","-0.022020","825961","869101","891066","8.098659","2.142562","-0.037291","736919","892418","964714","5.874794","1.414587","-0.088253","8905","8213","7955","9129","8550","8333","8643","7506","7095","8655","7178","6647","8733","6469","5751",""
"MA200-0420","24577","57","1","1.10","1.4","2023-05-12T09:13:30","120","2023/05/12","09:13:30","-15.804479956626892","35.07098364830017","14.4","13","30","64","82","-25050","-3087","-6608","7","150","149.81","114.88","34.92","27.60","50.8","16.50","88792","27.50","DUALSPOT-UV-BLUE-GREEN-RED-IR","683959","681793","908431","16.174067","4.386936","-0.017033","803694","884145","838760","11.605430","3.158391","-0.022192","794378","860900","830596","9.980482","2.643889","-0.039310","820474","863647","885534","8.158735","2.157009","-0.048637","737473","893295","965715","5.918556","1.422744","-0.175380","5414","4562","4244","5348","4550","4252","5297","4199","3804","5246","4150","3756","5321","3262","2611",""
"MA200-0420","24578","57","1","1.10","1.4","2023-05-12T09:14:00","120","2023/05/12","09:14:00","-15.80333787202835","35.07395697385073","9.2","13","30","64","82","-25345","-1966","-6229","7","150","149.76","114.93","34.83","27.65","50.5","16.45","88648","27.50","DUALSPOT-UV-BLUE-GREEN-RED-IR","683939","682075","908892","16.232399","4.399153","-0.045300","804080","884881","839548","11.654567","3.171122","-0.021343","794455","861256","831008","10.022480","2.655190","-0.017945","827463","871206","893347","8.192692","2.164135","-0.087617","737365","893372","965813","5.943739","1.427397","-0.177674","2981","2060","1717","3169","2709","2538","3033","2693","2571","2964","2052","1725","3060","1866","1488",""
"MA200-0420","24579","57","1","1.10","1.4","2023-05-12T09:14:30","120","2023/05/12","09:14:30","-15.8023961186409","35.075973980128765","8.2","13","30","64","82","-25154","-1083","-5737","7","150","149.47","115.01","34.46","27.69","50.3","16.41","88552","27.50","DUALSPOT-UV-BLUE-GREEN-RED-IR","683183","681928","909111","16.342136","4.431324","-0.001859","803505","884898","839860","11.745115","3.199089","0.003466","793323","860594","830578","10.098168","2.675205","-0.018815","820261","864093","886255","8.256209","2.181140","-0.020481","736968","893284","965872","5.991962","1.438030","-0.088855","5604","5483","5439","5836","6016","6084","5463","4822","4591","5540","4951","4739","5857","4310","3822",""
"MA200-0420","24580","57","1","1.10","1.4","2023-05-12T09:15:00","120","2023/05/12","09:15:00","-15.80137187242508","35.077698327600956","7.1","13","30","64","82","-24933","-912","-6166","7","150","149.86","115.35","34.51","27.73","50.1","16.38","88544","27.56","DUALSPOT-UV-BLUE-GREEN-RED-IR","683825","682838","910368","16.417074","4.449444","-0.021744","804166","885886","840846","11.805614","3.213882","-0.028376","794019","861557","831591","10.152102","2.688515","-0.030796","827295","871686","894109","8.298175","2.191385","-0.040161","736971","893430","966059","6.024866","1.443831","-0.194978","3815","3084","2811","3888","3178","2912","3881","3202","2957","3649","2978","2737","3984","2348","1832",""
"MA200-0420","24581","57","1","1.10","1.4","2023-05-12T09:15:30","120","2023/05/12","09:15:30","-15.800437152385712","35.07927047461271","6.2","13","30","64","82","-25241","-1195","-3916","7","150","149.41","115.05","34.36","27.78","50.0","16.39","88504","27.56","DUALSPOT-UV-BLUE-GREEN-RED-IR","684461","683549","911334","16.431793","4.449611","0.251640","804822","886786","841704","11.821396","3.216242","-0.184636","794020","861667","831681","10.162627","2.687872","0.252628","820444","864559","886766","8.306717","2.190505","0.266015","736953","893472","966092","6.030821","1.442529","0.295747","751","28","-239","1016","509","319","759","-155","-484","744","-256","-615","723","-529","-922",""
"MA200-0420","24582","57","1","1.10","1.4","2023-05-12T09:16:00","120","2023/05/12","09:16:00","-15.799265503883362","35.07961097359657","6.7","13","30","64","82","-24968","-196","-5468","7","150","150.62","115.67","34.96","27.80","49.8","16.37","88480","27.56","DUALSPOT-UV-BLUE-GREEN-RED-IR","682990","682419","909940","16.485104","4.463093","-0.017497","802585","884569","839722","11.864640","3.227550","-0.019160","793236","861042","831176","10.198880","2.697086","-0.027031","819740","863984","886263","8.335208","2.196704","-0.073630","736044","892553","965128","6.052543","1.446138","-0.239423","2707","2265","2101","2771","2397","2258","2602","2188","2039","2471","1779","1531","2623","1442","1071",""
"MA200-0420","24583","57","1","1.10","1.4","2023-05-12T09:16:30","120","2023/05/12","09:16:30","-15.798625767230988","35.07855448126793","4.3","13","30","64","82","-24608","804","-6636","7","150","150.34","115.40","34.94","27.84","49.7","16.35","88560","27.63","DUALSPOT-UV-BLUE-GREEN-RED-IR","680541","680063","906824","16.508535","4.466291","-0.184466","800389","882265","837577","11.882789","3.232330","-0.018299","795026","863111","833158","10.214221","2.698231","4.152941","821874","866344","888650","8.347490","2.198368","-0.359905","737394","894229","966948","6.062280","1.446266","0.808873","1192","537","294","1165","1014","957","1103","271","-26","1067","477","266","1178","51","-301",""
"MA200-0420","24584","57","1","1.10","1.4","2023-05-12T09:17:00","120","2023/05/12","09:17:00","-15.798271596431732","35.07795464992523","0.0","13","30","64","82","-24770","-25","-7591","7","150","150.41","115.13","35.28","27.87","49.7","16.39","88604","27.63","DUALSPOT-UV-BLUE-GREEN-RED-IR","681317","681003","908114","16.531456","4.468181","37.147984","801560","883748","838985","11.902463","3.233808","2.390651","795320","863578","833583","10.228051","2.697664","0.278929","822836","867433","889786","8.357647","2.197463","0.278955","737746","894782","967542","6.071161","1.444629","0.314242","1169","314","-1","1266","310","-46","997","-133","-538","885","-257","-664","1077","-648","-1187",""
"MA200-0420","24585","57","1","1.10","1.4","2023-05-12T09:17:30","120","2023/05/12","09:17:30","-15.798114120960236","35.07770565152168","2.5","13","30","64","82","-24868","-1696","-6524","7","150","149.69","115.01","34.68","27.91","49.8","16.46","88608","27.69","DUALSPOT-UV-BLUE-GREEN-RED-IR","681930","681767","909138","16.555265","4.470138","-17.396160","802045","884429","839639","11.922042","3.235745","-0.995186","791504","859525","829702","10.242745","2.698463","0.961695","823456","868225","890574","8.368180","2.196998","0.335058","734011","890298","962693","6.078811","1.443559","0.343386","1215","331","4","1262","413","98","1060","191","-119","918","-134","-509","929","-430","-854",""
"MA200-0420","24586","57","1","1.10","1.4","2023-05-12T09:18:00","120","2023/05/12","09:18:00","-15.797885060310364","35.07730281352997","1.5","13","30","64","82","-25091","-816","-6529","7","150","149.94","115.25","34.69","27.95","49.8","16.48","88608","27.69","DUALSPOT-UV-BLUE-GREEN-RED-IR","681383","681335","908626","16.579815","4.474415","-0.082256","801064","883420","838759","11.939440","3.239894","-0.033405","795907","864426","834473","10.257154","2.701324","-0.083702","825070","869975","892419","8.378571","2.198282","-0.474992","734488","891000","963405","6.087284","1.444282","-2.557516","1251","724","529","1119","886","799","1037","684","558","904","371","181","1026","290","61",""
"MA200-0420","24587","57","1","1.10","1.4","2023-05-12T09:18:30","120","2023/05/12","09:18:30","-15.797398507595062","35.07648365199566","5.1","13","30","64","82","-24772","-464","-5980","7","150","149.94","114.72","35.23","27.98","49.8","16.51","88616","27.75","DUALSPOT-UV-BLUE-GREEN-RED-IR","680258","681863","909914","16.808680","4.525789","-0.034656","800742","884748","840434","12.116984","3.280210","-0.045863","790683","860175","830714","10.410359","2.734077","-0.067309","823849","869934","892693","8.506776","2.225664","-0.082488","733620","890986","963672","6.191456","1.461684","-0.239149","11718","8566","7404","11473","8484","7375","11087","7719","6519","11212","7798","6588","12685","6901","5113",""
"MA200-0420","24588","57","1","1.10","1.4","2023-05-12T09:19:00","120","2023/05/12","09:19:00","-15.796805560588837","35.07545632869005","4.1","13","30","64","82","-24125","133","-9329","7","150","150.50","115.26","35.24","28.01","49.7","16.51","88696","27.75","DUALSPOT-UV-BLUE-GREEN-RED-IR","677827","681389","910380","17.165148","4.617254","-0.016425","798548","884406","840894","12.394604","3.353512","-0.018557","792647","864103","835189","10.652334","2.795046","-0.029393","821729","869220","892533","8.707353","2.275090","-0.040909","732128","890424","963492","6.349497","1.495159","-0.105805","18164","15244","14169","17855","15419","14516","17429","14363","13273","17458","14071","12873","19153","13269","11457",""
"MA200-0420","24589","57","1","1.10","1.4","2023-05-12T09:19:30","120","2023/05/12","09:19:30","-15.795210719108582","35.07612582296133","6.5","13","30","64","81","-24629","1729","-7866","7","150","150.22","115.13","35.08","28.04","49.6","16.50","88772","27.75","DUALSPOT-UV-BLUE-GREEN-RED-IR","676654","680422","909162","17.334458","4.665287","-0.006016","796815","882696","839319","12.535284","3.393697","-0.007492","787420","858539","829896","10.781544","2.831829","-0.009093","820131","867644","891002","8.818859","2.305505","-0.018773","731005","889152","962135","6.431886","1.515537","-0.050835","8637","8041","7821","9058","8491","8280","9317","8703","8485","9716","8697","8336","9996","8113","7533",""
"MA200-0420","24590","57","1","1.10","1.4","2023-05-12T09:20:00","120","2023/05/12","09:20:00","-15.794336080551147","35.07540248334408","7.3","13","30","64","82","-25092","1028","-3884","7","150","150.49","115.29","35.19","28.06","49.3","16.45","88928","27.75","DUALSPOT-UV-BLUE-GREEN-RED-IR","677508","681712","910979","17.406734","4.682409","-0.025366","798165","884463","841140","12.583963","3.407037","-0.012962","788360","859868","831235","10.819581","2.842015","-0.018446","815531","863005","886247","8.846473","2.312128","-0.046199","732035","890619","963747","6.454494","1.520103","-0.122990","3682","2857","2554","3130","2809","2691","2739","2403","2283","2402","1887","1705","2739","1812","1527",""
"MA200-0420","24591","57","1","1.10","1.4","2023-05-12T09:20:30","120","2023/05/12","09:20:30","-15.793648838996887","35.074053317308426","4.4","13","30","64","82","-25572","-264","-3344","7","150","149.89","114.93","34.96","28.09","49.2","16.45","88984","27.75","DUALSPOT-UV-BLUE-GREEN-RED-IR","677804","682084","911539","17.428436","4.684799","-0.392556","798656","885148","841800","12.603487","3.410375","-0.119210","787716","859264","830638","10.834188","2.842641","0.652622","814960","862441","885688","8.857004","2.313131","-1.485891","731376","889852","962939","6.463142","1.520735","-24.009085","1109","401","141","1259","707","503","1055","148","-173","919","288","64","1051","252","6",""
"MA200-0420","24592","57","1","1.10","1.4","2023-05-12T09:21:00","120","2023/05/12","09:21:00","-15.792564928531647","35.073134653270245","6.7","13","30","64","82","-24820","-220","-5612","7","150","149.69","114.82","34.88","28.11","49.3","16.48","88888","27.75","DUALSPOT-UV-BLUE-GREEN-RED-IR","672085","676476","903974","17.441760","4.681244","0.093906","792188","878097","835129","12.616303","3.410172","0.258684","788261","859972","831308","10.842798","2.840459","0.154330","815749","863375","886620","8.862991","2.310536","0.162254","732080","890775","963894","6.466003","1.517846","0.187906","681","-598","-1068","827","-43","-365","622","-519","-924","523","-746","-1194","348","-1157","-1619",""
"MA200-0420","24593","57","1","1.10","1.4","2023-05-12T09:21:30","120","2023/05/12","09:21:30","-15.791546285152435","35.071918316185474","6.6","13","30","64","82","-25044","-1220","-5180","7","150","149.95","115.01","34.94","28.13","49.2","16.46","88848","27.75","DUALSPOT-UV-BLUE-GREEN-RED-IR","672743","677293","905155","17.473418","4.689638","-0.012060","792916","879060","836091","12.643551","3.419549","0.012157","788171","859998","831386","10.865555","2.847701","0.005549","815979","863693","886984","8.880910","2.315274","-0.023995","731963","890707","963851","6.478056","1.519807","-0.238236","1616","1410","1335","1756","1989","2075","1642","1720","1748","1563","1360","1288","1463","784","575",""
"MA200-0420","24594","57","1","1.10","1.4","2023-05-12T09:22:00","120","2023/05/12","09:22:00","-15.789855718612671","35.0727329775691","6.0","13","30","64","82","-24656","1727","-6240","7","150","149.79","114.79","35.00","28.15","49.0","16.42","88908","27.81","DUALSPOT-UV-BLUE-GREEN-RED-IR","673717","678376","906681","17.499542","4.697653","0.000469","794229","880598","837618","12.662559","3.426159","0.012747","793545","865934","837192","10.881299","2.852827","0.007724","816532","864364","887729","8.892119","2.319044","0.013773","732488","891448","964663","6.488603","1.521445","-0.275487","1336","1344","1347","1227","1399","1463","1138","1215","1243","979","1080","1116","1283","653","460",""
"MA200-0420","24595","57","1","1.10","1.4","2023-05-12T09:22:30","120","2023/05/12","09:22:30","-15.788365721702576","35.073539309203625","5.5","13","30","64","81","-24800","1052","-6428","7","150","150.30","115.09","35.21","28.18","48.7","16.36","89028","27.88","DUALSPOT-UV-BLUE-GREEN-RED-IR","672766","677835","906165","17.582828","4.721796","-0.004381","793131","879802","837057","12.730145","3.447437","0.003032","788419","860728","832294","10.940915","2.870298","-0.005516","815530","863610","887082","8.942897","2.332965","-0.018257","732059","891180","964469","6.527942","1.530798","-0.062875","4250","4028","3946","4353","4480","4528","4300","4119","4055","4426","3967","3805","4774","3711","3385",""
"MA200-0420","24596","57","1","1.10","1.4","2023-05-12T09:23:00","120","2023/05/12","09:23:00","-15.787067770957947","35.07401864230633","5.7","13","30","64","82","-25012","820","-6908","7","150","149.56","114.73","34.83","28.20","48.5","16.32","89148","27.94","DUALSPOT-UV-BLUE-GREEN-RED-IR","674591","679776","908858","17.607346","4.729271","0.000332","794846","881839","839015","12.747696","3.452027","-0.018411","790494","863070","834597","10.954872","2.875250","0.017021","819210","867553","891181","8.954542","2.336333","-0.007654","733876","893453","966942","6.535795","1.531082","1.173167","1255","1260","1262","1134","976","918","1009","1180","1241","1018","970","953","956","114","-143",""
"MA200-0420","24597","57","1","1.10","1.4","2023-05-12T09:23:30","120","2023/05/12","09:23:30","-15.785674035549164","35.074711479246616","5.8","13","30","64","82","-24850","854","-5804","7","150","149.47","115.05","34.42","28.24","48.3","16.28","0","0.00","DUALSPOT-UV-BLUE-GREEN-RED-IR","674585","679911","909126","17.634656","4.736234","-0.014363","795419","882570","839782","12.768838","3.459293","0.013263","785748","857985","829723","10.971775","2.879327","-0.032503","819543","868032","891669","8.967913","2.340055","-0.011598","734107","893821","967362","6.545984","1.533288","-0.086302","1394","1188","1112","1362","1564","1640","1219","983","899","1165","1084","1056","1237","895","790",""
"MA200-0420","24598","57","1","1.10","1.4","2023-05-12T09:24:00","120","2023/05/12","09:24:00","-15.78465622663498","35.075568810105324","3.8","13","30","64","82","-24529","3050","-4454","7","150","149.56","114.81","34.75","28.27","48.1","16.25","0","0.00","DUALSPOT-UV-BLUE-GREEN-RED-IR","673219","678968","908064","17.720842","4.761505","-0.002523","794142","881540","838909","12.825161","3.475159","-0.008189","789335","862183","833867","11.017177","2.891064","-0.022397","818183","866824","890501","9.000692","2.347892","-0.044114","732968","892612","966055","6.568794","1.537546","-0.152514","4409","4271","4220","3636","3384","3291","3283","2803","2633","2864","2262","2050","2775","1711","1386",""
"MA200-0420","24599","57","1","1.10","1.4","2023-05-12T09:24:30","120","2023/05/12","09:24:30","-15.784990191459656","35.07634215056896","2.9","13","30","64","81","-25064","1092","-7879","7","150","149.44","115.09","34.35","28.30","47.9","16.22","89376","28.00","DUALSPOT-UV-BLUE-GREEN-RED-IR","670912","676942","905526","17.779430","4.778385","-0.002805","791461","878801","836388","12.857114","3.483445","-0.017086","787061","859860","831672","11.041284","2.898085","-0.003071","814563","863093","886724","9.018272","2.352865","-0.008466","730814","890026","963332","6.580829","1.540991","-0.008559","2990","2886","2848","2058","1787","1687","1739","1697","1682","1532","1452","1423","1460","1401","1382",""
"MA200-0420","24600","57","1","1.10","1.4","2023-05-12T09:25:00","120","2023/05/12","09:25:00","-15.785382628440857","35.07681615650654","2.6","13","30","64","82","-25148","-440","-5328","7","150","150.46","115.20","35.26","28.33","48.0","16.28","89384","28.06","DUALSPOT-UV-BLUE-GREEN-RED-IR","671610","677815","906721","17.814606","4.785084","-0.059988","792485","880085","837604","12.879109","3.486783","-0.173949","786944","859859","831674","11.056867","2.897728","0.288449","815000","863643","887281","9.029550","2.352730","0.384097","730665","889940","963188","6.586864","1.539301","0.253086","1793","1115","866","1415","701","436","1123","-84","-512","982","-38","-397","731","-669","-1097",""
"MA200-0420","24601","57","1","1.10","1.4","2023-05-12T09:25:30","120","2023/05/12","09:25:30","-15.785861074924469","35.07742965221405","3.6","13","30","64","81","-25180","-2488","-6900","7","150","149.76","115.17","34.59","28.37","47.9","16.27","89380","28.13","DUALSPOT-UV-BLUE-GREEN-RED-IR","672334","678647","907868","17.835306","4.790535","-0.011364","793162","880901","838463","12.894469","3.491115","-0.007056","787830","860893","832724","11.069970","2.901214","-0.016508","815943","864712","888402","9.038894","2.355816","0.013143","731303","890784","964110","6.592634","1.539326","0.682807","1055","925","877","988","928","906","944","836","798","814","895","923","699","10","-199",""
"MA200-0420","24602","57","1","1.10","1.4","2023-05-12T09:26:00","120","2023/05/12","09:26:00","-15.786643207073212","35.078062653541565","4.9","13","30","64","81","-24832","-2968","-6160","7","150","149.67","115.01","34.66","28.40","48.0","16.31","89256","28.19","DUALSPOT-UV-BLUE-GREEN-RED-IR","673004","679402","908928","17.851872","4.792278","-0.451730","794023","881945","839442","12.905119","3.491146","0.293927","789282","862574","834327","11.078613","2.901214","0.344683","818350","867277","891055","9.044566","2.354224","0.179203","732802","892665","966133","6.598367","1.538151","0.278853","846","295","93","686","6","-245","623","0","-221","494","-460","-797","696","-473","-829",""
"MA200-0420","24603","57","1","1.10","1.4","2023-05-12T09:26:30","120","2023/05/12","09:26:30","-15.787956535816193","35.07767415046692","5.8","13","30","64","82","-25112","-941","-5433","7","150","149.41","114.63","34.77","28.44","47.8","16.31","89204","28.19","DUALSPOT-UV-BLUE-GREEN-RED-IR","674171","680681","910680","17.868906","4.797472","0.000390","795687","883890","841294","12.917823","3.495431","0.010304","789965","863348","835093","11.087234","2.902639","-0.145081","818433","867473","891211","9.052899","2.356514","-0.016093","733263","893245","966761","6.604263","1.539855","-0.010018","872","877","878","821","913","947","624","340","239","729","660","636","718","684","673",""
"MA200-0420","24604","57","1","1.10","1.4","2023-05-12T09:27:00","120","2023/05/12","09:27:00","-15.789489030838013","35.0776189789176","6.6","13","30","64","81","-25268","-3080","-5536","7","150","150.02","114.41","35.60","28.47","47.7","16.28","89108","28.25","DUALSPOT-UV-BLUE-GREEN-RED-IR","668111","674594","902613","17.884270","4.802360","0.001674","793631","881643","839240","12.929280","3.499221","0.006178","789126","862518","834291","11.097101","2.904600","-0.086387","812229","860905","884533","9.060832","2.359343","0.018199","732650","892549","966024","6.611305","1.539880","0.675869","788","806","813","742","789","806","716","457","365","695","797","832","859","10","-247",""
"MA200-0420","24605","57","1","1.10","1.4","2023-05-12T09:27:30","120","2023/05/12","09:27:30","-15.790200531482697","35.07836964726448","4.9","13","30","64","81","-25283","-3879","-6154","7","150","150.27","115.08","35.19","28.50","47.5","16.27","88988","28.31","DUALSPOT-UV-BLUE-GREEN-RED-IR","670713","677336","906298","17.904706","4.806791","-0.036877","791391","879287","837000","12.944321","3.503830","0.000213","786718","859946","831856","11.108357","2.907693","-0.014291","814338","863200","886873","9.067297","2.359809","3.414802","734020","894252","967889","6.617105","1.540088","1.154924","1043","739","628","968","970","971","812","729","700","563","132","-18","704","82","-105",""
"MA200-0420","24606","57","1","1.10","1.4","2023-05-12T09:28:00","120","2023/05/12","09:28:00","-15.790944039821625","35.078838147222996","7.1","13","30","64","81","-24964","-2172","-6076","7","150","149.60","115.38","34.22","28.55","47.4","16.26","88868","28.38","DUALSPOT-UV-BLUE-GREEN-RED-IR","670203","677761","907243","18.052526","4.839988","-0.027510","791286","879924","837853","13.035111","3.525823","-0.025743","786316","860095","832174","11.177619","2.923769","-0.037361","815068","864403","888257","9.116707","2.371273","-0.045743","730009","889738","963088","6.653373","1.546656","-0.154835","7525","5697","5028","5833","4764","4367","4983","3899","3515","4296","3360","3032","4391","2680","2162",""
"MA200-0420","24607","57","1","1.10","1.4","2023-05-12T09:28:30","120","2023/05/12","09:28:30","-15.792447686195374","35.07797931879759","7.5","13","30","64","81","-25120","-37","-5783","7","150","149.89","115.05","34.84","28.59","47.2","16.23","88852","28.38","DUALSPOT-UV-BLUE-GREEN-RED-IR","668595","677934","908682","18.471136","4.980242","0.006883","789892","880445","839323","13.399912","3.644049","0.006561","785464","861084","833980","11.511857","3.029859","0.005328","814880","865888","890558","9.406783","2.460094","0.001578","729946","890952","965004","6.868814","1.610689","-0.003612","21371","23645","24484","23506","25156","25772","24120","25281","25696","25296","25577","25677","26159","25675","25526",""
"MA200-0420","24608","57","1","1.10","1.4","2023-05-12T09:29:00","120","2023/05/12","09:29:00","-15.793972373008728","35.07685864716768","5.9","13","30","64","81","-25244","-496","-4071","7","150","150.46","115.09","35.37","28.62","47.1","16.23","88852","28.44","DUALSPOT-UV-BLUE-GREEN-RED-IR","667597","677146","907812","18.536940","5.001302","0.002899","788549","879188","838225","13.452397","3.658235","-0.014741","784308","860057","833105","11.561264","3.044397","-0.005301","813114","864230","888940","9.448385","2.472416","-0.005458","728406","889262","963229","6.899597","1.617299","-0.094039","3358","3497","3548","3380","2973","2821","3563","3412","3358","3626","3495","3448","3736","2610","2265",""
"MA200-0420","24609","57","1","1.10","1.4","2023-05-12T09:29:30","120","2023/05/12","09:29:30","-15.795302391052246","35.07611948996782","6.9","13","30","64","81","-25120","-2412","-5925","7","150","149.85","115.28","34.57","28.68","47.0","16.24","88788","28.44","DUALSPOT-UV-BLUE-GREEN-RED-IR","669720","679505","911092","18.568622","5.010521","-0.002291","785162","875593","834879","13.475793","3.665960","0.009041","785454","861476","834499","11.579107","3.048533","-0.038444","815807","867192","892049","9.464143","2.475396","-0.105782","730145","891476","965665","6.911707","1.619082","-0.286928","1614","1566","1548","1504","1656","1713","1285","993","889","1371","864","685","1467","720","491",""
"MA200-0420","24610","57","1","1.10","1.4","2023-05-12T09:30:00","120","2023/05/12","09:30:00","-15.796788930892944","35.075498819351196","3.2","13","30","64","81","-25600","-2640","-2944","7","150","150.33","115.31","35.02","28.71","46.9","16.24","88728","28.50","DUALSPOT-UV-BLUE-GREEN-RED-IR","664855","674900","905046","18.637804","5.029432","-0.008511","785843","876688","836019","13.523575","3.677476","-0.029276","781867","857733","830942","11.615448","3.056127","-0.063222","810307","861552","886282","9.491714","2.481355","-0.067473","730654","892235","966486","6.929617","1.621846","-0.258926","3523","3171","3041","3071","2437","2200","2616","1800","1508","2398","1707","1462","2169","1102","776",""
"MA200-0420","24611","57","1","1.10","1.4","2023-05-12T09:30:30","120","2023/05/12","09:30:30","-15.797254204750061","35.076292149722576","4.0","13","30","64","81","-25268","-2920","-5056","7","150","150.41","115.01","35.40","28.72","46.8","16.22","88648","28.50","DUALSPOT-UV-BLUE-GREEN-RED-IR","660919","674174","905590","19.216570","5.181913","-0.012789","782670","876150","836522","13.942490","3.789138","-0.016177","778845","856988","831110","11.975996","3.151536","-0.019638","808758","861963","887461","9.781717","2.557437","-0.025553","729689","892794","967659","7.156734","1.674531","-0.066247","29558","25299","23727","27003","23384","22033","26027","22376","21072","25298","21562","20239","27587","20790","18714",""
"MA200-0420","24612","57","1","1.10","1.4","2023-05-12T09:31:00","120","2023/05/12","09:31:00","-15.798006176948547","35.077620312571526","6.9","13","30","64","81","-25041","-1775","-6862","7","150","149.85","114.97","34.87","28.76","46.7","16.22","88624","28.56","DUALSPOT-UV-BLUE-GREEN-RED-IR","660152","674916","907277","19.597012","5.273334","-0.020264","782059","876923","837705","14.214975","3.854823","-0.027582","778007","857329","831815","12.211597","3.207296","-0.034761","807706","861891","887709","9.974689","2.601172","-0.052107","728486","892247","967326","7.313396","1.706681","-0.099776","19435","15397","13910","17569","13962","12620","17012","13274","11943","16838","12581","11080","19034","12878","11004",""
"MA200-0420","24613","57","1","1.10","1.4","2023-05-12T09:31:30","120","2023/05/12","09:31:30","-15.798864901065826","35.07910014688969","5.4","13","30","64","81","-24766","-2012","-6887","7","150","149.69","114.97","34.72","28.80","46.5","16.19","88540","28.63","DUALSPOT-UV-BLUE-GREEN-RED-IR","660102","675265","907949","19.674024","5.295118","-0.004833","782047","877276","838186","14.269731","3.871173","-0.001108","778889","858570","833116","12.258188","3.220320","-0.009167","808948","863484","889435","10.012610","2.610834","-0.026789","724692","887851","962619","7.345911","1.713143","-0.109576","3934","3684","3592","3530","3490","3475","3364","3113","3024","3309","2791","2609","3950","2599","2188",""
"MA200-0420","24614","57","1","1.10","1.4","2023-05-12T09:32:00","120","2023/05/12","09:32:00","-15.799720704555511","35.079803325235844","3.7","13","30","64","81","-25260","-212","-5784","7","150","150.28","114.77","35.51","28.84","46.2","16.14","88512","28.63","DUALSPOT-UV-BLUE-GREEN-RED-IR","661204","676838","910379","19.745026","5.316995","-0.000281","783766","879720","840729","14.327060","3.889269","0.001892","779266","859438","834147","12.307762","3.235054","-0.004574","809680","864622","890755","10.053168","2.624194","0.008013","725210","888758","963736","7.377191","1.721196","-0.037999","3633","3618","3613","3703","3778","3806","3586","3445","3394","3545","3774","3856","3807","3168","2973",""
"MA200-0420","24615","57","1","1.10","1.4","2023-05-12T09:32:30","120","2023/05/12","09:32:30","-15.800172865390778","35.08042514324188","6.3","13","30","64","81","-24933","-841","-5841","7","150","149.63","114.65","34.97","28.88","46.0","16.09","88540","28.69","DUALSPOT-UV-BLUE-GREEN-RED-IR","659556","676812","911356","20.118198","5.433471","0.001532","782036","879528","841300","14.630249","3.982222","0.000471","777976","859604","834934","12.579511","3.315187","-0.003768","808801","865050","891731","10.283510","2.690332","-0.008403","724630","889139","964564","7.549143","1.767919","-0.022037","19117","19561","19725","19604","19702","19740","19678","19022","18787","20156","18972","18553","20951","18662","17962",""
"MA200-0420","24616","57","1","1.10","1.4","2023-05-12T09:33:00","120","2023/05/12","09:33:00","-15.79931354522705","35.082329981029034","8.4","13","30","64","81","-25104","440","-6068","7","150","149.81","114.63","35.17","28.91","45.8","16.05","88632","28.75","DUALSPOT-UV-BLUE-GREEN-RED-IR","654884","672388","905516","20.204216","5.456978","-0.008723","776854","874035","836152","14.697062","3.999889","-0.015947","773456","854891","830466","12.639508","3.330863","-0.019974","809183","865687","892505","10.334145","2.704256","-0.015819","724560","889246","964764","7.588115","1.778616","-0.021062","4407","3925","3747","4320","3723","3500","4345","3700","3469","4431","3971","3808","4749","4248","4094",""
"MA200-0420","24617","57","1","1.10","1.4","2023-05-12T09:33:30","120","2023/05/12","09:33:30","-15.797414124011993","35.08335165679455","8.2","13","30","64","81","-24845","845","-5662","7","150","149.50","114.73","34.77","28.94","45.6","16.02","88744","28.75","DUALSPOT-UV-BLUE-GREEN-RED-IR","655611","673299","906902","20.244156","5.469902","0.004201","777269","874639","836858","14.726128","4.010040","0.011765","774236","855898","831488","12.663228","3.338760","0.009336","803869","860146","886841","10.354790","2.710340","-0.003745","725201","890166","965806","7.603470","1.780090","-1.085530","2044","2183","2234","1878","2164","2271","1716","1885","1946","1805","1755","1737","1869","592","202",""
"MA200-0420","24618","57","1","1.10","1.4","2023-05-12T09:34:00","120","2023/05/12","09:34:00","-15.795502245426178","35.08376131951809","7.0","13","30","64","81","-24900","-116","-5904","7","150","150.21","114.93","35.28","28.99","45.3","15.96","88816","28.81","DUALSPOT-UV-BLUE-GREEN-RED-IR","655886","673752","907625","20.268910","5.476848","-0.006562","777880","875567","837751","14.745561","4.015911","-0.001495","774476","856309","831957","12.679335","3.343320","-0.009294","803901","860278","887038","10.368124","2.713400","-0.050083","725566","890712","966412","7.614109","1.782637","-0.052905","1265","1156","1116","1253","1233","1226","1163","1073","1040","1163","870","766","1293","1008","921",""
"MA200-0420","24619","57","1","1.10","1.4","2023-05-12T09:34:30","120","2023/05/12","09:34:30","-15.7937091588974","35.08383382111788","6.0","13","30","64","81","-25100","-900","-5192","7","150","149.89","114.73","35.16","29.02","45.1","15.91","88812","28.81","DUALSPOT-UV-BLUE-GREEN-RED-IR","655449","673827","907993","20.382808","5.511047","-0.001390","777691","875863","838245","14.833081","4.040169","-0.010174","774809","857096","832901","12.754680","3.363663","-0.015092","805245","862130","889056","10.428172","2.728691","-0.028447","721558","886059","961433","7.658445","1.793399","-0.048627","5831","5713","5670","5655","5115","4913","5452","4804","4572","5250","4363","4049","5398","4276","3933",""
"MA200-0420","24620","57","1","1.10","1.4","2023-05-12T09:35:00","120","2023/05/12","09:35:00","-15.792349517345428","35.08422114700079","5.0","13","30","64","81","-24833","-991","-4133","7","150","149.82","115.13","34.70","29.05","45.0","15.91","88808","28.88","DUALSPOT-UV-BLUE-GREEN-RED-IR","656056","674814","909481","20.450734","5.528797","-0.010890","778349","876892","839380","14.881761","4.053855","-0.006834","774965","857594","833439","12.797025","3.372705","-0.051183","805741","862870","889906","10.461313","2.737260","-0.022780","721744","886485","961951","7.682207","1.797123","-0.218359","3465","3004","2834","3134","2924","2845","3053","2163","1845","2888","2477","2332","2883","1499","1076",""
"MA200-0420","24621","57","1","1.10","1.4","2023-05-12T09:35:30","120","2023/05/12","09:35:30","-15.791069686412811","35.08490614593029","5.5","13","30","64","81","-25148","1220","-4952","7","150","149.74","114.80","34.94","29.09","45.0","15.94","88856","28.94","DUALSPOT-UV-BLUE-GREEN-RED-IR","655432","674915","910078","20.617676","5.582725","0.003766","778217","877425","840103","14.993848","4.084838","-0.009629","774626","857754","833788","12.889753","3.398097","-0.012232","806003","863570","890818","10.535999","2.755813","-0.031448","721540","886564","962130","7.731535","1.808197","-0.067386","8541","9065","9260","7238","6573","6325","6706","6033","5792","6527","5327","4902","6002","4427","3946",""
"MA200-0420","24622","57","1","1.10","1.4","2023-05-12T09:36:00","120","2023/05/12","09:36:00","-15.789696156978607","35.085818983614445","7.2","13","30","64","81","-25095","-175","-5391","7","150","149.57","115.05","34.53","29.13","44.8","15.91","88932","28.94","DUALSPOT-UV-BLUE-GREEN-RED-IR","654705","675216","911137","20.804234","5.638973","0.000304","777608","877817","840864","15.137760","4.127228","-0.001724","774106","858113","834502","13.015721","3.435099","-0.002279","805735","864106","891619","10.641359","2.785587","-0.008070","721490","887081","962912","7.809898","1.827915","-0.034228","9524","9568","9585","9273","9101","9037","9090","8897","8828","9188","8651","8461","9515","7977","7508",""
"MA200-0420","24623","57","1","1.10","1.4","2023-05-12T09:36:30","120","2023/05/12","09:36:30","-15.788339257240295","35.0870221555233","5.5","13","30","64","81","-25295","-529","-4770","7","150","150.49","114.88","35.61","29.16","44.7","15.90","88972","28.94","DUALSPOT-UV-BLUE-GREEN-RED-IR","649336","669998","904209","20.911442","5.668728","-0.008007","777579","878065","841236","15.210188","4.145438","-0.023048","773998","858251","834720","13.077396","3.447986","-0.060708","805685","864265","891844","10.692809","2.796300","-0.074797","721250","886986","962842","7.847515","1.834515","-0.166359","5481","4908","4695","4673","3791","3460","4457","3004","2484","4493","3018","2496","4574","2589","1984",""
"MA200-0420","24624","57","1","1.10","1.4","2023-05-12T09:37:00","120","2023/05/12","09:37:00","-15.788137376308441","35.087476655840874","9.7","13","30","64","80","-25154","-4875","-6654","7","150","149.95","114.65","35.30","29.19","44.7","15.92","88956","29.00","DUALSPOT-UV-BLUE-GREEN-RED-IR","650319","671119","905755","20.930046","5.671917","-0.074108","771707","871555","835029","15.224903","4.146999","-0.595370","770365","854277","830872","13.089584","3.448761","1.064031","806601","865310","892946","10.702548","2.797015","3.089168","721929","887867","963803","7.855627","1.835227","-1.776756","953","530","373","951","327","94","882","182","-68","852","203","-26","988","281","66",""
"MA200-0420","24625","57","1","1.10","1.4","2023-05-12T09:37:30","120","2023/05/12","09:37:30","-15.790483355522156","35.085421316325665","11.2","13","30","64","81","-25208","-1575","-5966","7","150","150.00","114.96","35.04","29.21","44.6","15.93","88880","29.00","DUALSPOT-UV-BLUE-GREEN-RED-IR","646804","670418","906624","21.500320","5.847248","0.000542","769901","872554","837223","15.670815","4.280400","-0.001676","771167","857868","835419","13.481347","3.564096","-0.003620","803451","864182","892711","11.026641","2.888935","-0.009440","719898","887086","963666","8.089357","1.898747","-0.020415","29136","29386","29480","28755","28220","28019","28292","27324","26976","28284","26316","25617","28402","25321","24376",""
"MA200-0420","24626","57","1","1.10","1.4","2023-05-12T09:38:00","120","2023/05/12","09:38:00","-15.792355835437775","35.08430499583483","4.2","13","30","64","81","-25096","604","-5696","7","150","150.60","114.81","35.79","29.26","44.5","15.93","88816","29.00","DUALSPOT-UV-BLUE-GREEN-RED-IR","645180","670117","907065","21.852794","5.955129","-0.001177","768269","872030","837240","15.933482","4.358047","-0.004818","765882","853146","831263","13.712503","3.630370","-0.008947","797438","858680","887408","11.218890","2.941783","-0.017014","719587","887425","964304","8.223720","1.933520","-0.034716","18032","17703","17580","16960","16082","15751","16715","15372","14889","16799","14813","14107","16348","13571","12717",""
"MA200-0420","24627","57","1","1.10","1.4","2023-05-12T09:38:30","120","2023/05/12","09:38:30","-15.793971598148346","35.08392998576164","8.9","13","30","64","81","-24754","-1083","-5216","7","150","150.21","114.89","35.32","29.28","44.3","15.88","88804","29.06","DUALSPOT-UV-BLUE-GREEN-RED-IR","644875","670436","907849","21.938004","5.982511","0.002667","767234","871497","836995","15.994152","4.375195","-0.007813","765971","853759","832092","13.763606","3.644025","-0.015734","797545","859242","888141","11.258268","2.953203","-0.007393","719798","888015","965068","8.253353","1.940697","-0.046523","4356","4553","4626","3914","3598","3479","3692","3209","3035","3438","3243","3174","3603","2838","2603",""
"MA200-0420","24628","57","1","1.10","1.4","2023-05-12T09:39:00","120","2023/05/12","09:39:00","-15.796685576438904","35.083721823990345","12.7","13","30","64","80","-25720","-2633","-5591","7","150","149.96","115.08","34.88","29.31","44.3","15.88","88760","29.06","DUALSPOT-UV-BLUE-GREEN-RED-IR","643896","670086","907718","22.137810","6.039953","-0.003431","766442","871267","836996","16.147867","4.418767","-0.006049","765095","853363","831876","13.897614","3.679395","-0.015318","795880","857958","886987","11.370611","2.981261","-0.027519","718767","887167","964241","8.335834","1.959145","-0.062470","10197","9674","9477","9901","9261","9020","9667","8419","7970","9793","8071","7459","10012","7389","6583",""
"MA200-0420","24629","57","1","1.10","1.4","2023-05-12T09:39:30","120","2023/05/12","09:39:30","-15.799899280071259","35.08181481063366","15.2","13","30","64","81","-25816","-1991","-7108","7","150","149.76","114.77","34.99","29.34","44.1","15.84","88548","29.06","DUALSPOT-UV-BLUE-GREEN-RED-IR","644087","670920","909229","22.265702","6.077131","-0.003059","767467","873086","839024","16.248119","4.447920","-0.004166","765552","854427","833169","13.984482","3.705371","-0.001902","797216","859865","889165","11.441525","3.000612","-0.014481","719730","888722","966082","8.388078","1.972102","-0.038423","6545","6241","6127","6475","6177","6064","6283","6164","6121","6199","5549","5317","6359","5173","4809",""
"MA200-0420","24630","57","1","1.10","1.4","2023-05-12T09:40:00","120","2023/05/12","09:40:00","-15.800642907619476","35.07910697162151","14.0","13","30","64","80","-24764","-1648","-5444","7","150","149.50","114.38","35.12","29.36","43.9","15.81","88516","29.13","DUALSPOT-UV-BLUE-GREEN-RED-IR","642307","671150","910787","22.717342","6.217258","0.000619","765944","873620","840457","16.621845","4.560107","-0.001921","763326","853956","833510","14.320635","3.803349","-0.005194","794992","859230","889221","11.730100","3.084232","-0.007059","717967","887966","965814","8.604746","2.030522","-0.022074","23193","23433","23524","24223","23679","23473","24400","23160","22711","25313","23886","23377","26463","23235","22239",""
"MA200-0420","24631","57","1","1.10","1.4","2023-05-12T09:40:30","120","2023/05/12","09:40:30","-15.802717864513397","35.075564481318","13.9","13","30","64","80","-24962","112","-5225","7","150","149.96","114.82","35.14","29.38","43.9","15.82","88588","29.13","DUALSPOT-UV-BLUE-GREEN-RED-IR","641839","670884","910559","22.770188","6.233497","0.000247","765200","873044","840023","16.665279","4.573363","-0.000229","763298","854158","833774","14.356903","3.813374","-0.010571","795665","860121","890221","11.760023","3.091524","-0.032498","718379","888628","966560","8.627903","2.034567","-0.148478","2703","2714","2718","2804","2796","2793","2622","2368","2276","2614","2081","1891","2817","1608","1235",""
"MA200-0420","24632","57","1","1.10","1.4","2023-05-12T09:41:00","120","2023/05/12","09:41:00","-15.805095553398132","35.07508382201195","12.8","13","30","64","81","-25162","-245","-4058","7","150","149.67","114.88","34.79","29.41","43.7","15.79","88636","29.13","DUALSPOT-UV-BLUE-GREEN-RED-IR","641668","670908","910680","22.813542","6.244417","-0.013215","765228","873303","840301","16.699072","4.582310","-0.012548","762942","853940","833624","14.386689","3.820908","-0.020097","794490","859009","889123","11.784794","3.097717","-0.026276","717512","887640","965516","8.645704","2.037524","-0.166987","2216","1843","1703","2180","1906","1802","2152","1798","1669","2163","1786","1651","2164","1187","885",""
"MA200-0420","24633","57","1","1.10","1.4","2023-05-12T09:41:30","120","2023/05/12","09:41:30","-15.807344198226929","35.0761044844985","11.4","13","30","64","80","-25166","-1950","-4708","7","150","148.77","114.61","34.16","29.42","43.6","15.74","88584","29.06","DUALSPOT-UV-BLUE-GREEN-RED-IR","639512","668762","907842","22.836364","6.248661","-0.047016","762777","870563","837734","16.718801","4.588920","0.008741","760405","851222","830981","14.402359","3.825915","0.006208","791940","856306","886370","11.795506","3.100629","-0.011500","715784","885588","963278","8.654144","2.038226","-1.913946","1169","729","564","1276","1434","1494","1135","1216","1246","937","855","825","1028","287","58",""
"MA200-0420","24634","57","1","1.10","1.4","2023-05-12T09:42:00","120","2023/05/12","09:42:00","-15.809367895126343","35.07552681863308","11.5","13","30","64","81","-24912","192","-5696","7","150","150.15","114.81","35.34","29.44","43.3","15.66","88556","29.06","DUALSPOT-UV-BLUE-GREEN-RED-IR","640747","670216","909842","22.862854","6.256212","-0.004959","763742","871829","838997","16.738848","4.596680","0.015655","762228","853313","833076","14.419438","3.832394","0.016668","794118","858752","888939","11.809794","3.106934","0.031366","717222","887458","965362","8.665359","2.042554","0.028770","1355","1254","1217","1294","1627","1754","1235","1522","1625","1248","1790","1983","1364","1711","1817",""
"MA200-0420","24635","57","1","1.10","1.4","2023-05-12T09:42:30","120","2023/05/12","09:42:30","-15.81053638458252","35.0745544731617","6.3","13","30","64","80","-25166","-2583","-5487","7","150","150.08","114.93","35.15","29.46","43.4","15.71","88584","29.13","DUALSPOT-UV-BLUE-GREEN-RED-IR","640972","670621","910465","22.893956","6.260582","-0.126999","764381","872722","839914","16.761766","4.598648","-6.840465","762505","853823","833581","14.437993","3.831756","0.203943","794616","859436","889607","11.823593","3.105059","0.172788","717575","887961","965903","8.672932","2.041026","0.213762","1589","730","406","1478","414","12","1340","-150","-689","1204","-535","-1154","920","-607","-1077",""
"MA200-0420","24636","57","1","1.10","1.4","2023-05-12T09:43:00","120","2023/05/12","09:43:00","-15.811299979686737","35.076004825532436","6.0","13","30","64","80","-24760","928","-5956","7","150","149.47","114.47","35.00","29.47","43.4","15.74","88648","29.13","DUALSPOT-UV-BLUE-GREEN-RED-IR","637046","666687","905151","22.925724","6.269018","-0.009644","759482","867289","834721","16.785190","4.604537","-0.019336","763297","854807","834596","14.456526","3.835487","-0.060103","796060","861072","891344","11.839303","3.108625","-0.045359","718219","888859","966888","8.686605","2.043023","-0.248057","1630","1415","1334","1517","1247","1145","1344","885","719","1376","1022","895","1668","797","528",""
"MA200-0420","24637","57","1","1.10","1.4","2023-05-12T09:43:30","120","2023/05/12","09:43:30","-15.812627851963043","35.07603282481432","5.7","13","30","72","80","-24872","-528","-5464","7","150","149.63","114.73","34.89","29.49","43.4","15.76","88692","29.19","DUALSPOT-UV-BLUE-GREEN-RED-IR","637446","667183","905901","22.947476","6.275099","-0.005458","760272","868269","835703","16.801384","4.608196","-0.032621","759642","850783","830681","14.470044","3.838456","-0.042078","690453","746886","773153","11.849060","3.110304","-0.120949","718751","889533","967629","8.693214","2.043892","-0.330292","1113","1023","989","1046","777","675","978","706","608","853","482","350","804","348","207",""
"MA200-0420","24638","57","1","1.10","1.4","2023-05-12T09:44:00","120","2023/05/12","09:44:00","-15.814034700393677","35.075964994728565","6.1","13","30","64","80","-24988","851","-4664","7","150","149.82","114.65","35.17","29.52","43.5","15.80","88788","29.25","DUALSPOT-UV-BLUE-GREEN-RED-IR","634551","666906","907345","23.499378","6.456424","0.003798","757138","867808","836650","17.276750","4.757464","0.001830","756905","850574","831687","14.898233","3.969914","0.000078","788766","855713","886936","12.216266","3.220536","-0.002447","713423","884903","963454","8.970636","2.122830","-0.011681","28273","30283","31044","30736","31464","31740","31006","31032","31042","32132","31446","31200","33801","31354","30596",""
"MA200-0420","24639","57","1","1.10","1.4","2023-05-12T09:44:30","120","2023/05/12","09:44:30","-15.815548300743103","35.07613182067871","5.3","13","30","64","80","-24975","-358","-6179","7","150","149.84","114.40","35.43","29.54","43.4","15.80","88884","29.31","DUALSPOT-UV-BLUE-GREEN-RED-IR","634969","668341","909955","23.763492","6.540502","0.001560","758215","870191","839392","17.495622","4.822386","-0.003539","756607","851233","832738","15.100167","4.028905","-0.005553","789180","857050","888670","12.389302","3.270789","-0.007455","713208","885313","964166","9.097952","2.155967","-0.029065","13559","13938","14081","14182","13583","13355","14654","13823","13520","15174","14230","13891","15546","13065","12294",""
"MA200-0420","24640","57","1","1.10","1.4","2023-05-12T09:45:00","120","2023/05/12","09:45:00","-15.817027747631073","35.07590565085411","5.9","13","30","64","80","-24795","1100","-5104","7","150","150.15","115.25","34.89","29.58","43.6","15.88","88984","29.38","DUALSPOT-UV-BLUE-GREEN-RED-IR","635172","668844","910840","23.843182","6.563665","-0.002445","758911","871313","840582","17.559796","4.839915","-0.008880","756609","851488","833081","15.154871","4.043418","-0.013386","789829","857966","889671","12.437052","3.282211","-0.032076","713776","886230","965206","9.132925","2.164172","-0.045826","4061","3899","3837","4127","3724","3570","3940","3453","3276","4156","3284","2971","4238","3284","2988",""
"MA200-0420","24641","57","1","1.10","1.4","2023-05-12T09:45:30","120","2023/05/12","09:45:30","-15.818413019180298","35.07605914771557","6.3","13","30","64","80","-24996","340","-6704","7","150","150.00","114.70","35.30","29.62","43.7","15.96","89060","29.44","DUALSPOT-UV-BLUE-GREEN-RED-IR","630973","664625","905121","23.878422","6.573419","-0.006761","759491","872168","841433","17.586008","4.846192","-0.025140","757823","853006","834597","15.178093","4.047608","-0.085308","792126","860598","892461","12.456228","3.285821","-0.089695","714728","887490","966612","9.145504","2.166043","-0.229283","1804","1622","1553","1694","1317","1174","1680","985","732","1677","1025","792","1532","740","494",""
"MA200-0420","24642","57","1","1.10","1.4","2023-05-12T09:46:00","120","2023/05/12","09:46:00","-15.820015728473663","35.07564165443182","5.4","13","30","64","80","-24833","1420","-5783","7","150","149.63","114.93","34.70","29.64","43.8","16.01","89076","29.50","DUALSPOT-UV-BLUE-GREEN-RED-IR","629470","664364","905666","24.109580","6.647302","0.003108","752209","865217","835376","17.773334","4.904032","0.001712","756079","852393","834523","15.344844","4.098362","0.000717","789529","858906","891197","12.596818","3.326820","-0.003853","708857","881136","960041","9.252462","2.194911","-0.017448","11813","12506","12770","12083","12357","12462","12045","12144","12179","12272","11854","11704","13000","11622","11193",""
"MA200-0420","24643","57","1","1.10","1.4","2023-05-12T09:46:30","120","2023/05/12","09:46:30","-15.821388185024261","35.07544197887182","5.7","13","30","64","80","-24852","1540","-5800","7","150","150.28","114.77","35.51","29.68","43.7","16.01","89264","29.50","DUALSPOT-UV-BLUE-GREEN-RED-IR","631407","666792","909223","24.257068","6.697178","0.004697","754308","868091","838370","17.896924","4.943425","0.002243","753715","850085","832474","15.458120","4.133582","0.000440","786850","856348","888673","12.696500","3.357123","-0.001902","711352","884518","963880","9.329346","2.216366","-0.015800","7547","8250","8518","7983","8224","8316","8194","8235","8250","8713","8562","8508","9358","8441","8155",""
"MA200-0420","24644","57","1","1.10","1.4","2023-05-12T09:47:00","120","2023/05/12","09:47:00","-15.822068214416504","35.07577031105757","4.9","13","30","64","80","-25056","560","-4704","7","150","149.93","114.79","35.15","29.72","43.7","16.05","89352","29.56","DUALSPOT-UV-BLUE-GREEN-RED-IR","627031","662593","903748","24.347756","6.722828","-0.004835","755400","869824","840179","17.968210","4.959905","-0.028456","754171","851029","833493","15.523204","4.149026","-0.028551","787055","856910","889375","12.749958","3.369878","-0.033631","711322","884750","964198","9.371086","2.225330","-0.068697","4640","4286","4151","4603","3476","3046","4707","3648","3261","4672","3640","3270","5079","3562","3090",""
"MA200-0420","24645","57","1","1.10","1.4","2023-05-12T09:47:30","120","2023/05/12","09:47:30","-15.821923196315765","35.07679982483387","5.6","13","30","64","80","-25083","-612","-5620","7","150","150.15","115.27","34.87","29.76","43.6","16.05","89412","29.63","DUALSPOT-UV-BLUE-GREEN-RED-IR","628493","664318","906245","24.397126","6.740894","0.009206","751167","865038","835638","18.001440","4.972714","0.015263","754830","851888","834417","15.551202","4.158557","0.009387","788863","858986","891581","12.772886","3.376361","-0.007625","712360","886140","965761","9.388653","2.230279","-0.010569","2515","3042","3244","2136","2722","2946","2016","2268","2361","1995","1865","1818","2128","1982","1936",""
"MA200-0420","24646","57","1","1.10","1.4","2023-05-12T09:48:00","120","2023/05/12","09:48:00","-15.821792781352997","35.07794964313507","2.8","13","30","64","80","-25024","-3064","-7547","7","150","149.94","114.96","34.98","29.80","43.5","16.05","89356","29.69","DUALSPOT-UV-BLUE-GREEN-RED-IR","629516","665831","908562","24.463306","6.761320","0.000798","752741","867272","837970","18.046670","4.986066","-0.002382","751215","848081","830851","15.585534","4.168129","-0.008264","783803","853734","886222","12.799460","3.383735","-0.010615","713073","887200","966962","9.406494","2.234359","-0.051319","3381","3429","3448","2916","2829","2796","2479","2272","2196","2319","2115","2041","2167","1629","1462",""
"MA200-0420","24647","57","1","1.10","1.4","2023-05-12T09:48:30","120","2023/05/12","09:48:30","-15.823062717914581","35.078347988426685","5.3","13","30","64","80","-25172","-2288","-4296","7","150","150.42","114.59","35.83","29.85","43.3","16.03","89288","29.75","DUALSPOT-UV-BLUE-GREEN-RED-IR","629573","666425","909701","24.596386","6.800882","-0.002965","753205","868311","839124","18.133254","5.009175","-0.013978","752328","849753","832613","15.660107","4.188228","-0.014818","785418","855793","888480","12.858745","3.398486","-0.029875","709743","883307","962799","9.448498","2.243311","-0.075871","6821","6485","6357","5601","4781","4468","5402","4657","4385","5190","4130","3749","5120","3490","2982",""
"MA200-0420","24648","57","1","1.10","1.4","2023-05-12T09:49:00","120","2023/05/12","09:49:00","-15.824439406394958","35.078228145837784","5.6","13","30","64","80","-25144","1956","-5016","7","150","149.71","114.90","34.82","29.89","43.2","16.01","89420","29.81","DUALSPOT-UV-BLUE-GREEN-RED-IR","620653","661068","905223","25.239582","7.018556","0.005520","748904","868261","841387","18.712756","5.198783","0.005317","747024","848327","833282","16.187296","4.355162","0.003583","780788","854893","889424","13.319131","3.540771","0.001985","706366","882539","963489","9.811485","2.347717","-0.007288","32880","36723","38203","37390","40374","41521","38094","39808","40439","40201","41002","41292","44133","41893","41188",""
"MA200-0420","24649","57","1","1.10","1.4","2023-05-12T09:49:30","120","2023/05/12","09:49:30","-15.825814485549927","35.07751815021038","5.0","13","30","64","80","-25475","-891","-4337","7","150","149.82","115.01","34.81","29.94","42.9","15.95","89480","29.88","DUALSPOT-UV-BLUE-GREEN-RED-IR","620159","661141","905762","25.674962","7.168121","0.006138","742717","861692","835359","19.096670","5.326230","0.006189","747114","849039","834277","16.557806","4.474616","0.004943","781187","855865","890737","13.656358","3.647781","0.004526","706573","883283","964512","10.075209","2.424592","-0.005090","22235","25233","26395","24746","27138","28063","26747","28486","29131","29418","30838","31356","32033","30847","30471",""
"MA200-0420","24650","57","1","1.10","1.4","2023-05-12T09:50:00","120","2023/05/12","09:50:00","-15.827192544937134","35.077266812324524","5.7","13","30","64","80","-25150","-1575","-4425","7","150","149.87","114.18","35.70","29.97","42.5","15.85","89512","29.88","DUALSPOT-UV-BLUE-GREEN-RED-IR","621038","662275","907515","25.726040","7.187155","0.008174","744010","863416","837129","19.131376","5.337661","0.003619","747828","850002","835291","16.587921","4.485083","0.008005","781899","856766","891768","13.681179","3.655287","-0.003422","706839","883755","965052","10.095676","2.428511","-0.103171","2627","3131","3327","2253","2374","2420","2189","2434","2525","2181","2109","2083","2504","1533","1226",""
"MA200-0420","24651","57","1","1.10","1.4","2023-05-12T09:50:30","120","2023/05/12","09:50:30","-15.828692376613617","35.07747982442379","5.8","13","30","64","79","-25104","-425","-4337","7","150","150.21","114.71","35.50","30.02","42.1","15.75","89576","29.88","DUALSPOT-UV-BLUE-GREEN-RED-IR","620764","662115","907409","25.763828","7.200302","0.005704","743209","862593","836425","19.155600","5.348397","0.019557","743676","845346","830815","16.608213","4.493511","0.019217","782660","857717","892806","13.698977","3.662943","0.025352","707378","884551","965970","10.111662","2.434408","0.019945","1934","2175","2268","1565","2241","2503","1468","1970","2157","1556","2163","2384","1946","2320","2438",""
"MA200-0420","24652","57","1","1.10","1.4","2023-05-12T09:51:00","120","2023/05/12","09:51:00","-15.829656839370728","35.07839332520962","5.2","13","30","64","79","-24932","740","-5268","7","150","150.08","114.96","35.11","30.05","41.9","15.69","89636","29.88","DUALSPOT-UV-BLUE-GREEN-RED-IR","619365","660918","905954","25.821926","7.218845","0.002275","741840","861219","835233","19.195532","5.361993","0.007153","746266","848564","834055","16.644657","4.505146","0.003508","780609","855644","890740","13.728489","3.672274","0.003337","705839","882736","964078","10.135414","2.441502","-0.002961","2968","3101","3153","2574","2870","2984","2631","2750","2795","2575","2666","2699","2886","2822","2802",""
"MA200-0420","24653","57","1","1.10","1.4","2023-05-12T09:51:30","120","2023/05/12","09:51:30","-15.830272674560547","35.07934948801994","2.8","13","30","64","79","-25264","-528","-4964","7","150","150.21","114.57","35.64","30.08","41.7","15.66","89720","29.88","DUALSPOT-UV-BLUE-GREEN-RED-IR","619843","662075","907953","25.946332","7.259111","0.002054","743077","863305","837524","19.282862","5.389029","-0.000341","746602","849408","835148","16.718918","4.528690","0.001537","781264","856756","892134","13.789458","3.692020","0.003860","706086","883394","964938","10.178751","2.452088","-0.038752","6377","6636","6736","5650","5623","5613","5381","5484","5523","5338","5558","5639","5283","4149","3789",""
"MA200-0420","24654","57","1","1.10","1.4","2023-05-12T09:52:00","120","2023/05/12","09:52:00","-15.830844759941101","35.07944631576538","2.7","13","30","64","80","-25070","1133","-3950","7","150","149.77","114.37","35.41","30.10","41.6","15.65","89788","29.88","DUALSPOT-UV-BLUE-GREEN-RED-IR","618422","660950","906607","26.047856","7.290228","-0.000540","741214","861507","835912","19.360358","5.411959","-0.003380","742250","844780","830686","16.784158","4.547489","-0.006252","775270","850491","885679","13.843550","3.705898","-0.022051","706180","883766","965367","10.219845","2.462009","-0.039973","5214","5161","5141","5023","4801","4714","4736","4408","4286","4745","3932","3635","5019","3914","3563",""
"MA200-0420","24655","57","1","1.10","1.4","2023-05-12T09:52:30","120","2023/05/12","09:52:30","-15.831300795078278","35.07996964454651","5.5","13","30","64","80","-24741","-283","-7008","7","150","149.53","114.51","35.02","30.13","41.6","15.66","89828","29.88","DUALSPOT-UV-BLUE-GREEN-RED-IR","619349","662160","908386","26.098668","7.301035","-0.028083","741933","862552","836950","19.391092","5.417735","-0.059367","742265","844981","830924","16.809044","4.550743","-0.217103","775641","850977","886238","13.860952","3.710081","-0.029801","706220","883889","965557","10.232716","2.463819","-0.241036","2606","1812","1504","1989","1222","925","1804","771","388","1524","1198","1079","1570","721","452",""
"MA200-0420","24656","57","1","1.10","1.4","2023-05-12T09:53:00","120","2023/05/12","09:53:00","-15.831403195858002","35.08143647760153","5.6","13","30","64","79","-25058","-4","-5758","7","150","150.01","114.88","35.13","30.16","41.5","15.65","89860","29.88","DUALSPOT-UV-BLUE-GREEN-RED-IR","618319","661623","907975","26.211274","7.335050","-0.000654","741176","862293","836954","19.485374","5.444790","-0.004796","741547","844731","830871","16.892334","4.573477","-0.010225","775110","850916","886328","13.932306","3.727488","-0.027376","705707","883661","965408","10.286776","2.474954","-0.073279","5757","5687","5660","6084","5709","5564","6019","5372","5132","6231","4971","4510","6573","4428","3748",""
"MA200-0420","24657","57","1","1.10","1.4","2023-05-12T09:53:30","120","2023/05/12","09:53:30","-15.831806361675262","35.08306897431612","7.1","13","30","72","79","-25370","-495","-4708","7","150","149.84","114.56","35.28","30.19","41.4","15.63","89924","29.94","DUALSPOT-UV-BLUE-GREEN-RED-IR","536048","573967","787917","26.315910","7.368385","0.001735","741557","863182","838017","19.567082","5.471385","0.003743","741402","844947","831227","16.964238","4.595441","-0.000664","774841","850950","886454","13.991095","3.744436","-0.006828","705592","883762","965621","10.329733","2.486559","-0.018686","5365","5549","5621","5287","5588","5705","5211","5168","5153","5148","4819","4699","5238","4594","4390",""
"MA200-0420","24658","57","1","1.10","1.4","2023-05-12T09:54:00","120","2023/05/12","09:54:00","-15.83313524723053","35.084200486540794","5.9","14","30","64","79","-25941","-1341","-4212","7","150","149.44","114.57","34.86","30.21","41.3","15.60","89860","29.94","DUALSPOT-UV-BLUE-GREEN-RED-IR","617684","661679","908486","26.367938","7.384079","-0.000467","741194","863047","837970","19.604512","5.481380","-0.010441","740711","844405","830813","16.997176","4.604292","-0.011234","774951","851258","886892","14.018798","3.752472","-0.004869","705384","883659","965554","10.352051","2.491509","-0.053625","2667","2643","2634","2421","2125","2010","2386","2107","2004","2425","2312","2270","2721","1983","1749",""
"MA200-0420","24659","57","1","1.10","1.4","2023-05-12T09:54:30","120","2023/05/12","09:54:30","-15.833065271377563","35.084925308823586","0.7","14","30","64","79","-24850","-1358","-7137","7","150","149.47","114.67","34.79","30.23","41.4","15.68","89808","29.94","DUALSPOT-UV-BLUE-GREEN-RED-IR","617705","662080","909179","26.446350","7.402014","-0.019640","740879","863110","838126","19.666886","5.493701","-0.047748","740862","844927","831373","17.049718","4.612774","-0.104976","774558","851135","886824","14.062623","3.758956","-0.165423","705235","883713","965700","10.381298","2.496498","-0.131118","4016","3027","2643","4032","2624","2079","3804","2023","1363","3834","1869","1152","3562","2002","1508",""
"MA200-0420","24660","57","1","1.10","1.4","2023-05-12T09:55:00","120","2023/05/12","09:55:00","-15.832320868968964","35.08507181704044","4.7","14","30","64","79","-25028","-2356","-6672","7","150","149.65","114.63","35.02","30.24","41.8","15.85","89740","29.94","DUALSPOT-UV-BLUE-GREEN-RED-IR","617222","661875","909005","26.505092","7.414360","-0.028828","740707","863185","838279","19.711690","5.501587","-0.072390","740376","844637","831166","17.087326","4.618603","-0.121567","774684","851489","887217","14.092231","3.762643","-0.298603","705128","883731","965694","10.404428","2.498894","-0.641520","3009","2070","1706","2897","1669","1193","2723","1382","885","2591","1056","497","2818","956","367",""
"MA200-0420","24661","57","1","1.10","1.4","2023-05-12T09:55:30","120","2023/05/12","09:55:30","-15.831148207187653","35.085576482117176","2.8","14","30","64","79","-24788","3172","-6120","7","150","149.41","114.55","34.86","30.26","42.1","15.96","89728","29.94","DUALSPOT-UV-BLUE-GREEN-RED-IR","617508","662367","909829","26.557296","7.430919","0.002098","741197","863946","839092","19.747488","5.511261","-0.009301","740687","845154","831731","17.118534","4.626549","-0.016844","773888","850728","886462","14.115072","3.767327","-0.056753","704790","883421","965364","10.419956","2.500796","-0.352927","2676","2790","2834","2316","2057","1957","2261","1892","1755","2000","1348","1110","1893","762","404",""
"MA200-0420","24662","57","1","1.10","1.4","2023-05-12T09:56:00","120","2023/05/12","09:56:00","-15.830030262470245","35.08639948070049","5.8","14","30","64","79","-24876","-1819","-6475","7","150","149.76","114.53","35.22","30.28","42.2","16.02","89692","29.94","DUALSPOT-UV-BLUE-GREEN-RED-IR","617791","662865","910619","26.589482","7.440181","-0.003682","741988","865063","840203","19.769580","5.517388","-0.007973","740520","845097","831712","17.138926","4.632825","0.000072","774558","851565","887403","14.131227","3.772979","0.011183","704888","883657","965648","10.431046","2.502608","-0.154188","1650","1544","1503","1429","1289","1235","1478","1479","1479","1415","1609","1680","1352","718","518",""
"MA200-0420","24663","57","1","1.10","1.4","2023-05-12T09:56:30","120","2023/05/12","09:56:30","-15.8289253115654","35.087212316691875","5.1","14","30","64","79","-24866","-2262","-6841","7","150","149.32","114.38","34.94","30.30","42.3","16.06","89660","29.94","DUALSPOT-UV-BLUE-GREEN-RED-IR","616311","661447","908759","26.630630","7.452345","-0.001770","739540","862343","837664","19.799254","5.527109","0.004611","739603","844152","830833","17.160600","4.637861","-0.028450","773334","850345","886148","14.149094","3.776842","-0.046842","704174","882840","964793","10.443914","2.504809","-0.131670","2113","2044","2018","1923","2062","2116","1573","1196","1057","1567","1109","942","1571","880","661",""
"MA200-0420","24664","57","1","1.10","1.4","2023-05-12T09:57:00","120","2023/05/12","09:57:00","-15.827638387680054","35.08779248595238","5.9","14","30","64","79","-25128","-1856","-5352","7","150","149.69","114.85","34.84","30.32","42.4","16.11","89636","29.94","DUALSPOT-UV-BLUE-GREEN-RED-IR","617512","662973","910934","26.677398","7.465585","-0.003830","741483","864802","840120","19.831448","5.535174","-0.016078","740846","845757","832443","17.185096","4.643518","-0.028307","774430","851693","887547","14.168719","3.780432","-0.083348","705321","884375","966491","10.458157","2.506788","-0.237392","2391","2232","2170","2078","1715","1575","1770","1347","1191","1714","1033","786","1732","793","497",""
"MA200-0420","24665","57","1","1.10","1.4","2023-05-12T09:57:30","120","2023/05/12","09:57:30","-15.826335787773132","35.088032983243465","5.5","14","30","64","79","-24920","-2704","-7787","7","150","149.44","114.57","34.86","30.34","42.2","16.07","89556","29.94","DUALSPOT-UV-BLUE-GREEN-RED-IR","617017","662703","910883","26.747956","7.490896","0.007440","741164","864721","840189","19.877704","5.553049","0.013709","740007","845020","831861","17.227582","4.659689","0.014853","773945","851323","887327","14.201284","3.792098","0.013708","704477","883467","965565","10.481047","2.512900","-0.018329","3617","4264","4515","2993","3800","4114","3078","3850","4137","2851","3356","3540","2790","2449","2341",""
"MA200-0420","24666","57","1","1.10","1.4","2023-05-12T09:58:00","120","2023/05/12","09:58:00","-15.825071394443512","35.08797864615917","4.4","13","30","64","79","-24500","-3795","-6920","7","150","149.41","114.26","35.14","30.35","42.0","16.01","89416","29.94","DUALSPOT-UV-BLUE-GREEN-RED-IR","611963","657485","903766","26.784318","7.501741","-0.001642","740511","864104","839681","19.903354","5.561281","0.002850","740386","845582","832469","17.247066","4.664314","-0.026402","775229","852834","888927","14.215539","3.796062","-0.010591","704986","884201","966361","10.491976","2.514709","-0.147468","1869","1812","1790","1664","1736","1764","1415","1092","972","1251","1131","1087","1336","719","524",""
"MA200-0420","24667","57","1","1.10","1.4","2023-05-12T09:58:30","120","2023/05/12","09:58:30","-15.82469254732132","35.08787915110588","4.2","13","30","64","79","-24824","-3612","-6172","7","150","150.09","114.72","35.37","30.35","41.9","15.98","89420","30.00","DUALSPOT-UV-BLUE-GREEN-RED-IR","616723","662843","911264","26.833764","7.514177","-0.012809","741075","864992","840569","19.936840","5.568505","-0.035802","740228","845594","832539","17.274534","4.671580","-0.013983","774088","851713","887773","14.236237","3.799577","-0.111013","704549","883773","965936","10.506945","2.516613","-0.323237","2531","2065","1884","2163","1514","1262","1987","1705","1601","1810","997","701","1822","751","414",""
"MA200-0420","24668","57","1","1.10","1.4","2023-05-12T09:59:00","120","2023/05/12","09:59:00","-15.826148331165314","35.08804131299257","8.6","13","30","64","79","-24929","1575","-5020","7","150","150.02","114.93","35.09","30.36","41.9","15.96","89536","30.00","DUALSPOT-UV-BLUE-GREEN-RED-IR","611096","657016","903301","26.879288","7.526209","-0.008533","739699","863529","839235","19.966824","5.577064","-0.004961","739917","845385","832346","17.298654","4.675961","-0.072135","774865","852702","888866","14.255130","3.804237","-0.024918","704948","884375","966592","10.519987","2.517863","-0.873491","2326","2013","1892","1933","1808","1759","1742","1036","775","1649","1332","1216","1585","497","155",""
"MA200-0420","24669","57","1","1.10","1.4","2023-05-12T09:59:30","120","2023/05/12","09:59:30","-15.828084528446198","35.087693482637405","8.3","14","30","64","79","-25275","800","-6187","7","150","149.96","115.42","34.54","30.38","41.8","15.95","89660","30.00","DUALSPOT-UV-BLUE-GREEN-RED-IR","612212","658361","905287","26.916184","7.538929","0.006486","741083","865302","841034","19.990046","5.584771","0.006583","740354","846009","833045","17.319336","4.683304","0.011765","775155","853120","889317","14.271403","3.809370","0.004819","705182","884723","966986","10.531315","2.520770","-0.021863","1877","2163","2274","1491","1654","1717","1487","1765","1868","1414","1491","1518","1370","1175","1114",""
"MA200-0420","24670","57","1","1.10","1.4","2023-05-12T10:00:00","120","2023/05/12","10:00:00","-15.829411625862122","35.08683281391859","6.8","14","30","64","79","-24964","-1548","-5564","7","150","149.60","114.72","34.89","30.39","41.8","15.95","89660","30.00","DUALSPOT-UV-BLUE-GREEN-RED-IR","607844","656872","905464","27.642792","7.779163","0.003916","731020","857225","834853","20.617868","5.784076","0.002790","735817","844189","832724","17.894546","4.860896","0.001147","770841","851356","888802","14.773826","3.959918","-0.001383","702109","883348","966550","10.920118","2.630120","-0.010061","37203","40448","41718","40572","42353","43048","41629","42265","42502","43940","43296","43061","47346","43788","42659",""
"MA200-0420","24671","57","1","1.10","1.4","2023-05-12T10:00:30","120","2023/05/12","10:00:30","-15.83105355501175","35.085639983415604","4.4","14","30","64","79","-25075","4845","-5679","7","150","150.21","114.56","35.65","30.41","41.9","16.01","89724","30.06","DUALSPOT-UV-BLUE-GREEN-RED-IR","602817","655073","905527","28.478900","8.061695","0.003750","731682","862187","841617","21.332756","6.015176","0.002395","731938","843508","833769","18.544998","5.065632","0.000828","767648","851221","890227","15.339670","4.132621","-0.001773","699669","882946","967364","11.343159","2.752456","-0.009098","42869","46544","47995","46262","48051","48754","47140","47675","47876","49556","48598","48244","51588","47933","46762",""
"MA200-0420","24672","57","1","1.10","1.4","2023-05-12T10:01:00","120","2023/05/12","10:01:00","-15.832714855670929","35.08503148704767","4.5","14","30","64","79","-24750","166","-4162","7","150","150.09","114.90","35.19","30.42","42.0","16.06","89764","30.06","DUALSPOT-UV-BLUE-GREEN-RED-IR","602987","655581","906453","28.557358","8.086086","0.000729","731771","862620","842168","21.386078","6.028468","-0.016338","731781","843593","833930","18.590642","5.076850","-0.020061","767994","851765","890857","15.373403","4.139889","-0.044377","695574","877910","961854","11.368866","2.757992","-0.056659","4010","4071","4095","3440","2800","2549","3298","2646","2402","2945","2072","1750","3125","2197","1900",""
