"Serial number","Datum ID","Session ID","Data format version","Firmware version","App version","Date / time local","Timezone offset (mins)","Date local (yyyy/MM/dd)","Time local (hh:mm:ss)","GPS lat (ddmm.mmmmm)","GPS long (dddmm.mmmmm)","GPS speed (km/h)","GPS sat count","Timebase (s)","Status","Battery remaining (%)","Accel X","Accel Y","Accel Z","Tape position","Flow setpoint (mL/min)","Flow total (mL/min)","Flow1 (mL/min)","Flow2 (mL/min)","Sample temp (C)","Sample RH (%)","Sample dewpoint (C)","Internal pressure (Pa)","Internal temp (C)","Optical config","UV Sen1","UV Sen2","UV Ref","UV ATN1","UV ATN2","UV K","Blue Sen1","Blue Sen2","Blue Ref","Blue ATN1","Blue ATN2","Blue K","Green Sen1","Green Sen2","Green Ref","Green ATN1","Green ATN2","Green K","Red Sen1","Red Sen2","Red Ref","Red ATN1","Red ATN2","Red K","IR Sen1","IR Sen2","IR Ref","IR ATN1","IR ATN2","IR K","UV BC1","UV BC2","UV BCc","Blue BC1","Blue BC2","Blue BCc","Green BC1","Green BC2","Green BCc","Red BC1","Red BC2","Red BCc","IR BC1","IR BC2","IR BCc","Readable status"
"MA200-0416","33837","98","1","1.10","1.4","2023-06-01T15:03:05","120","2023/06/01","15:03:05","0","0","0.0","1","30","66","44","-7971","3591","-24894","1","150","0.00","0.00","0.00","0.00","0.0","-204.27","0","0.00","DUALSPOT-UV-BLUE-GREEN-RED-IR","907853","777432","966277","0.000000","0.000000","0.000000","829264","939942","791924","0.000000","0.000000","0.000000","896062","912839","816646","0.000000","0.000000","0.000000","821425","869950","807293","0.000000","0.000000","0.000000","733625","848913","946135","0.000000","0.000000","0.000000","","","","","","","","","","","","","","","","Start up"
"MA200-0416","33838","98","1","1.10","1.4","2023-06-01T15:03:35","120","2023/06/01","15:03:35","0","0","0.0","5","30","66","44","-24896","544","-2752","1","150","149.86","117.96","31.90","31.04","42.7","16.86","0","0.00","DUALSPOT-UV-BLUE-GREEN-RED-IR","867331","743274","924223","0.000000","0.000000","0.000000","800221","907262","764754","0.000000","0.000000","0.000000","895720","912803","816926","0.000000","0.000000","0.000000","877634","929938","863170","0.000000","0.000000","0.000000","737433","853787","951947","0.000000","0.000000","0.000000","","","","","","","","","","","","","","","","Start up"
"MA200-0416","33839","98","1","1.10","1.4","2023-06-01T15:04:05","120","2023/06/01","15:04:05","0","0","0.0","10","30","66","43","-24168","-5268","2368","1","150","150.04","117.83","32.21","31.14","42.4","16.85","88960","30.94","DUALSPOT-UV-BLUE-GREEN-RED-IR","852678","731054","909201","0.000000","0.000000","0.000000","800983","908348","765738","0.000000","0.000000","0.000000","895771","913026","817164","0.000000","0.000000","0.000000","876636","929044","862369","0.000000","0.000000","0.000000","741165","858213","956901","0.000000","0.000000","0.000000","","","","","","","","","","","","","","","","Start up"
"MA200-0416","33840","98","1","1.10","1.4","2023-06-01T15:04:35","120","2023/06/01","15:04:35","-15.777184545993805","35.04730465635657","0.5","8","30","66","43","-24088","6400","-3716","1","150","149.87","118.21","31.66","31.27","42.0","16.81","88956","31.19","DUALSPOT-UV-BLUE-GREEN-RED-IR","849906","728962","906773","0.000000","0.000000","0.000000","799997","907370","765014","0.000000","0.000000","0.000000","894033","911364","815773","0.000000","0.000000","0.000000","875832","928234","861732","0.000000","0.000000","0.000000","735346","851636","949616","0.000000","0.000000","0.000000","","","","","","","","","","","","","","","","Start up"
"MA200-0416","33841","98","1","1.10","1.4","2023-06-01T15:05:05","120","2023/06/01","15:05:05","-15.7771857380867","35.04725932702422","0.5","10","30","66","43","-24264","-955","3964","1","150","149.46","118.50","30.96","31.44","41.7","16.86","88960","31.38","DUALSPOT-UV-BLUE-GREEN-RED-IR","847677","727326","904817","0.000000","0.000000","0.000000","799296","906799","764555","0.000000","0.000000","0.000000","891781","909269","813861","0.000000","0.000000","0.000000","880161","932986","866093","0.000000","0.000000","0.000000","737306","853962","952275","0.000000","0.000000","0.000000","","","","","","","","","","","","","","","","Start up"
"MA200-0416","33842","98","1","1.10","1.4","2023-06-01T15:05:35","120","2023/06/01","15:05:35","-15.777129173278809","35.04725915938616","0.3","9","30","64","43","-23732","-1892","6084","1","150","149.66","118.34","31.32","31.66","41.5","17.00","88960","31.56","DUALSPOT-UV-BLUE-GREEN-RED-IR","848467","730376","909627","0.000000","0.000000","0.000000","794176","902269","761030","0.000000","0.000000","0.000000","893311","911672","816197","0.000000","0.000000","0.000000","876665","929853","863304","0.000000","0.000000","0.000000","739442","856779","955497","0.000000","0.000000","0.000000","","","","","","","","","","","","","","","",""
"MA200-0416","33843","98","1","1.10","1.4","2023-06-01T15:06:05","120","2023/06/01","15:06:05","-15.777105152606964","35.04724982753396","0.4","8","30","64","42","-14808","-16192","-15308","1","150","149.45","117.58","31.86","31.86","41.6","17.21","88964","31.69","DUALSPOT-UV-BLUE-GREEN-RED-IR","837750","724421","903451","0.597271","0.141651","0.000000","794164","904308","763253","0.256252","0.055187","0.000000","887631","907298","812600","0.173133","0.031858","0.000000","876828","931045","864572","0.114172","0.019204","0.000000","734318","851398","949620","0.068639","0.011966","0.000000","29835","26110","29835","16156","12839","16156","12224","8300","12224","9741","6046","9741","8154","5246","8154",""
"MA200-0416","33844","98","1","1.10","1.4","2023-06-01T15:06:35","120","2023/06/01","15:06:35","-15.777113497257233","35.047250494360924","0.0","11","30","64","43","-7640","22980","1596","1","150","149.76","118.10","31.67","32.04","41.2","17.23","88964","31.88","DUALSPOT-UV-BLUE-GREEN-RED-IR","829232","722054","902646","1.302558","0.321956","0.000000","788554","902163","762555","0.762320","0.174486","0.000000","887481","910734","816633","0.587618","0.128931","0.000000","873474","930426","864797","0.439387","0.092297","0.000000","736135","855237","954536","0.288957","0.067663","0.000000","35077","33444","35077","31766","27929","31766","29138","25451","29138","27627","23158","27627","26060","24571","26060",""
"MA200-0416","33845","98","1","1.10","1.4","2023-06-01T15:07:05","120","2023/06/01","15:07:05","-15.777108311653137","35.04725066199899","0.0","11","30","64","42","-7500","22896","1740","1","150","149.09","117.50","31.58","32.22","40.8","17.21","88968","32.06","DUALSPOT-UV-BLUE-GREEN-RED-IR","813360","721067","906753","3.900231","0.971488","-0.026267","778754","901737","764917","2.441073","0.566595","0.000000","872764","904641","813514","1.950252","0.434905","0.000000","859198","922645","859453","1.515370","0.326001","0.000000","727728","849950","950087","0.994878","0.230317","0.000000","129850","120789","117783","105913","92032","105913","96279","80428","96279","91871","74235","91871","83925","71939","83925",""
"MA200-0416","33846","98","1","1.10","1.4","2023-06-01T15:07:35","120","2023/06/01","15:07:35","-15.777105450630188","35.04724632948637","0.2","11","30","64","42","-8720","22656","-756","1","150","149.90","117.86","32.04","32.39","40.3","17.16","88972","32.13","DUALSPOT-UV-BLUE-GREEN-RED-IR","767564","709213","905509","8.755931","2.269533","-0.002606","742018","889924","764079","6.480732","1.594883","-0.014198","841211","898763","816399","5.394071","1.291471","-0.023309","837411","921784","865524","4.300237","1.000833","-0.038305","714610","848477","953525","2.850681","0.684700","0.000000","241985","237987","236588","254091","237950","232681","242590","221982","215495","237060","211337","203534","219961","198136","219961",""
"MA200-0416","33847","98","1","1.10","1.4","2023-06-01T15:08:05","120","2023/06/01","15:08:05","-15.777107954025269","35.04725232347846","0.0","11","30","64","42","-6556","23152","2168","1","150","149.90","117.54","32.35","32.53","39.6","17.01","88976","32.25","DUALSPOT-UV-BLUE-GREEN-RED-IR","750866","707212","909577","12.295982","3.237629","-0.000724","724505","881874","761014","9.207380","2.293104","-0.011111","823973","891943","813675","7.778538","1.877581","-0.021112","821478","914195","861264","6.269941","1.465862","-0.036374","709076","848161","955244","4.162555","0.985262","-0.067620","176897","175748","175337","171968","159982","156007","168421","150399","144665","168123","144201","136901","155912","129772","121666",""
"MA200-0416","33848","98","1","1.10","1.4","2023-06-01T15:08:35","120","2023/06/01","15:08:35","-15.77710348367691","35.047267492860556","0.0","11","30","64","42","-6452","23184","2380","1","150","149.42","117.56","31.86","32.66","38.9","16.86","88976","32.38","DUALSPOT-UV-BLUE-GREEN-RED-IR","745948","702630","903638","12.318954","3.240480","-0.225651","725896","883723","762588","9.238722","2.291673","0.303673","825823","894161","815651","7.814170","1.876974","0.448758","824765","918126","864881","6.303487","1.461756","0.336899","706150","844904","951572","4.203682","0.988592","-2.625820","1147","525","303","1976","-332","-1094","2516","-158","-1003","2862","-1293","-2547","4887","1459","405",""
"MA200-0416","33849","98","1","1.10","1.4","2023-06-01T15:09:05","120","2023/06/01","15:09:05","-15.77710884809494","35.04725982621312","0.1","12","30","64","42","-6579","23104","2252","1","150","149.67","117.88","31.79","32.81","38.4","16.80","88980","32.50","DUALSPOT-UV-BLUE-GREEN-RED-IR","748567","705603","907733","12.404423","3.265243","0.007400","728009","886930","765499","9.313063","2.307443","-0.042491","826285","895215","816729","7.878334","1.886886","-0.162602","826194","920191","866928","6.356393","1.465916","-1.826752","706396","845544","952370","4.250793","0.997118","-0.177224","4258","4575","4688","4674","3677","3349","4518","2588","1981","4502","1313","357","5582","3746","3184",""
"MA200-0416","33850","98","1","1.10","1.4","2023-06-01T15:09:35","120","2023/06/01","15:09:35","-15.777118384838104","35.04727132245898","0.0","12","30","64","42","-6404","23164","1872","1","150","150.43","118.38","32.05","32.96","38.2","16.81","88980","32.63","DUALSPOT-UV-BLUE-GREEN-RED-IR","746138","705610","908952","12.801954","3.375040","0.002085","720503","880131","760308","9.624674","2.384208","-0.014129","820083","890569","813045","8.142544","1.947283","-0.031581","817793","912616","860248","6.570663","1.510441","-0.065798","705668","845808","953053","4.400991","1.031243","-0.060393","19724","20122","20265","19514","17757","17178","18530","15646","14739","18159","13938","12678","17724","14874","14002",""
"MA200-0416","33851","98","1","1.10","1.4","2023-06-01T15:10:05","120","2023/06/01","15:10:05","-15.777119874954224","35.04726232588291","0.2","12","30","64","42","-6388","23744","1440","1","150","150.01","118.29","31.71","33.12","37.9","16.85","88980","32.75","DUALSPOT-UV-BLUE-GREEN-RED-IR","742906","702825","905382","12.924713","3.409414","0.004410","723256","883839","763520","9.724583","2.405511","-0.038398","822586","893641","815871","8.232123","1.965123","-0.061964","823083","918838","866074","6.642472","1.520931","-0.216825","703502","843374","950362","4.456514","1.042847","-0.090642","6095","6366","6463","6261","4979","4558","6287","4670","4163","6090","3318","2495","6556","5111","4670",""
"MA200-0416","33852","98","1","1.10","1.4","2023-06-01T15:10:35","120","2023/06/01","15:10:35","-15.777048289775848","35.04727232456207","0.0","12","30","64","42","-5625","1944","-25672","1","150","150.29","118.50","31.80","33.25","37.6","16.82","88972","33.00","DUALSPOT-UV-BLUE-GREEN-RED-IR","737951","700422","903312","13.207306","3.481992","-0.004680","720047","881828","762294","9.909039","2.440458","-0.064530","823026","895848","818259","8.386910","1.989621","-0.138707","817886","914614","862382","6.775055","1.536243","-0.412826","704136","845301","952803","4.563164","1.061187","-0.192750","14007","13407","13192","11539","8147","7038","10844","6396","5013","11225","4831","2956","12572","8057","6689",""
"MA200-0416","33853","98","1","1.10","1.4","2023-06-01T15:11:05","120","2023/06/01","15:11:05","-15.777044177055359","35.04727632552385","0.0","12","30","64","42","1216","-584","-26603","1","150","149.87","117.84","32.03","33.34","37.1","16.70","88964","33.19","DUALSPOT-UV-BLUE-GREEN-RED-IR","731472","702201","909663","14.740812","3.904316","0.001186","711439","877862","760585","10.874031","2.664905","-0.021748","811304","888851","813319","9.208385","2.166587","-0.040449","811713","912847","861927","7.476357","1.677346","-0.067387","699863","843666","951970","5.085012","1.165796","-0.101624","76438","77439","77799","60709","51944","49098","57878","45866","42171","59710","44194","39706","61865","45620","40788",""
"MA200-0416","33854","98","1","1.10","1.4","2023-06-01T15:11:35","120","2023/06/01","15:11:35","-15.777038216590881","35.04727799072862","0.0","12","30","72","42","-25060","-48","-1352","1","150","149.53","118.09","31.44","33.46","36.7","16.64","88960","33.31","DUALSPOT-UV-BLUE-GREEN-RED-IR","824795","803588","1047423","16.754150","4.495155","0.007316","707780","880649","765108","11.942169","2.929567","-0.008476","931698","1027348","941881","10.022376","2.352047","-0.023176","935372","1057400","999825","8.125369","1.811850","-0.049108","806547","975826","1102143","5.540827","1.255748","-0.090770","100144","110379","114133","67056","62405","60893","57229","48973","46442","55141","42921","39414","53923","39967","35878",""
"MA200-0416","33855","98","1","1.10","1.4","2023-06-01T15:12:05","120","2023/06/01","15:12:05","-15.777042388916016","35.0472799949348","0.0","13","30","64","42","-25016","612","-1960","1","150","149.60","117.94","31.66","33.50","36.2","16.48","88960","33.25","DUALSPOT-UV-BLUE-GREEN-RED-IR","705736","693730","907554","17.913370","4.833799","0.006013","702495","879024","765230","12.643447","3.115123","-0.001542","801892","888280","815623","10.570975","2.487188","-0.011427","800029","907763","859307","8.555279","1.911008","-0.025898","696174","844419","954393","5.829685","1.318812","-0.054584","57731","62820","64700","44080","43444","43237","38618","35435","34456","36571","31419","29938","34214","27823","25955",""
"MA200-0416","33856","98","1","1.10","1.4","2023-06-01T15:12:35","120","2023/06/01","15:12:35","-15.777104139328003","35.0472203232348","0.1","13","30","64","42","-24252","-2416","3920","1","150","150.21","117.79","32.42","33.57","35.8","16.35","88960","33.13","DUALSPOT-UV-BLUE-GREEN-RED-IR","698380","690432","905390","19.103480","5.184547","0.004636","697688","875800","763305","13.292838","3.284126","-0.005863","797594","885776","814004","11.085928","2.613741","-0.014701","802343","912302","864116","8.965744","2.003890","-0.033134","693118","842005","952065","6.114416","1.381698","-0.056042","59342","63544","65109","40869","38644","37914","36294","32407","31208","34960","28742","26953","33767","27096","25149",""
"MA200-0416","33857","98","1","1.10","1.4","2023-06-01T15:13:05","120","2023/06/01","15:13:05","-15.777090430259705","35.04722732305527","0.4","14","30","64","41","-21124","2188","10688","1","150","149.63","117.98","31.65","33.59","35.4","16.19","88964","33.19","DUALSPOT-UV-BLUE-GREEN-RED-IR","695850","688247","902718","19.164198","5.204166","0.011432","695395","873283","761239","13.347460","3.299045","0.001757","796440","884820","813222","11.132314","2.626043","-0.001365","801596","911768","863655","9.003841","2.011501","-0.054388","692016","840867","950814","6.145954","1.387226","-0.131948","3022","3640","3870","3432","3494","3514","3264","3226","3215","3239","2412","2174","3734","2439","2062",""
"MA200-0416","33858","98","1","1.10","1.4","2023-06-01T15:13:35","120","2023/06/01","15:13:35","-15.777070701122284","35.04726515710354","0.4","14","30","64","42","-24395","-1829","4329","1","150","149.96","117.98","31.98","33.62","35.1","16.08","88964","33.31","DUALSPOT-UV-BLUE-GREEN-RED-IR","693972","691178","909276","19.824876","5.402120","0.006375","695442","877038","765722","13.731227","3.403770","0.000637","796221","887403","816500","11.421431","2.701294","-0.004826","796841","908557","861325","9.222128","2.065634","-0.013375","693569","844105","954932","6.286918","1.419594","-0.039165","32891","36353","37650","24114","24274","24327","20345","19533","19282","18562","16981","16524","16691","14137","13393",""
"MA200-0416","33859","98","1","1.10","1.4","2023-06-01T15:14:05","120","2023/06/01","15:14:05","-15.777067184448242","35.047258492559195","0.0","15","30","64","41","2027","-236","-26236","1","150","149.64","118.12","31.52","33.66","34.8","15.98","88952","33.31","DUALSPOT-UV-BLUE-GREEN-RED-IR","683786","689001","910795","21.598792","5.925846","0.005927","685114","869690","760999","14.703422","3.658235","-0.001765","790784","885926","816496","12.165721","2.884483","-0.009299","793520","908470","862311","9.798299","2.198952","-0.021082","691118","843375","954857","6.656982","1.501139","-0.043568","88209","97606","101159","61015","59856","59472","52314","48258","46997","48938","42440","40560","43765","36145","33926",""
"MA200-0416","33860","98","1","1.10","1.4","2023-06-01T15:14:35","120","2023/06/01","15:14:35","-15.77707028388977","35.047251991927624","0.0","15","30","64","42","2148","-212","-26456","1","150","149.70","117.94","31.76","33.74","34.7","15.99","88952","33.38","DUALSPOT-UV-BLUE-GREEN-RED-IR","676948","684416","906065","22.050588","6.059812","0.005552","684931","871705","763513","14.983150","3.730774","-0.003457","786926","883534","814921","12.388210","2.937674","-0.013914","794421","911192","865394","9.976600","2.239829","-0.023762","686833","839211","950518","6.779125","1.530089","-0.027002","22500","24776","25639","17582","16932","16716","15662","13905","13359","15167","12913","12260","14467","12734","12228",""
"MA200-0416","33861","98","1","1.10","1.4","2023-06-01T15:15:05","120","2023/06/01","15:15:05","-15.777070701122284","35.04724949225783","0.0","16","30","64","41","2236","-148","-26247","1","150","149.86","117.65","32.20","33.82","34.7","16.11","88952","33.38","DUALSPOT-UV-BLUE-GREEN-RED-IR","669580","683111","907898","23.314106","6.444446","0.005755","680701","871396","764869","15.816656","3.953880","-0.001920","782123","882334","815067","13.063603","3.107256","-0.009317","791499","911320","866500","10.519026","2.369230","-0.018894","684806","838825","950847","7.145763","1.620477","-0.020627","63078","70151","72853","52518","51357","50970","47659","43717","42487","46254","40312","38585","43532","39208","37940",""
"MA200-0416","33862","98","1","1.10","1.4","2023-06-01T15:15:35","120","2023/06/01","15:15:35","-15.777071952819824","35.04724932461977","0.0","16","30","64","41","2208","-156","-26544","1","150","149.70","117.34","32.35","33.94","34.9","16.27","88944","33.38","DUALSPOT-UV-BLUE-GREEN-RED-IR","657437","680550","910408","25.284004","7.050091","0.005441","668012","863040","760071","16.990564","4.268026","-0.002410","775635","881470","816318","13.986863","3.339928","-0.009108","780983","904496","861606","11.240600","2.541720","-0.018468","681861","838535","951695","7.624546","1.733901","-0.029235","98603","109947","114333","74163","71978","71246","65322","59704","57941","61694","53486","51088","56998","48971","46609",""
"MA200-0416","33863","98","1","1.10","1.4","2023-06-01T15:16:05","120","2023/06/01","15:16:05","-15.777080297470093","35.04725215956569","0.0","15","30","64","41","2148","-204","-26368","1","150","150.08","117.50","32.57","34.06","34.9","16.37","88948","33.38","DUALSPOT-UV-BLUE-GREEN-RED-IR","631994","668532","903530","28.006992","7.917320","0.006136","654793","859378","761594","18.667796","4.735916","0.000449","762780","878355","817345","15.293219","3.682822","-0.004923","771219","902902","863276","12.265520","2.796071","-0.012804","675553","836986","952342","8.323246","1.906864","-0.019367","136114","156377","164362","105817","106485","106712","92302","87396","85840","87511","78340","75633","83066","74177","71535",""
"MA200-0416","33864","98","1","1.10","1.4","2023-06-01T15:16:35","120","2023/06/01","15:16:35","-15.777080476284027","35.047252491116524","0.0","15","30","64","41","2156","-208","-26808","1","150","150.21","117.71","32.50","34.19","34.8","16.43","88952","33.44","DUALSPOT-UV-BLUE-GREEN-RED-IR","606146","660072","904935","33.021442","9.568453","0.006456","632210","851061","762213","22.857398","5.967373","0.003510","736446","867428","814311","18.977318","4.712689","0.000852","752567","898379","865006","15.370228","3.619182","-0.003582","662989","832998","952287","10.513771","2.467020","-0.010171","250214","298368","318013","263857","280864","286872","259845","263054","264114","264622","254064","250813","259965","240744","234852",""
"MA200-0416","33865","98","1","1.10","1.4","2023-06-01T15:17:05","120","2023/06/01","15:17:05","-15.777079641819","35.04725215956569","0.0","15","30","64","41","2088","-180","-25852","1","150","149.83","117.38","32.45","34.32","34.5","16.44","88956","33.44","DUALSPOT-UV-BLUE-GREEN-RED-IR","602937","659227","905651","33.684864","9.789907","0.006721","630616","850945","762837","23.266954","6.081991","0.000712","734337","866501","813899","19.293952","4.791707","-0.007697","750403","897066","864041","15.617739","3.672153","-0.026816","661257","831657","951078","10.698658","2.509432","-0.026710","33196","40087","42911","25865","26187","26301","22394","20218","19499","21154","16378","14910","22003","18259","17112",""
"MA200-0416","33866","98","1","1.10","1.4","2023-06-01T15:17:35","120","2023/06/01","15:17:35","-15.777073621749878","35.04725382477045","0.0","15","30","64","41","2164","-104","-26428","1","150","150.69","117.70","32.99","34.44","34.3","16.44","88956","33.44","DUALSPOT-UV-BLUE-GREEN-RED-IR","603708","661022","908818","34.027588","9.907522","0.007067","631060","852406","764396","23.455306","6.129789","-0.006261","734796","867699","815191","19.426602","4.819422","-0.026340","746110","892500","859698","15.712239","3.685271","-0.123178","661846","832814","952505","10.779797","2.525396","-0.059114","17102","20941","22517","11863","10741","10344","9356","6975","6189","8055","3989","2744","9630","6759","5881",""
"MA200-0416","33867","98","1","1.10","1.4","2023-06-01T15:18:05","120","2023/06/01","15:18:05","-15.777076542377472","35.047254491597414","0.0","15","30","64","41","2164","-124","-26347","1","150","149.76","117.78","31.98","34.57","34.1","16.49","88956","33.50","DUALSPOT-UV-BLUE-GREEN-RED-IR","595952","655431","903181","34.639008","10.117104","0.007805","625736","847655","761026","23.830450","6.236475","0.002525","733292","868055","816172","19.720946","4.893756","-0.005207","746492","894700","862332","15.943031","3.736901","-0.018750","661183","833217","953442","10.952717","2.567029","-0.015872","30490","38488","41788","23612","24728","25124","20748","19295","18816","19659","16195","15135","20509","18184","17472",""
"MA200-0416","33868","98","1","1.10","1.4","2023-06-01T15:18:35","120","2023/06/01","15:18:35","-15.777075827121735","35.04725432395935","0.0","15","30","64","41","2148","-172","-26647","1","150","149.96","117.42","32.54","34.73","34.1","16.60","88952","33.63","DUALSPOT-UV-BLUE-GREEN-RED-IR","592271","655476","906300","35.547788","10.431660","0.007331","623367","848181","762857","24.404762","6.402843","0.002373","727213","864050","813551","20.183554","5.019426","-0.001335","744365","894955","863459","16.317642","3.827846","-0.011841","655600","828055","948267","11.230598","2.638486","-0.009258","45458","56779","61481","36258","37902","38487","32708","32063","31850","32007","28040","26824","33059","30676","29945",""
"MA200-0416","33869","98","1","1.10","1.4","2023-06-01T15:19:05","120","2023/06/01","15:19:05","-15.777077794075012","35.04725332558155","0.0","15","30","64","41","2224","-156","-26456","1","150","149.83","117.46","32.37","34.89","33.9","16.67","88952","33.75","DUALSPOT-UV-BLUE-GREEN-RED-IR","590116","654443","905839","35.914744","10.557800","0.007226","621489","847077","762395","24.677526","6.480913","0.002020","728878","867330","817055","20.417720","5.078590","-0.006093","742535","893898","862745","16.513659","3.871882","-0.019260","657042","830724","951633","11.386913","2.678296","-0.009658","18349","22890","24780","17214","17880","18117","16551","15175","14719","16742","13649","12702","18590","17181","16748",""
"MA200-0416","33870","98","1","1.10","1.4","2023-06-01T15:19:35","120","2023/06/01","15:19:35","-15.777082979679108","35.04725066199899","0.1","15","30","64","41","2080","-148","-26408","1","150","150.13","117.23","32.90","35.06","33.9","16.79","88956","33.88","DUALSPOT-UV-BLUE-GREEN-RED-IR","592864","658352","911871","36.189084","10.652359","0.006752","619304","844982","760787","24.875244","6.535541","-0.000862","726706","865535","815572","20.582156","5.117071","-0.013791","739779","891286","860344","16.648579","3.898275","-0.039312","654433","827965","948624","11.499821","2.703409","-0.032358","13745","16882","18190","12503","12309","12240","11645","9710","9070","11546","8048","6979","13454","10663","9805",""
"MA200-0416","33871","98","1","1.10","1.4","2023-06-01T15:20:05","120","2023/06/01","15:20:05","-15.777082741260529","35.04724982753396","0.0","15","30","64","40","2216","-58","-26729","1","150","149.63","117.22","32.41","35.23","33.8","16.89","88960","34.06","DUALSPOT-UV-BLUE-GREEN-RED-IR","589028","654711","907251","36.257452","10.676933","0.008230","620592","847342","763037","24.925298","6.543535","-0.053791","725210","864223","814417","20.619900","5.119019","0.641334","743216","895862","864768","16.673012","3.892428","0.101806","655692","829940","951011","11.536720","2.710512","-0.057067","3425","4453","4882","3165","1828","1352","2673","499","-218","2091","-1810","-2998","4397","3061","2651",""
"MA200-0416","33872","98","1","1.10","1.4","2023-06-01T15:20:35","120","2023/06/01","15:20:35","-15.777080476284027","35.04724749177694","0.0","15","30","64","40","2124","-308","-26880","1","150","150.03","117.50","32.53","35.40","33.6","16.94","88956","34.19","DUALSPOT-UV-BLUE-GREEN-RED-IR","583122","652793","908343","37.458976","11.112534","0.008161","617240","846343","763541","25.568902","6.736921","0.004067","722306","863633","814887","21.106788","5.251771","-0.000968","739914","894287","863977","17.049132","3.983372","-0.011596","653364","828531","950002","11.805561","2.777135","-0.013444","60060","78660","86505","40605","44076","45317","34401","33884","33713","32114","28051","26813","31961","28613","27583",""
"MA200-0416","33873","98","1","1.10","1.4","2023-06-01T15:21:05","120","2023/06/01","15:21:05","-15.777079641819","35.04725415632129","0.0","15","30","64","40","2084","-200","-26300","1","150","147.77","118.38","29.39","35.57","33.3","16.96","88960","34.38","DUALSPOT-UV-BLUE-GREEN-RED-IR","577853","648249","902999","37.726596","11.204632","0.009395","613111","842027","760112","25.751670","6.786024","0.003890","721642","864023","815588","21.249786","5.284601","-0.005248","734424","888646","858755","17.162704","4.004520","-0.028209","652786","828518","950243","11.899509","2.800636","0.000807","13278","18403","20569","11445","12384","12720","10029","9273","9022","9625","7218","6485","11086","11168","11194",""
"MA200-0416","33874","98","1","1.10","1.4","2023-06-01T15:21:35","120","2023/06/01","15:21:35","-15.777076840400696","35.04725782573223","0.0","15","30","64","40","2284","-160","-26416","1","150","149.51","117.46","32.04","35.74","33.1","17.00","88956","34.44","DUALSPOT-UV-BLUE-GREEN-RED-IR","574059","650366","910412","39.081164","11.653099","0.005971","609645","844310","764817","26.810230","7.093298","0.002989","714524","861893","815900","22.157464","5.532890","0.000164","733968","893787","865693","17.918604","4.197818","-0.004969","651388","830711","954348","12.464687","2.946202","-0.006332","67734","82204","88353","66808","71088","72628","64155","64330","64389","64563","60521","59285","67215","63460","62298",""
"MA200-0416","33875","98","1","1.10","1.4","2023-06-01T15:22:05","120","2023/06/01","15:22:05","-15.777077376842499","35.04726065695286","0.1","15","30","64","40","2288","-100","-26656","1","150","149.57","117.10","32.46","35.92","32.9","17.06","88956","34.63","DUALSPOT-UV-BLUE-GREEN-RED-IR","569604","647015","906828","39.649472","11.842999","0.005715","605649","840741","762297","27.308404","7.236212","0.001660","711235","859813","814502","22.606814","5.652708","-0.002366","730307","891096","863530","18.304410","4.291338","-0.010716","648309","828027","951729","12.763786","3.020301","-0.012670","28504","34360","36855","31537","32637","33034","31857","30644","30240","33053","28904","27633","35679","31888","30713",""
"MA200-0416","33876","98","1","1.10","1.4","2023-06-01T15:22:35","120","2023/06/01","15:22:35","-15.777081787586212","35.04725882783532","0.0","15","30","64","40","2112","-176","-26484","1","150","149.51","117.46","32.04","36.10","32.7","17.15","88956","34.81","DUALSPOT-UV-BLUE-GREEN-RED-IR","567261","645249","905005","39.829732","11.902695","0.005870","603899","839394","761392","27.456840","7.275306","-0.001795","712320","862058","816948","22.736610","5.682331","-0.012247","726857","887705","860435","18.407930","4.309994","-0.043225","649455","830122","954379","12.852486","3.043544","-0.004238","9013","10942","11764","9368","9044","8928","9174","7675","7175","8841","5841","4923","10548","10132","10003",""
"MA200-0416","33877","98","1","1.10","1.4","2023-06-01T15:23:05","120","2023/06/01","15:23:05","-15.777080476284027","35.047257490456104","0.0","15","30","64","40","2060","-256","-26291","1","150","146.45","118.38","28.08","36.25","32.6","17.21","88964","35.00","DUALSPOT-UV-BLUE-GREEN-RED-IR","569711","648421","909798","39.937596","11.941235","0.010502","605599","842322","764245","27.556950","7.300335","0.002485","710569","860488","815555","22.818108","5.697202","-0.019449","729644","891595","864288","18.473110","4.316705","-0.152808","646609","826842","950736","12.915718","3.058070","-0.003331","5351","8062","9218","6269","6608","6730","5715","4397","3958","5524","2398","1445","7461","7227","7154",""
"MA200-0416","33878","98","1","1.10","1.4","2023-06-01T15:23:35","120","2023/06/01","15:23:35","-15.7770836353302","35.047259993851185","0.0","15","30","64","40","2168","-272","-26456","1","150","150.62","117.50","33.12","36.46","32.4","17.31","88968","35.13","DUALSPOT-UV-BLUE-GREEN-RED-IR","568786","647717","909069","40.029688","11.975113","0.007580","604529","841329","763451","27.640522","7.321333","-0.006261","710498","860861","816008","22.890790","5.711878","-0.026538","729676","892086","864781","18.531790","4.320895","-1.993393","645597","825894","949752","12.973446","3.070366","-0.036256","4603","6008","6608","5272","4700","4494","5135","3679","3194","5010","1269","132","6863","5187","4667",""
"MA200-0416","33879","98","1","1.10","1.4","2023-06-01T15:24:05","120","2023/06/01","15:24:05","-15.777082622051239","35.047260489314795","0.0","15","30","64","40","1968","-312","-25947","1","150","150.01","117.71","32.30","36.63","32.1","17.33","88968","35.31","DUALSPOT-UV-BLUE-GREEN-RED-IR","563046","644301","906910","40.483412","12.144035","0.008342","600054","838181","761886","27.975862","7.425731","0.005538","705942","857985","814276","23.169326","5.788612","0.000235","724305","887780","861359","18.756080","4.376405","-0.007811","645391","827125","951797","13.142841","3.113625","-0.007593","22640","30721","34184","21119","23963","24991","19645","19726","19753","19116","17244","16674","20103","18711","18279",""
"MA200-0416","33880","98","1","1.10","1.4","2023-06-01T15:24:35","120","2023/06/01","15:24:35","-15.7770836353302","35.047257993370295","0.0","15","30","64","40","2256","-220","-26575","1","150","150.05","117.54","32.51","36.81","31.9","17.34","88968","35.44","DUALSPOT-UV-BLUE-GREEN-RED-IR","558855","641390","904400","41.284564","12.444500","0.008177","601247","841694","765841","28.494784","7.586145","0.004852","706370","860158","816955","23.589696","5.908519","0.001701","727069","892611","866466","19.087944","4.458654","-0.008216","642561","824465","949067","13.377296","3.171684","-0.011883","40034","54287","60438","32728","36581","37978","29692","30622","30933","28326","25383","24486","27864","24949","24042",""
"MA200-0416","33881","98","1","1.10","1.4","2023-06-01T15:25:05","120","2023/06/01","15:25:05","-15.777078211307526","35.04726015776396","0.0","15","30","64","40","2220","-287","-26716","1","150","149.51","117.54","31.96","36.99","31.6","17.39","88972","35.63","DUALSPOT-UV-BLUE-GREEN-RED-IR","561477","645135","910354","41.440472","12.506561","0.009632","598663","839166","763994","28.658848","7.639478","0.007342","704647","859091","816328","23.736570","5.949926","0.001969","723899","889644","863912","19.209278","4.488367","-0.007765","644148","827201","952483","13.476467","3.197386","-0.004865","7790","11404","12966","10347","12369","13104","10374","10755","10882","10356","9326","9012","11786","11233","11061",""
"MA200-0416","33882","98","1","1.10","1.4","2023-06-01T15:25:35","120","2023/06/01","15:25:35","-15.777078330516815","35.047258492559195","0.0","15","30","64","40","2288","-164","-26572","1","150","149.57","117.14","32.42","37.15","31.4","17.41","88972","35.81","DUALSPOT-UV-BLUE-GREEN-RED-IR","558187","641566","905481","41.521388","12.534637","0.006419","595688","835432","760724","28.756468","7.664900","-0.003047","701939","856271","813764","23.827566","5.970228","-0.014647","719564","884768","859211","19.283006","4.499066","-0.084769","640307","822606","947321","13.540936","3.211472","-0.028155","4057","5086","5531","6177","5812","5679","6449","5198","4780","6314","3310","2396","7687","6069","5565",""
"MA200-0416","33883","98","1","1.10","1.4","2023-06-01T15:26:05","120","2023/06/01","15:26:05","-15.777078211307526","35.04725616052747","0.0","15","30","64","40","2232","-148","-26444","1","150","150.03","118.06","31.97","37.32","31.2","17.45","88972","36.00","DUALSPOT-UV-BLUE-GREEN-RED-IR","558550","642055","906190","41.537668","12.538872","-0.001438","595407","835250","760620","28.793222","7.671182","-0.035103","702782","857541","814982","23.863376","5.973511","-0.313756","720543","886242","860607","19.311464","4.497242","0.136380","644009","827600","953092","13.574314","3.218540","-0.029485","809","777","764","2307","1456","1147","2518","852","296","2418","-572","-1480","3949","3088","2820",""
"MA200-0416","33884","98","1","1.10","1.4","2023-06-01T15:26:35","120","2023/06/01","15:26:35","-15.777077496051788","35.04725315794349","0.0","15","30","64","40","2176","-284","-26463","1","150","150.03","117.06","32.96","37.48","30.9","17.45","88976","36.19","DUALSPOT-UV-BLUE-GREEN-RED-IR","556876","640116","903409","41.535760","12.536621","0.019753","598569","839854","764851","28.814450","7.673919","-0.098304","701983","856767","814195","23.882676","5.971837","0.098126","724958","891849","866008","19.325700","4.491633","0.076089","642186","825382","950585","13.596363","3.220984","-0.284428","-95","-401","-533","1344","615","350","1368","-421","-1018","1220","-1707","-2593","2631","1035","540",""
"MA200-0416","33885","98","1","1.10","1.4","2023-06-01T15:27:05","120","2023/06/01","15:27:05","-15.777079463005066","35.047253489494324","0.0","15","30","64","40","2128","-340","-26424","1","150","149.70","117.26","32.43","37.64","30.6","17.43","88972","36.31","DUALSPOT-UV-BLUE-GREEN-RED-IR","559104","643251","908286","41.558364","12.545033","0.007962","596063","836988","762445","28.848088","7.680773","-0.019404","702960","858554","816074","23.910040","5.973673","4.344702","721712","888312","862640","19.344344","4.487795","0.092355","643474","827411","953029","13.619286","3.224706","-0.086551","1132","1523","1692","2126","1566","1363","1937","469","-18","1594","-1187","-2027","2730","1603","1253",""
"MA200-0416","33886","98","1","1.10","1.4","2023-06-01T15:27:35","120","2023/06/01","15:27:35","-15.777076840400696","35.04725682362914","0.0","15","30","64","40","2212","-112","-26452","1","150","150.43","117.78","32.64","37.78","30.3","17.36","88968","36.44","DUALSPOT-UV-BLUE-GREEN-RED-IR","551777","638323","904223","42.332164","12.826748","0.007329","593743","837872","765045","29.470500","7.876901","0.005342","699550","858136","817251","24.438124","6.130385","0.003528","719742","889242","864797","19.773154","4.603714","-0.001680","641618","827279","953855","13.928074","3.305949","-0.005118","38588","50687","55947","39175","44539","46495","37224","39855","40736","36526","35625","35352","36624","34765","34187",""
"MA200-0416","33887","98","1","1.10","1.4","2023-06-01T15:28:05","120","2023/06/01","15:28:05","-15.777077674865723","35.04725532606244","0.0","15","30","64","39","2304","-59","-26463","1","150","150.03","117.14","32.88","37.92","30.0","17.34","88956","36.56","DUALSPOT-UV-BLUE-GREEN-RED-IR","545572","635971","904872","43.605028","13.293938","0.007034","583783","829614","760049","30.562980","8.230537","0.005668","690513","852509","814144","25.410310","6.423449","0.003540","708414","880223","857913","20.601112","4.834950","-0.000326","637835","825915","953741","14.535358","3.467353","-0.005168","63821","83446","92054","69136","79722","83623","68901","73990","75711","70910","70548","70437","72419","68566","67359",""
"MA200-0416","33888","98","1","1.10","1.4","2023-06-01T15:28:35","120","2023/06/01","15:28:35","-15.777082979679108","35.04725565761328","0.0","15","30","64","40","2316","-160","-26444","1","150","149.90","117.26","32.63","38.06","29.7","17.29","88956","36.69","DUALSPOT-UV-BLUE-GREEN-RED-IR","538519","635461","910870","45.558412","14.030392","0.007439","576776","828771","763397","32.219814","8.777100","0.006303","682778","851698","817098","26.894784","6.883293","0.004907","704222","883036","863825","21.878688","5.203551","0.002103","630380","821909","951590","15.482021","3.726500","-0.001418","97842","132555","148002","104743","124164","131436","105101","116992","121081","109306","113324","114578","112775","110936","110353",""
"MA200-0416","33889","98","1","1.10","1.4","2023-06-01T15:29:05","120","2023/06/01","15:29:05","-15.777083814144135","35.04726182669401","0.0","15","30","64","40","2304","-228","-26628","1","150","150.28","116.92","33.36","38.19","29.4","17.26","88956","36.81","DUALSPOT-UV-BLUE-GREEN-RED-IR","528525","629089","906469","46.837076","14.515091","0.006884","572013","828668","766457","33.348262","9.156460","0.005910","673737","846745","815196","27.908944","7.202911","0.004420","699375","882847","866061","22.752120","5.459857","0.001579","626730","821290","952699","16.127922","3.906184","-0.002128","64235","85327","94799","71549","84290","89112","72014","79532","82147","74948","77071","77741","77172","75232","74611",""
"MA200-0416","33890","98","1","1.10","1.4","2023-06-01T15:29:35","120","2023/06/01","15:29:35","-15.77708649635315","35.04726015776396","0.0","15","30","64","39","2200","-164","-26612","1","150","150.29","117.18","33.11","38.32","29.2","17.24","88956","36.94","DUALSPOT-UV-BLUE-GREEN-RED-IR","527097","629035","907862","47.509000","14.768204","0.006861","566463","822456","761574","33.894992","9.338724","0.005869","671661","845937","815192","28.407104","7.357210","0.004047","692475","875782","859733","23.182460","5.583298","0.000849","621980","816322","947459","16.456078","3.993557","-0.005006","33678","44902","49965","34587","40810","43176","35294","38691","39878","36843","37405","37583","39119","36864","36142",""
"MA200-0416","33891","98","1","1.10","1.4","2023-06-01T15:30:05","120","2023/06/01","15:30:05","-15.777070164680481","35.04725032672286","0.1","15","30","64","39","18024","-16444","-10600","1","150","150.49","117.06","33.43","38.45","28.9","17.22","88964","37.00","DUALSPOT-UV-BLUE-GREEN-RED-IR","525053","626972","905371","47.632380","14.822395","0.009208","568330","825858","765126","34.034428","9.391493","0.009109","670447","845082","814765","28.539282","7.402915","0.007769","696431","881474","865690","23.300004","5.618942","0.003240","623913","819448","951356","16.558018","4.021104","-0.004601","6190","9522","11027","8830","11702","12797","9374","11351","12044","10073","10698","10896","12164","11512","11303",""
"MA200-0416","33892","98","1","1.10","1.4","2023-06-01T15:30:35","120","2023/06/01","15:30:35","-15.777069687843323","35.04724832624197","0.3","15","30","64","39","-2624","2844","-26056","1","150","149.09","114.88","34.21","38.52","28.7","17.16","88964","37.06","DUALSPOT-UV-BLUE-GREEN-RED-IR","522881","625798","904822","47.911376","14.924149","0.005136","562626","819230","759691","34.277828","9.467649","0.001910","668166","843852","814158","28.760472","7.467825","-0.000697","693714","879548","864279","23.488134","5.667156","-0.009582","622752","818971","951234","16.706726","4.062025","-0.006678","14264","17470","18920","15707","16503","16807","15985","15752","15671","16430","14139","13411","18083","16709","16268",""
"MA200-0416","33893","98","1","1.10","1.4","2023-06-01T15:31:05","120","2023/06/01","15:31:05","-15.777053654193878","35.047308158129454","1.0","15","30","64","39","-1312","7528","-24948","1","150","149.83","116.59","33.24","38.59","28.6","17.17","88964","37.19","DUALSPOT-UV-BLUE-GREEN-RED-IR","523923","627890","908609","48.190356","15.030762","0.006866","563147","821043","761816","34.510924","9.542942","0.004495","669295","846263","816900","28.968812","7.529640","0.001795","690415","876298","861380","23.667710","5.714816","-0.004241","624250","821623","954629","16.845924","4.099385","-0.004992","14054","18837","21005","14821","16790","17543","14836","15438","15649","15453","14383","14043","16678","15699","15384",""
"MA200-0416","33894","98","1","1.10","1.4","2023-06-01T15:31:35","120","2023/06/01","15:31:35","-15.777101516723633","35.04714349284768","0.5","14","30","64","39","-1436","4944","-25916","1","150","149.73","116.75","32.98","38.64","28.5","17.13","88972","37.25","DUALSPOT-UV-BLUE-GREEN-RED-IR","524582","629026","910515","48.275144","15.063683","0.007304","563727","822355","763247","34.594448","9.570377","0.005315","668691","845945","816786","29.044212","7.552588","0.003264","689466","875469","860735","23.732152","5.730879","-0.007722","623274","820626","953612","16.899384","4.113194","-0.007536","4265","5863","6588","5303","6167","6498","5361","5777","5923","5537","4887","4679","6396","5849","5673",""
"MA200-0416","33895","98","1","1.10","1.4","2023-06-01T15:32:05","120","2023/06/01","15:32:05","-15.77669370174408","35.047789327800274","4.9","14","30","64","39","-2348","3360","-26016","1","150","149.09","115.88","33.21","38.67","28.3","17.07","88956","37.31","DUALSPOT-UV-BLUE-GREEN-RED-IR","497700","618831","908205","50.934512","15.810520","-0.000589","543133","812929","761555","36.498704","10.086000","-0.002262","649972","838969","815600","30.466132","7.921088","-0.004877","675279","869955","859293","24.726036","5.978650","-0.008380","614056","817203","952379","17.617942","4.271124","-0.025228","134798","132089","130869","121825","115101","112533","101876","92124","88697","86051","74852","71281","86625","66432","59970",""
"MA200-0416","33896","98","1","1.10","1.4","2023-06-01T15:32:35","120","2023/06/01","15:32:35","-15.776032388210297","35.0486368201673","4.4","14","30","68","39","-4356","1552","-25808","2","150","151.95","116.63","35.32","38.74","28.3","17.11","88980","37.63","DUALSPOT-UV-BLUE-GREEN-RED-IR","826501","723075","903960","0.000000","0.000000","0.000000","784631","904992","759771","0.000000","0.000000","0.000000","883000","914940","815560","0.000000","0.000000","0.000000","868147","934959","863760","0.000000","0.000000","0.000000","728607","851706","954384","0.000000","0.000000","0.000000","0","0","0","0","0","0","0","0","0","0","0","0","0","0","0","Tape advance"
"MA200-0416","33897","98","1","1.10","1.4","2023-06-01T15:33:05","120","2023/06/01","15:33:05","-15.775385558605194","35.04948782175779","5.5","14","30","68","39","-4783","5929","-26004","2","150","149.68","116.77","32.91","38.76","28.2","17.06","88956","37.63","DUALSPOT-UV-BLUE-GREEN-RED-IR","827232","725464","907696","0.000000","0.000000","0.000000","785914","907721","762472","0.000000","0.000000","0.000000","879906","912699","813875","0.000000","0.000000","0.000000","863075","930175","859604","0.000000","0.000000","0.000000","725512","848564","951022","0.000000","0.000000","0.000000","","","","","","","","","","","","","","","","Tape advance"
"MA200-0416","33898","98","1","1.10","1.4","2023-06-01T15:33:35","120","2023/06/01","15:33:35","-15.774851858615875","35.05057316273451","4.3","14","30","64","39","-3820","3976","-25888","2","150","150.01","116.86","33.15","38.76","28.0","16.96","88912","37.69","DUALSPOT-UV-BLUE-GREEN-RED-IR","823387","724532","907590","0.447243","0.114730","0.000000","784121","907367","762702","0.255340","0.069599","0.000000","878897","912858","814457","0.187873","0.052750","0.000000","862914","930851","860547","0.130301","0.037902","0.000000","725630","849180","951903","0.080356","0.020457","0.000000","22479","20330","22479","16198","15566","16198","13347","13212","13347","11186","11472","11186","9605","8621","9605",""
"MA200-0416","33899","98","1","1.10","1.4","2023-06-01T15:34:05","120","2023/06/01","15:34:05","-15.775085747241974","35.05241999402642","8.8","14","30","64","39","-3040","4608","-25663","2","150","150.17","116.78","33.40","38.76","27.8","16.87","88892","37.69","DUALSPOT-UV-BLUE-GREEN-RED-IR","820236","723216","906532","0.732662","0.186573","0.000000","782250","906214","762062","0.417000","0.114469","0.000000","876327","910906","812965","0.302714","0.086421","0.000000","859709","927828","857948","0.208753","0.062591","0.000000","723907","847465","950062","0.128738","0.032150","0.000000","14355","12635","14355","10262","9960","10262","8164","8370","8164","6739","7416","6739","5787","4891","5787",""
"MA200-0416","33900","98","1","1.10","1.4","2023-06-01T15:34:35","120","2023/06/01","15:34:35","-15.775410830974579","35.05382265523076","4.9","14","30","64","39","-2796","3732","-25875","2","150","149.53","116.79","32.73","38.75","27.7","16.77","88884","37.75","DUALSPOT-UV-BLUE-GREEN-RED-IR","821146","724987","909218","0.931842","0.236551","0.000000","783020","907734","763520","0.526386","0.144313","0.000000","878313","913426","815408","0.382358","0.109804","0.000000","863690","932448","862396","0.264161","0.079917","0.000000","726679","850874","953997","0.161190","0.040569","0.000000","10016","8968","10016","6943","6759","6943","5661","5931","5661","4759","5310","4759","3881","3593","3881",""
"MA200-0416","33901","98","1","1.10","1.4","2023-06-01T15:35:05","120","2023/06/01","15:35:05","-15.775735020637512","35.05430682003498","1.2","14","30","64","39","-6340","8932","-23796","2","150","149.57","116.83","32.74","38.74","27.6","16.72","88868","37.75","DUALSPOT-UV-BLUE-GREEN-RED-IR","821229","725687","910283","1.050584","0.263551","0.000000","783340","908524","764347","0.595468","0.162189","0.000000","878011","913433","815498","0.433224","0.123960","0.000000","862947","931880","861939","0.299012","0.090825","0.000000","726185","850417","953506","0.177154","0.045328","0.000000","5969","4843","5969","4383","4047","4383","3614","3589","3614","2992","3342","2992","1908","2030","1908",""
"MA200-0416","33902","98","1","1.10","1.4","2023-06-01T15:35:35","120","2023/06/01","15:35:35","-15.77594667673111","35.05447915941477","0.9","14","30","64","39","-4832","2344","-26224","2","150","149.66","116.42","33.24","38.71","27.5","16.65","88872","37.81","DUALSPOT-UV-BLUE-GREEN-RED-IR","819221","724328","908778","1.128988","0.285654","0.000000","781727","906965","763135","0.641167","0.176631","0.000000","877100","912686","814942","0.467330","0.136906","0.000000","861633","930575","860787","0.322687","0.099760","0.000000","725608","849825","952860","0.187963","0.048308","0.000000","3955","3905","3955","2910","3220","2910","2432","3233","2432","2040","2696","2040","1297","1252","1297",""
"MA200-0416","33903","98","1","1.10","1.4","2023-06-01T15:36:05","120","2023/06/01","15:36:05","-15.775677025318146","35.05425048992038","2.8","14","30","64","39","-2908","2040","-25875","2","150","149.96","116.75","33.22","38.70","27.5","16.67","88876","37.81","DUALSPOT-UV-BLUE-GREEN-RED-IR","813699","719777","903246","1.197529","0.303468","0.000000","784006","909826","765608","0.680506","0.188808","0.000000","878276","914070","816272","0.495994","0.146443","0.000000","863357","932540","862714","0.343513","0.109195","0.000000","726648","851054","954282","0.197723","0.050860","0.000000","3448","3150","3448","2497","2717","2497","2038","2383","2038","1789","2849","1789","1167","1073","1167",""
"MA200-0416","33904","98","1","1.10","1.4","2023-06-01T15:36:35","120","2023/06/01","15:36:35","-15.77511078119278","35.05321182310581","3.3","14","30","64","39","-4087","3200","-24916","2","150","150.29","116.75","33.55","38.68","27.5","16.65","88904","37.81","DUALSPOT-UV-BLUE-GREEN-RED-IR","813844","720284","904028","1.267268","0.322498","0.000000","778477","903654","760504","0.718140","0.200069","0.000000","878716","914716","816915","0.526177","0.156009","0.000000","864146","933529","863663","0.363707","0.116717","0.000000","727769","852437","955849","0.206394","0.054268","0.000000","3508","3331","3508","2389","2488","2389","2146","2367","2146","1735","2249","1735","1037","1419","1037",""
"MA200-0416","33905","98","1","1.10","1.4","2023-06-01T15:37:05","120","2023/06/01","15:37:05","-15.774913609027863","35.050888158380985","8.0","14","30","64","38","-6466","3041","-25258","2","150","150.30","117.08","33.22","38.67","27.5","16.61","88912","37.88","DUALSPOT-UV-BLUE-GREEN-RED-IR","817987","724351","909331","1.339441","0.342384","0.000000","781704","907675","764004","0.760597","0.212669","0.000000","877119","913239","815689","0.557172","0.167233","0.000000","862416","931801","862184","0.385630","0.125128","0.000000","722061","845787","948438","0.217134","0.056341","0.000000","3620","3516","3620","2688","2811","2688","2197","2805","2197","1878","2540","1878","1281","871","1281",""
"MA200-0416","33906","98","1","1.10","1.4","2023-06-01T15:37:35","120","2023/06/01","15:37:35","-15.775243580341339","35.04978649318218","4.8","13","30","64","39","-3623","5304","-25388","2","150","149.92","116.82","33.10","38.64","27.5","16.58","88956","37.88","DUALSPOT-UV-BLUE-GREEN-RED-IR","812170","719753","903768","1.436480","0.363992","0.000000","777463","903113","760285","0.816315","0.226694","0.000000","878229","914658","817040","0.597667","0.177616","0.000000","864870","934619","864807","0.413548","0.133389","0.000000","723732","847882","950773","0.232589","0.060111","0.000000","4879","3833","4879","3535","3140","3535","2878","2603","2878","2397","2503","2397","1848","1590","1848",""
"MA200-0416","33907","98","1","1.10","1.4","2023-06-01T15:38:05","120","2023/06/01","15:38:05","-15.776015043258667","35.04865799099207","3.4","13","30","64","39","-6168","4640","-25084","2","150","149.59","116.75","32.84","38.62","27.5","16.56","88992","37.94","DUALSPOT-UV-BLUE-GREEN-RED-IR","811308","719792","904189","1.586808","0.404415","0.000000","777061","903228","760556","0.900459","0.251703","0.000000","877970","914790","817335","0.657290","0.197011","0.000000","864785","934773","865114","0.454889","0.149023","0.000000","723731","847990","951031","0.253669","0.068065","0.000000","7562","7230","7562","5342","5645","5342","4239","4903","4239","3552","4776","3552","2522","3383","2522",""
"MA200-0416","33908","98","1","1.10","1.4","2023-06-01T15:38:35","120","2023/06/01","15:38:35","-15.776683032512665","35.047803327441216","2.0","13","30","64","39","-8416","-2668","-25196","2","150","149.99","116.89","33.09","38.59","27.4","16.51","88988","37.94","DUALSPOT-UV-BLUE-GREEN-RED-IR","810218","719686","904419","1.741180","0.444820","0.000000","782307","909868","766373","0.983482","0.275444","0.000000","877496","914668","817391","0.716245","0.214511","0.000000","864487","934731","865178","0.492519","0.160497","0.000000","724005","848488","951610","0.276523","0.073372","0.000000","7756","7171","7756","5265","5318","5265","4187","4390","4187","3229","3478","3229","2731","2240","2731",""
"MA200-0416","33909","98","1","1.10","1.4","2023-06-01T15:39:05","120","2023/06/01","15:39:05","-15.777462840080261","35.04683466255665","6.8","13","30","64","38","-5954","2829","-24900","2","150","149.83","116.35","33.48","38.55","27.4","16.48","88996","37.94","DUALSPOT-UV-BLUE-GREEN-RED-IR","809975","720280","905515","1.894298","0.484977","0.000000","776249","903359","761021","1.064366","0.298315","0.000000","877423","914980","817765","0.772333","0.231445","0.000000","864631","935089","865602","0.529948","0.173914","0.000000","724055","848652","951832","0.295267","0.078574","0.000000","7729","7044","7729","5153","5064","5153","4002","4198","4002","3227","4020","3227","2250","2170","2250",""
"MA200-0416","33910","98","1","1.10","1.4","2023-06-01T15:39:35","120","2023/06/01","15:39:35","-15.778531014919281","35.045421320945024","7.7","13","30","64","38","-7408","2620","-25025","2","150","149.51","116.43","33.08","38.53","27.4","16.44","89028","37.94","DUALSPOT-UV-BLUE-GREEN-RED-IR","807900","719536","905055","2.081326","0.535236","0.000000","774983","902584","760612","1.162719","0.325267","0.000000","876571","914578","817585","0.840753","0.251078","0.000000","864026","934754","865411","0.573504","0.186974","0.000000","723785","848479","951754","0.319639","0.085889","0.000000","9435","8924","9435","6262","6040","6262","4878","4927","4878","3753","3961","3753","2924","3089","2924",""
"MA200-0416","33911","98","1","1.10","1.4","2023-06-01T15:40:05","120","2023/06/01","15:40:05","-15.779384016990662","35.04432199150324","3.2","13","30","64","39","-4660","-2388","-26340","2","150","150.29","116.79","33.51","38.50","27.4","16.41","89056","37.94","DUALSPOT-UV-BLUE-GREEN-RED-IR","806702","719408","905325","2.278064","0.582836","0.000000","774944","903182","761288","1.268136","0.352125","0.000000","872620","910886","814425","0.915348","0.270962","0.000000","863953","934972","865722","0.621271","0.200337","0.000000","724435","849407","952826","0.349033","0.092895","0.000000","9894","8344","9894","6691","5942","6691","5302","4926","5302","4103","4001","4103","3516","2920","3516",""
"MA200-0416","33912","98","1","1.10","1.4","2023-06-01T15:40:35","120","2023/06/01","15:40:35","-15.780106544494629","35.043356992304325","6.3","13","30","64","38","-5424","2916","-25988","2","150","150.69","116.95","33.74","38.48","27.4","16.39","89088","37.94","DUALSPOT-UV-BLUE-GREEN-RED-IR","805019","718542","904522","2.403466","0.615108","0.000000","773773","902252","760654","1.338326","0.369476","0.000000","872034","910588","814265","0.965076","0.284403","0.000000","863452","934641","865500","0.655821","0.211215","0.000000","723790","848761","952140","0.368410","0.096733","0.000000","6298","5617","6298","4449","3811","4449","3530","3306","3530","2964","3234","2964","2314","1588","2314",""
"MA200-0416","33913","98","1","1.10","1.4","2023-06-01T15:41:05","120","2023/06/01","15:41:05","-15.781087517738342","35.04220348969102","7.2","13","30","64","38","-5464","544","-26224","2","150","149.39","116.98","32.40","38.45","27.4","16.36","89120","37.94","DUALSPOT-UV-BLUE-GREEN-RED-IR","802273","716751","902538","2.529576","0.647272","0.000000","771738","900357","759199","1.409190","0.390380","0.000000","874007","912993","816536","1.015496","0.299042","0.000000","860948","932156","863304","0.690419","0.220644","0.000000","722447","847315","950566","0.388456","0.102538","0.000000","6331","5830","6331","4490","4782","4490","3578","3751","3578","2967","2919","2967","2393","2502","2393",""
"MA200-0416","33914","98","1","1.10","1.4","2023-06-01T15:41:35","120","2023/06/01","15:41:35","-15.782118558883667","35.04102182388306","8.8","13","30","64","38","-5833","-266","-25683","2","150","149.70","116.91","32.79","38.44","27.3","16.33","89164","37.94","DUALSPOT-UV-BLUE-GREEN-RED-IR","803380","718367","904834","2.642796","0.676950","0.000000","773256","902522","761143","1.470959","0.406885","0.000000","870593","909708","813709","1.061374","0.312626","0.000000","861844","933305","864452","0.721190","0.231075","0.000000","723163","848276","951725","0.406885","0.108018","0.000000","5688","5315","5688","3916","3731","3916","3258","3439","3258","2640","3191","2640","2202","2334","2202",""
"MA200-0416","33915","98","1","1.10","1.4","2023-06-01T15:42:05","120","2023/06/01","15:42:05","-15.783219635486603","35.03986348956823","6.9","13","30","64","38","-6012","340","-25656","2","150","150.09","116.43","33.67","38.41","27.3","16.31","89260","37.94","DUALSPOT-UV-BLUE-GREEN-RED-IR","802603","718191","904873","2.745729","0.705286","0.000000","772794","902354","761159","1.531797","0.423978","0.000000","874658","914251","817896","1.104903","0.324947","0.000000","861807","933466","864685","0.750811","0.241202","0.000000","723048","848279","951722","0.423110","0.112219","0.000000","5192","4943","5192","3873","3764","3873","3103","3038","3103","2552","3017","2552","1946","1743","1946",""
"MA200-0416","33916","98","1","1.10","1.4","2023-06-01T15:42:35","120","2023/06/01","15:42:35","-15.783652424812317","35.03910465538502","6.2","13","30","64","38","-5784","3707","-25256","2","150","149.80","116.71","33.09","38.38","27.3","16.26","89296","37.94","DUALSPOT-UV-BLUE-GREEN-RED-IR","801768","717954","904847","2.845875","0.734083","0.000000","777523","908277","766260","1.592403","0.441825","0.000000","870490","910168","814338","1.150065","0.339240","0.000000","862462","934361","865606","0.783252","0.250786","0.000000","723693","849125","952741","0.440368","0.117595","0.000000","5039","5111","5039","3849","3998","3849","3212","3586","3212","2788","2906","2788","2065","2269","2065",""
"MA200-0416","33917","98","1","1.10","1.4","2023-06-01T15:43:05","120","2023/06/01","15:43:05","-15.782666325569153","35.03890732675791","1.2","13","30","64","38","-3925","-479","-26087","2","150","149.73","116.74","32.99","38.37","27.3","16.23","89376","37.94","DUALSPOT-UV-BLUE-GREEN-RED-IR","800364","717696","904973","3.027077","0.784376","-0.008161","771344","901870","761114","1.709598","0.474786","0.000000","873606","914080","818070","1.242983","0.365227","0.000000","861018","933319","864845","0.854008","0.270825","0.000000","722978","848593","952297","0.487537","0.129434","0.000000","9116","8953","8897","7442","7406","7442","6608","6539","6608","6080","6094","6080","5644","5013","5644",""
"MA200-0416","33918","98","1","1.10","1.4","2023-06-01T15:43:35","120","2023/06/01","15:43:35","-15.782693028450012","35.038893822580576","0.5","13","30","64","38","-4419","34","-25980","2","150","149.66","116.63","33.03","38.34","27.2","16.15","89380","37.94","DUALSPOT-UV-BLUE-GREEN-RED-IR","798730","716779","904147","3.149498","0.821178","0.024344","775980","907773","766271","1.790046","0.497961","0.000000","868662","909243","813915","1.306510","0.384432","0.000000","860606","933161","864779","0.901239","0.285756","0.000000","722706","848418","952180","0.517389","0.137929","0.000000","6165","6543","6677","5113","5200","5113","4522","4826","4522","4062","4534","4062","3575","3592","3575",""
"MA200-0416","33919","98","1","1.10","1.4","2023-06-01T15:44:05","120","2023/06/01","15:44:05","-15.782727181911469","35.03858615830541","1.6","13","30","64","38","-3964","-1752","-26452","2","150","149.94","117.09","32.85","38.32","27.1","16.08","89404","37.94","DUALSPOT-UV-BLUE-GREEN-RED-IR","798686","717076","904670","3.220423","0.842577","0.028733","770173","901225","760885","1.835656","0.512779","0.000000","872050","913039","817384","1.344561","0.396889","0.000000","860285","932958","864695","0.928912","0.295657","0.000000","722619","848428","952204","0.534120","0.143481","0.000000","3557","3825","3920","2887","3343","2887","2698","3148","2698","2371","3023","2371","1996","2360","1996",""
"MA200-0416","33920","98","1","1.10","1.4","2023-06-01T15:44:35","120","2023/06/01","15:44:35","-15.78326666355133","35.03850833326578","3.8","13","30","64","38","-3828","3355","-26012","2","150","149.95","116.77","33.17","38.30","27.0","16.01","89372","37.94","DUALSPOT-UV-BLUE-GREEN-RED-IR","803015","721340","910272","3.292817","0.863004","-0.002782","768169","899185","759258","1.882934","0.528394","0.000000","870350","911456","816062","1.378536","0.407648","0.000000","857568","930166","862181","0.955191","0.305080","0.000000","721236","846881","950493","0.547800","0.147415","0.000000","3641","3616","3608","3001","3489","3001","2415","2692","2415","2257","2849","2257","1636","1656","1636",""
"MA200-0416","33921","98","1","1.10","1.4","2023-06-01T15:45:05","120","2023/06/01","15:45:05","-15.7843297123909","35.0380623228848","4.8","13","30","64","38","-3036","-100","-26128","2","150","149.70","116.98","32.71","38.28","27.0","15.97","89364","37.94","DUALSPOT-UV-BLUE-GREEN-RED-IR","797158","716460","904326","3.369064","0.883102","-0.025028","769282","900801","760700","1.930379","0.540136","0.000000","871528","912937","817481","1.416129","0.419122","0.000000","859253","932165","864120","0.982783","0.314051","0.000000","722330","848274","952131","0.564342","0.152687","0.000000","3828","3608","3530","3006","2660","3006","2667","2912","2667","2366","2751","2366","1975","2251","1975",""
"MA200-0416","33922","98","1","1.10","1.4","2023-06-01T15:45:35","120","2023/06/01","15:45:35","-15.785169422626495","35.037281323224306","3.2","13","30","64","38","-2568","980","-26296","2","150","150.21","117.29","32.92","38.25","26.9","15.93","89444","37.94","DUALSPOT-UV-BLUE-GREEN-RED-IR","795242","715505","903397","3.492270","0.914354","-0.042929","768218","900114","760280","2.004748","0.559310","0.000000","871171","912986","817628","1.471525","0.432831","0.000000","859761","932980","864958","1.021667","0.324839","0.000000","722727","848853","952822","0.587224","0.157677","0.000000","6169","5575","5365","4700","4317","4700","3921","3457","3921","3325","3287","3325","2725","2117","2725",""
"MA200-0416","33923","98","1","1.10","1.4","2023-06-01T15:46:05","120","2023/06/01","15:46:05","-15.785721361637115","35.03669065609574","2.8","13","30","64","38","-1991","2025","-26300","2","150","149.96","116.95","33.02","38.22","26.8","15.86","89444","37.94","DUALSPOT-UV-BLUE-GREEN-RED-IR","794970","715773","904002","3.605855","0.945304","-0.013749","768225","900465","760716","2.071136","0.577932","0.000000","870525","912596","817382","1.521629","0.449073","0.000000","859204","932572","864657","1.055552","0.335681","0.000000","722943","849247","953305","0.607448","0.162253","0.000000","5704","5505","5435","4208","4181","4208","3557","4084","3557","2906","3294","2906","2415","1935","2415",""
"MA200-0416","33924","98","1","1.10","1.4","2023-06-01T15:46:35","120","2023/06/01","15:46:35","-15.78566724061966","35.03595765680075","4.4","13","30","64","38","-3752","-796","-26440","2","150","149.80","116.21","33.59","38.19","26.8","15.78","89436","37.88","DUALSPOT-UV-BLUE-GREEN-RED-IR","793792","715301","903643","3.712280","0.972032","-0.058158","766725","899172","759779","2.135968","0.595325","0.000000","866533","908692","814032","1.567936","0.462109","0.000000","858761","932313","864549","1.088320","0.345027","0.000000","722549","848910","953003","0.626707","0.168757","0.000000","5379","4674","4423","4135","3839","4135","3308","3222","3308","2829","2791","2829","2315","2705","2315",""
"MA200-0416","33925","98","1","1.10","1.4","2023-06-01T15:47:05","120","2023/06/01","15:47:05","-15.78513753414154","35.03543682023883","1.9","13","30","64","38","-3644","24","-26344","2","150","150.14","116.59","33.56","38.16","26.7","15.70","89484","37.88","DUALSPOT-UV-BLUE-GREEN-RED-IR","792173","714681","903259","3.858407","1.011732","-0.021366","772011","905940","765664","2.217698","0.618166","0.000000","869311","912052","817196","1.629203","0.480330","0.000000","857942","931728","864110","1.129262","0.358474","0.000000","722483","849002","953189","0.651052","0.174032","0.000000","7361","6948","6801","5196","5045","5196","4363","4507","4363","3523","4019","3523","2917","2195","2917",""
"MA200-0416","33926","98","1","1.10","1.4","2023-06-01T15:47:35","120","2023/06/01","15:47:35","-15.784781038761139","35.035101160407066","1.7","13","30","64","38","-3758","-650","-25908","2","150","149.76","116.43","33.34","38.14","26.7","15.68","89524","37.88","DUALSPOT-UV-BLUE-GREEN-RED-IR","797948","720695","911292","4.027692","1.058507","-0.012356","771048","905384","765366","2.309048","0.643646","0.000000","868450","911578","816898","1.694780","0.498468","0.000000","856622","930563","863154","1.176227","0.373286","0.000000","721408","847894","951981","0.676450","0.181390","0.000000","8540","8241","8135","5816","5666","5816","4676","4517","4676","4046","4457","4046","3047","3083","3047",""
"MA200-0416","33927","98","1","1.10","1.4","2023-06-01T15:48:05","120","2023/06/01","15:48:05","-15.784267246723175","35.03534899279475","1.5","13","30","64","38","-4432","344","-25724","2","150","150.03","116.59","33.44","38.09","26.7","15.67","89540","37.88","DUALSPOT-UV-BLUE-GREEN-RED-IR","796246","719848","910563","4.160134","1.095710","-0.006945","770107","904794","765047","2.386379","0.664835","0.000000","867588","911069","816604","1.754713","0.516218","0.000000","855706","929870","862602","1.218563","0.385898","0.000000","721320","847925","952102","0.701528","0.188447","0.000000","6672","6534","6484","4917","4697","4917","4267","4406","4267","3643","3783","3643","3004","2947","3004",""
"MA200-0416","33928","98","1","1.10","1.4","2023-06-01T15:48:35","120","2023/06/01","15:48:35","-15.783713519573212","35.034844160079956","2.1","13","30","64","38","-2970","150","-26066","2","150","150.28","116.79","33.49","38.07","26.7","15.65","89604","37.88","DUALSPOT-UV-BLUE-GREEN-RED-IR","794537","719192","910066","4.321580","1.137590","-0.034394","768865","904009","764585","2.486479","0.691854","0.000000","867038","910933","816670","1.828855","0.537461","0.000000","854893","929341","862234","1.270102","0.401431","0.000000","721025","847787","951991","0.733776","0.197077","0.000000","8119","7345","7068","6353","5981","6353","5270","5266","5270","4427","4653","4427","3857","3600","3857",""
"MA200-0416","33929","98","1","1.10","1.4","2023-06-01T15:49:05","120","2023/06/01","15:49:05","-15.783501625061035","35.034422658383846","3.7","13","30","64","37","-4550","4279","-25833","2","150","150.21","116.59","33.63","38.05","26.7","15.65","89644","37.81","DUALSPOT-UV-BLUE-GREEN-RED-IR","789972","716000","906459","4.502852","1.184681","-0.034624","765552","900824","762104","2.595305","0.719856","0.000000","864993","909315","815363","1.908487","0.557601","0.000000","852479","927017","860259","1.325516","0.416898","0.000000","719648","846398","950536","0.766799","0.205633","0.000000","9132","8224","7900","6919","6172","6919","5670","4972","5670","4768","4614","4768","3956","3553","3956",""
"MA200-0416","33930","98","1","1.10","1.4","2023-06-01T15:49:35","120","2023/06/01","15:49:35","-15.783999383449554","35.03384066000581","2.0","13","30","64","38","-4008","5850","-26458","2","150","150.03","116.47","33.56","38.01","26.7","15.62","89636","37.81","DUALSPOT-UV-BLUE-GREEN-RED-IR","791068","717666","908907","4.630872","1.219408","-0.018665","766918","902946","764086","2.671653","0.743055","0.000000","865140","909851","815995","1.966792","0.576043","0.000000","853143","928037","861296","1.365268","0.429433","0.000000","720340","847353","951650","0.790983","0.211724","0.000000","6456","6077","5942","4859","5124","4859","4156","4562","4156","3424","3747","3424","2900","2535","2900",""
"MA200-0416","33931","98","1","1.10","1.4","2023-06-01T15:50:05","120","2023/06/01","15:50:05","-15.785088241100311","35.03288182616234","8.3","13","30","64","38","-3150","1153","-26000","2","150","150.35","116.29","34.06","37.97","26.7","15.59","89624","37.81","DUALSPOT-UV-BLUE-GREEN-RED-IR","788510","716073","907228","4.772493","1.257623","-0.025040","764997","901215","762761","2.756333","0.765733","0.000000","864530","909595","815940","2.030277","0.594121","0.000000","852690","927774","861163","1.408936","0.443804","0.000000","720144","847255","951623","0.815147","0.218351","0.000000","7152","6590","6389","5398","4936","5398","4532","4406","4532","3767","4233","3767","2902","2718","2902",""
"MA200-0416","33932","98","1","1.10","1.4","2023-06-01T15:50:35","120","2023/06/01","15:50:35","-15.78618037700653","35.03216016292572","4.5","13","30","64","37","-2276","-1056","-25784","2","150","149.87","116.63","33.24","37.94","26.7","15.55","89700","37.75","DUALSPOT-UV-BLUE-GREEN-RED-IR","786579","715149","906445","4.926125","1.298349","-0.021298","763868","900500","762363","2.849263","0.790941","0.000000","863124","908608","815162","2.098602","0.612146","0.000000","850781","926080","859689","1.456393","0.456833","0.000000","719278","846396","950762","0.844965","0.226091","0.000000","7737","7196","7002","5906","5621","5906","4863","4501","4863","4082","3932","4082","3571","3252","3571",""
"MA200-0416","33933","98","1","1.10","1.4","2023-06-01T15:51:05","120","2023/06/01","15:51:05","-15.786518692970276","35.032145999372005","1.5","13","30","64","37","-5416","2172","-25791","2","150","149.96","116.67","33.30","37.92","26.8","15.56","89720","37.75","DUALSPOT-UV-BLUE-GREEN-RED-IR","785754","715281","907008","5.091177","1.342912","-0.015527","763503","900743","762761","2.946496","0.816362","0.000000","862686","908605","815329","2.170318","0.633132","0.000000","850772","926375","860108","1.507500","0.472390","0.000000","719689","847102","951592","0.874395","0.233736","0.000000","8309","7861","7700","6178","5660","6178","5103","5233","5103","4394","4687","4394","3523","3207","3523",""
"MA200-0416","33934","98","1","1.10","1.4","2023-06-01T15:51:35","120","2023/06/01","15:51:35","-15.786452054977417","35.0311224963516","2.6","13","30","64","37","-5540","2928","-26180","2","150","149.91","116.86","33.05","37.89","26.8","15.53","89780","37.75","DUALSPOT-UV-BLUE-GREEN-RED-IR","783617","714118","905876","5.244101","1.382974","-0.021202","761795","899261","761678","3.036213","0.840616","-0.021386","862123","908465","815366","2.238411","0.650328","0.000000","849954","925792","859686","1.553233","0.485277","0.000000","719065","846572","951031","0.900650","0.239992","0.000000","7686","7119","6917","5691","5440","5344","4837","4319","4837","3926","3912","3926","3138","2644","3138",""
"MA200-0416","33935","98","1","1.10","1.4","2023-06-01T15:52:05","120","2023/06/01","15:52:05","-15.786360383033752","35.02948132716119","5.1","13","30","64","37","-8168","-948","-24912","2","150","149.70","116.63","33.07","37.86","26.8","15.50","89848","37.75","DUALSPOT-UV-BLUE-GREEN-RED-IR","782577","713725","905669","5.359668","1.414190","-0.012848","761642","899531","762077","3.103528","0.858955","-0.018481","861236","907831","814928","2.289361","0.666976","0.000000","855818","932425","865951","1.590337","0.496191","0.000000","718422","845921","950381","0.922239","0.246151","0.000000","5820","5544","5445","4278","4111","4046","3626","4179","3626","3191","3310","3191","2585","2601","2585",""
"MA200-0416","33936","98","1","1.10","1.4","2023-06-01T15:52:35","120","2023/06/01","15:52:35","-15.785786211490631","35.029642494395375","3.4","13","30","64","37","-3380","2332","-25956","2","150","150.03","116.59","33.44","37.82","26.8","15.48","89792","37.69","DUALSPOT-UV-BLUE-GREEN-RED-IR","780393","712346","904155","5.467396","1.441057","-0.039402","759797","897872","760756","3.171854","0.875305","-0.093595","860851","907846","815037","2.343559","0.679189","0.000000","848935","925207","859329","1.629108","0.506174","0.000000","719193","846997","951651","0.947174","0.251509","0.000000","5427","4718","4465","4344","3624","3350","3859","3032","3859","3336","2995","3336","2987","2238","2987",""
"MA200-0416","33937","98","1","1.10","1.4","2023-06-01T15:53:05","120","2023/06/01","15:53:05","-15.785226702690125","35.03002449683845","1.6","13","30","64","37","-4624","1044","-26056","2","150","150.09","116.63","33.47","37.78","26.8","15.43","89760","37.69","DUALSPOT-UV-BLUE-GREEN-RED-IR","778228","711955","904334","5.719248","1.508771","-0.016377","757974","897371","760870","3.384585","0.933647","-0.019248","857910","906300","814150","2.534717","0.731385","0.000000","852518","930580","864804","1.803983","0.554198","0.000000","716333","844967","949787","1.106792","0.289446","0.000000","12683","11884","11597","13522","12923","12695","13607","12948","13607","15043","14396","15043","19119","15835","19119",""
"MA200-0416","33938","98","1","1.10","1.4","2023-06-01T15:53:35","120","2023/06/01","15:53:35","-15.785260736942291","35.030457163229585","1.5","13","30","64","37","-2672","3684","-25912","2","150","150.29","116.83","33.47","37.75","26.7","15.38","89744","37.63","DUALSPOT-UV-BLUE-GREEN-RED-IR","770735","709648","903509","6.529486","1.719270","-0.022154","757294","901676","766155","4.100033","1.124084","-0.026372","851172","904052","813754","3.214711","0.912839","-0.032901","846250","928414","864454","2.443223","0.726580","0.000000","715669","848448","955372","1.732389","0.445849","0.000000","40735","36943","35588","45399","42184","40969","48324","45014","43701","54896","51677","54896","74806","65284","74806",""
"MA200-0416","33939","98","1","1.10","1.4","2023-06-01T15:54:05","120","2023/06/01","15:54:05","-15.785248160362244","35.03071882762015","0.1","13","30","64","37","-3955","2684","-25388","2","150","149.73","116.59","33.14","37.71","26.7","15.34","0","0.00","DUALSPOT-UV-BLUE-GREEN-RED-IR","767416","712760","910315","7.643581","2.011776","-0.015150","748734","898114","765108","5.062568","1.377534","-0.022277","846589","905454","817028","4.123157","1.150018","-0.030960","838051","925418","863624","3.293103","0.947791","-0.040843","709356","846362","955037","2.554414","0.651002","0.000000","56128","51836","50303","61204","56689","55001","64692","59411","57369","73136","66961","64465","98497","86468","98497",""
"MA200-0416","33940","98","1","1.10","1.4","2023-06-01T15:54:35","120","2023/06/01","15:54:35","-15.785200357437134","35.03072366118431","0.3","13","30","64","36","-4104","1892","-26116","2","150","150.01","116.38","33.63","37.67","26.7","15.32","0","0.00","DUALSPOT-UV-BLUE-GREEN-RED-IR","763374","711372","909846","8.251629","2.187236","-0.000231","745738","896626","764637","5.515983","1.507837","-0.001382","844052","904652","817044","4.533649","1.267040","-0.004201","835731","924642","863566","3.666775","1.054317","-0.005252","708097","846385","955625","2.896274","0.738004","0.000000","30688","30645","30630","28882","28724","28664","29284","28889","28737","32213","31780","31605","41035","36140","41035",""
"MA200-0416","33941","98","1","1.10","1.4","2023-06-01T15:55:05","120","2023/06/01","15:55:05","-15.785255491733551","35.0308233294636","1.8","13","30","64","37","-892","1696","-26760","2","150","149.67","116.67","33.00","37.63","26.7","15.26","89732","37.63","DUALSPOT-UV-BLUE-GREEN-RED-IR","758911","710114","909679","8.813082","2.346868","0.000774","742597","895620","764678","5.930785","1.623809","-0.002760","840748","903593","816952","4.903656","1.369857","-0.005143","832052","922828","862718","3.996014","1.144754","-0.010605","705304","845017","954856","3.200597","0.815125","-0.050779","28266","28409","28460","26357","26049","25933","26331","25864","25683","28313","27491","27162","36439","32642","31345",""
"MA200-0416","33942","98","1","1.10","1.4","2023-06-01T15:55:35","120","2023/06/01","15:55:35","-15.785403311252594","35.030994329601526","0.2","13","30","64","37","-2088","-1572","-26572","2","150","150.58","116.41","34.17","37.60","26.7","15.22","89724","37.56","DUALSPOT-UV-BLUE-GREEN-RED-IR","754011","708436","908957","9.309969","2.484035","-0.009515","738876","893863","764015","6.314453","1.724874","-0.026058","837355","902411","816617","5.244333","1.457810","-0.038228","828446","921025","861711","4.303089","1.223278","-0.051070","703038","844061","954437","3.474590","0.880538","-0.096013","25071","23575","23031","24433","21924","20981","24297","21367","20239","26465","23052","21697","32880","26739","24655",""
"MA200-0416","33943","98","1","1.10","1.4","2023-06-01T15:56:05","120","2023/06/01","15:56:05","-15.785252809524536","35.03063132986426","1.7","13","30","64","36","-2984","500","-26800","2","150","150.29","116.51","33.79","37.55","26.7","15.18","89736","37.56","DUALSPOT-UV-BLUE-GREEN-RED-IR","749178","706549","907939","9.909166","2.657051","-0.000591","735487","892107","763252","6.707559","1.833385","-0.010568","834524","901306","816295","5.568099","1.546353","-0.015362","826262","920293","861614","4.569638","1.294994","-0.024505","701527","843580","954385","3.689628","0.935762","-0.049061","30207","30079","30031","25013","23809","23357","23071","21758","21253","22953","21296","20641","25783","22833","21831",""
"MA200-0416","33944","98","1","1.10","1.4","2023-06-01T15:56:35","120","2023/06/01","15:56:35","-15.784975051879883","35.03021599724889","2.3","13","30","64","36","-2245","4291","-25550","2","150","149.76","116.51","33.26","37.50","26.7","15.19","89740","37.50","DUALSPOT-UV-BLUE-GREEN-RED-IR","745817","704962","906735","10.257874","2.758825","0.002910","733409","891081","762892","6.966165","1.906602","-0.001621","831785","899699","815325","5.795646","1.609981","-0.005008","823179","918060","859978","4.769181","1.351541","-0.002132","699578","842183","953231","3.861086","0.983361","-0.009894","17579","17975","18120","16454","16321","16271","16214","15884","15757","17183","17059","17010","20558","19994","19801",""
"MA200-0416","33945","98","1","1.10","1.4","2023-06-01T15:57:05","120","2023/06/01","15:57:05","-15.784604907035828","35.03023582883179","1.7","13","30","64","37","-3755","76","-25624","2","150","149.96","116.27","33.69","37.47","26.8","15.21","89740","37.50","DUALSPOT-UV-BLUE-GREEN-RED-IR","743448","704057","906170","10.525133","2.831468","-0.008811","731442","890006","762389","7.173132","1.961719","-0.017498","829956","898928","815023","5.980182","1.658780","-0.023027","821425","917180","859515","4.931344","1.395833","-0.017670","698448","841698","953017","4.005178","1.018988","-0.061197","13501","12663","12355","13196","12127","11724","13176","12024","11582","13992","13188","12871","17312","14771","13904",""
"MA200-0416","33946","98","1","1.10","1.4","2023-06-01T15:57:35","120","2023/06/01","15:57:35","-15.784189939498901","35.02998232655227","1.8","13","30","64","36","-2708","168","-26788","2","150","150.36","116.70","33.66","37.43","26.8","15.16","89788","37.50","DUALSPOT-UV-BLUE-GREEN-RED-IR","739219","702240","904894","10.931784","2.939159","-0.011534","727907","888043","761425","7.511550","2.052228","-0.014812","826994","897844","814758","6.289137","1.742083","-0.015761","818299","915719","858842","5.213354","1.470834","-0.023369","696300","840899","952765","4.265722","1.082794","-0.059458","20466","18790","18174","21497","19932","19344","21979","20546","19996","24243","22353","21611","31187","26479","24877",""
"MA200-0416","33947","98","1","1.10","1.4","2023-06-01T15:58:05","120","2023/06/01","15:58:05","-15.784075021743774","35.03001516312361","0.3","12","30","64","36","-4587","-500","-25891","2","150","150.01","116.58","33.43","37.38","26.8","15.12","89792","37.44","DUALSPOT-UV-BLUE-GREEN-RED-IR","733525","700666","904597","11.553440","3.102047","-0.011563","723297","886493","761365","8.037220","2.190446","-0.016028","821796","896017","814360","6.769514","1.868421","-0.019078","820169","921387","865338","5.650490","1.586276","-0.021837","692355","839393","952228","4.688064","1.186596","-0.050448","31321","28620","27629","33427","30652","29612","34210","31377","30297","37619","34647","33487","50609","43379","40929",""
"MA200-0416","33948","98","1","1.10","1.4","2023-06-01T15:58:35","120","2023/06/01","15:58:35","-15.784073650836945","35.02988749369979","0.3","12","30","64","36","-4880","-176","-25968","2","150","149.87","116.67","33.20","37.35","26.9","15.15","89792","37.38","DUALSPOT-UV-BLUE-GREEN-RED-IR","728361","698301","902748","12.147747","3.260341","-0.007889","724402","890549","765764","8.538841","2.328031","-0.006119","818514","895026","814347","7.239991","1.995617","-0.010221","817066","920291","865213","6.085987","1.704371","-0.011487","690109","838818","952380","5.099621","1.286076","-0.049431","29919","28005","27303","31873","30722","30291","33479","31808","31173","37449","35688","35002","49278","41859","39357",""
"MA200-0416","33949","98","1","1.10","1.4","2023-06-01T15:59:05","120","2023/06/01","15:59:05","-15.784034729003906","35.02986916154623","0.8","12","30","64","36","-5860","-1340","-24968","2","150","150.03","116.75","33.28","37.32","27.0","15.19","89800","37.38","DUALSPOT-UV-BLUE-GREEN-RED-IR","731890","703697","910670","12.561829","3.371788","-0.006587","716449","882894","759840","8.885168","2.421825","-0.008307","815417","893597","813685","7.562453","2.084136","-0.007134","814682","919444","865037","6.378540","1.784396","-0.009335","688143","838024","952152","5.374305","1.359112","-0.018423","20832","19668","19240","21991","20891","20479","22931","22081","21757","25140","24123","23728","32867","30655","29906",""
"MA200-0416","33950","98","1","1.10","1.4","2023-06-01T15:59:35","120","2023/06/01","15:59:35","-15.783887207508087","35.030265329405665","1.9","13","30","64","36","-4404","1740","-26244","2","150","150.28","116.25","34.03","37.29","27.1","15.21","89780","37.38","DUALSPOT-UV-BLUE-GREEN-RED-IR","729469","703026","910657","12.905111","3.463760","-0.010156","719937","889009","765640","9.172537","2.497083","-0.018462","816549","896559","816903","7.828957","2.152318","-0.026877","811208","917144","863365","6.621928","1.846468","-0.032834","686137","836969","951418","5.602253","1.412174","-0.067316","17344","15873","15334","18325","16393","15671","19032","16633","15724","21004","18299","17253","27391","21781","19890",""
"MA200-0416","33951","98","1","1.10","1.4","2023-06-01T16:00:05","120","2023/06/01","16:00:05","-15.783721148967743","35.03086649440229","2.3","13","30","64","36","-5696","971","-26024","2","150","150.03","116.67","33.36","37.26","27.2","15.24","89756","37.31","DUALSPOT-UV-BLUE-GREEN-RED-IR","727123","702032","909922","13.160225","3.531852","-0.007610","718021","887985","765140","9.384761","2.552854","-0.013338","814991","896066","816828","8.020911","2.201098","-0.022592","809197","916016","862692","6.797810","1.892417","-0.020006","684855","836369","951040","5.762317","1.450964","-0.044439","12843","11988","11674","13485","12393","11985","13659","12139","11564","15124","13818","13314","19165","16242","15258",""
"MA200-0416","33952","98","1","1.10","1.4","2023-06-01T16:00:35","120","2023/06/01","16:00:35","-15.783649384975433","35.03155232593417","2.4","13","30","64","36","-2812","4796","-26103","2","150","149.83","116.27","33.56","37.23","27.3","15.27","89748","37.31","DUALSPOT-UV-BLUE-GREEN-RED-IR","725331","701003","908994","13.315794","3.577283","0.001185","716437","886662","764285","9.506051","2.587915","0.000205","813692","895239","816357","8.131028","2.234405","0.007618","807952","915121","862067","6.893860","1.920968","0.005754","684131","835908","950769","5.847408","1.474413","-0.011013","7858","7951","7984","7733","7744","7748","7862","8239","8382","8288","8534","8630","10223","9760","9604",""
"MA200-0416","33953","98","1","1.10","1.4","2023-06-01T16:01:05","120","2023/06/01","16:01:05","-15.783646047115326","35.03181565925479","1.4","13","30","64","36","-579","4241","-26245","2","150","149.83","116.47","33.36","37.20","27.3","15.24","89732","37.31","DUALSPOT-UV-BLUE-GREEN-RED-IR","723815","700276","908442","13.462929","3.621439","0.004546","715163","885826","763860","9.624879","2.623623","0.006567","812371","894421","815868","8.235640","2.265739","0.007194","806587","914177","861446","6.986999","1.949173","0.010515","683229","835334","950291","5.927597","1.494809","-0.029744","7420","7773","7903","7563","7934","8073","7457","7797","7926","8023","8481","8659","9618","8540","8176",""
"MA200-0416","33954","98","1","1.10","1.4","2023-06-01T16:01:35","120","2023/06/01","16:01:35","-15.784014403820038","35.031471993774176","3.4","13","30","64","36","-664","2084","-25412","2","150","149.67","116.74","32.93","37.17","27.4","15.26","89712","37.25","DUALSPOT-UV-BLUE-GREEN-RED-IR","721441","698960","907181","13.647617","3.669805","-0.007947","713002","884172","762715","9.774340","2.663791","-0.007095","811254","894131","815887","8.369856","2.302110","-0.006836","805402","913661","861217","7.104577","1.981288","-0.006455","682636","835307","950504","6.028267","1.517189","-0.065499","9292","8627","8383","9491","9043","8875","9545","9170","9028","10104","9785","9661","12046","9494","8636",""
"MA200-0416","33955","98","1","1.10","1.4","2023-06-01T16:02:05","120","2023/06/01","16:02:05","-15.784440279006958","35.030722327530384","3.8","13","30","64","36","-2095","-137","-25337","2","150","150.17","116.44","33.74","37.13","27.4","15.22","89728","37.25","DUALSPOT-UV-BLUE-GREEN-RED-IR","719056","697939","906499","13.877115","3.733083","-0.005112","711040","883003","762146","9.959717","2.716392","-0.002944","809652","893503","815731","8.535583","2.348876","-0.004381","804047","913157","861154","7.250456","2.022123","-0.006810","682152","835578","951129","6.155727","1.548633","-0.040241","11576","11016","10810","11802","11558","11466","11816","11508","11390","12569","12143","11978","15292","13019","12256",""
"MA200-0416","33956","98","1","1.10","1.4","2023-06-01T16:02:35","120","2023/06/01","16:02:35","-15.785124063491821","35.03019833005965","2.0","13","30","64","36","-7850","-1837","-25108","2","150","150.56","116.63","33.93","37.11","27.3","15.20","89764","37.25","DUALSPOT-UV-BLUE-GREEN-RED-IR","715615","696115","904931","14.185152","3.822012","-0.000750","708969","881941","761777","10.201515","2.786075","-0.001287","806941","891886","814793","8.752311","2.412540","0.001510","800541","910405","859040","7.441616","2.078706","0.003171","683666","838522","954955","6.332157","1.596475","-0.015777","15513","15394","15350","15369","15225","15170","15428","15577","15634","16444","16730","16841","21132","19697","19213",""
"MA200-0416","33957","98","1","1.10","1.4","2023-06-01T16:03:05","120","2023/06/01","16:03:05","-15.78583937883377","35.0296134930104","2.7","13","30","64","36","-2500","-1911","-26388","2","150","149.76","116.39","33.38","37.06","27.4","15.21","89828","37.19","DUALSPOT-UV-BLUE-GREEN-RED-IR","712261","695128","904805","14.580275","3.933853","-0.001235","706149","880803","761560","10.514259","2.877098","0.001918","804000","890756","814489","9.033102","2.492243","-0.001571","804678","917113","866060","7.690993","2.149546","-0.001715","681494","837587","954560","6.566341","1.656560","-0.024953","19940","19682","19587","19920","20217","20329","20029","19826","19749","21496","21294","21216","28107","25149","24150",""
"MA200-0416","33958","98","1","1.10","1.4","2023-06-01T16:03:35","120","2023/06/01","16:03:35","-15.786301910877228","35.029890993610024","5.4","13","30","64","36","-3260","3912","-25900","2","150","150.49","116.63","33.86","37.04","27.4","15.19","89824","37.19","DUALSPOT-UV-BLUE-GREEN-RED-IR","704506","691192","901604","15.298697","4.136732","-0.002554","699089","875912","758806","11.134140","3.056038","-0.000729","797905","887795","813252","9.615445","2.659619","-0.001479","798091","913242","863873","8.232355","2.304816","-0.002098","676719","835097","953158","7.091873","1.792525","-0.024077","36181","35188","34820","39402","39172","39084","41455","41034","40873","46570","46001","45779","62947","56087","53767",""
"MA200-0416","33959","98","1","1.10","1.4","2023-06-01T16:04:05","120","2023/06/01","16:04:05","-15.786385715007782","35.031137995421886","1.3","13","30","64","36","-3479","4370","-25608","2","150","149.67","116.32","33.35","37.01","27.4","15.14","89780","37.13","DUALSPOT-UV-BLUE-GREEN-RED-IR","704105","696400","911379","16.407801","4.460851","0.001583","693506","875224","760521","12.137440","3.358019","0.005322","790448","885624","813636","10.577232","2.946591","0.005064","791416","911568","864706","9.145460","2.578449","0.006497","670917","833543","953767","7.991470","2.040803","-0.006592","56003","57090","57496","63940","67134","68355","68645","71448","72530","78754","82327","83729","108035","104009","102628",""
"MA200-0416","33960","98","1","1.10","1.4","2023-06-01T16:04:35","120","2023/06/01","16:04:35","-15.786518037319183","35.032238494604826","5.6","13","30","64","36","-3265","4511","-25411","2","150","149.35","116.34","33.01","36.98","27.3","15.09","89704","37.13","DUALSPOT-UV-BLUE-GREEN-RED-IR","697918","693916","909978","17.183590","4.678104","-0.001075","693123","878875","765118","12.832822","3.554285","-0.000591","789054","888107","817336","11.244956","3.133524","-0.001697","786748","910129","864725","9.778019","2.753579","-0.003597","667308","832620","954146","8.610313","2.200994","-0.015541","39168","38651","38457","44312","44070","43978","47652","47008","46760","54551","53220","52698","74310","67782","65540",""
