"Serial number","Datum ID","Session ID","Data format version","Firmware version","App version","Date / time local","Timezone offset (mins)","Date local (yyyy/MM/dd)","Time local (hh:mm:ss)","GPS lat (ddmm.mmmmm)","GPS long (dddmm.mmmmm)","GPS speed (km/h)","GPS sat count","Timebase (s)","Status","Battery remaining (%)","Accel X","Accel Y","Accel Z","Tape position","Flow setpoint (mL/min)","Flow total (mL/min)","Flow1 (mL/min)","Flow2 (mL/min)","Sample temp (C)","Sample RH (%)","Sample dewpoint (C)","Internal pressure (Pa)","Internal temp (C)","Optical config","UV Sen1","UV Sen2","UV Ref","UV ATN1","UV ATN2","UV K","Blue Sen1","Blue Sen2","Blue Ref","Blue ATN1","Blue ATN2","Blue K","Green Sen1","Green Sen2","Green Ref","Green ATN1","Green ATN2","Green K","Red Sen1","Red Sen2","Red Ref","Red ATN1","Red ATN2","Red K","IR Sen1","IR Sen2","IR Ref","IR ATN1","IR ATN2","IR K","UV BC1","UV BC2","UV BCc","Blue BC1","Blue BC2","Blue BCc","Green BC1","Green BC2","Green BCc","Red BC1","Red BC2","Red BCc","IR BC1","IR BC2","IR BCc","Readable status"
"MA200-0416","29249","88","1","1.10","1.4","2023-05-28T08:41:00","120","2023/05/28","08:41:00","-15.795747339725494","35.00293399998918","0.1","12","30","66","91","-1020","656","-26212","14","150","149.90","115.24","34.66","26.07","43.5","12.70","90696","27.13","DUALSPOT-UV-BLUE-GREEN-RED-IR","850784","730927","902044","0.000000","0.000000","0.000000","808714","917871","764448","0.000000","0.000000","0.000000","902315","919099","814654","0.000000","0.000000","0.000000","886547","937467","863967","0.000000","0.000000","0.000000","747997","855501","949359","0.000000","0.000000","0.000000","","","","","","","","","","","","","","","","Start up"
"MA200-0416","29250","88","1","1.10","1.4","2023-05-28T08:41:30","120","2023/05/28","08:41:30","-15.795765221118927","35.00295416638255","0.1","12","30","66","91","-2924","-1252","-25888","14","150","150.29","115.16","35.14","26.31","43.6","12.92","90692","27.31","DUALSPOT-UV-BLUE-GREEN-RED-IR","858851","738118","911059","0.000000","0.000000","0.000000","809689","919181","765602","0.000000","0.000000","0.000000","902439","919369","814928","0.000000","0.000000","0.000000","887962","939116","865492","0.000000","0.000000","0.000000","752383","860694","955147","0.000000","0.000000","0.000000","","","","","","","","","","","","","","","","Start up"
"MA200-0416","29251","88","1","1.10","1.4","2023-05-28T08:42:00","120","2023/05/28","08:42:00","-15.795753598213196","35.00294299959205","0.0","12","30","66","91","-2924","-1288","-26168","14","150","149.09","115.75","33.33","26.52","43.3","13.03","90692","27.44","DUALSPOT-UV-BLUE-GREEN-RED-IR","852918","733256","905233","0.000000","0.000000","0.000000","805066","914067","761429","0.000000","0.000000","0.000000","903020","920112","815617","0.000000","0.000000","0.000000","883459","934458","861224","0.000000","0.000000","0.000000","748060","855886","949893","0.000000","0.000000","0.000000","","","","","","","","","","","","","","","","Start up"
"MA200-0416","29252","88","1","1.10","1.4","2023-05-28T08:42:30","120","2023/05/28","08:42:30","-15.795736968517303","35.00294516654685","0.0","12","30","66","91","-2788","-1240","-26324","14","150","149.63","115.04","34.60","26.70","43.1","13.12","90688","27.50","DUALSPOT-UV-BLUE-GREEN-RED-IR","845409","727449","898306","0.000000","0.000000","0.000000","808721","918689","765386","0.000000","0.000000","0.000000","900927","918387","814168","0.000000","0.000000","0.000000","888364","939953","866329","0.000000","0.000000","0.000000","750559","858963","953356","0.000000","0.000000","0.000000","","","","","","","","","","","","","","","","Start up"
"MA200-0416","29253","88","1","1.10","1.4","2023-05-28T08:43:00","120","2023/05/28","08:43:00","-15.795746803283691","35.00297266617417","0.1","12","30","64","91","-2804","-1184","-26240","14","150","149.63","115.08","34.56","26.87","42.9","13.19","90688","27.50","DUALSPOT-UV-BLUE-GREEN-RED-IR","853036","734253","906875","0.000000","0.000000","0.000000","805130","914810","762212","0.000000","0.000000","0.000000","901456","919042","814775","0.000000","0.000000","0.000000","889230","941002","867322","0.000000","0.000000","0.000000","750783","859395","953865","0.000000","0.000000","0.000000","","","","","","","","","","","","","","","",""
"MA200-0416","29254","88","1","1.10","1.4","2023-05-28T08:43:30","120","2023/05/28","08:43:30","-15.795758306980133","35.00296949944459","0.1","12","30","64","90","-2996","-1284","-25975","14","150","149.51","114.48","35.03","27.00","42.5","13.17","90688","27.56","DUALSPOT-UV-BLUE-GREEN-RED-IR","852443","734007","906680","0.045022","0.011337","0.000000","804449","914187","761737","0.023025","0.004577","0.000000","901344","919082","814836","0.017540","0.002235","0.000000","882618","934143","860979","0.012487","-0.002490","0.000000","750093","858778","953207","0.020914","0.001904","0.000000","2309","1901","2309","1491","968","1491","1272","529","1272","1094","-713","1094","2552","759","2552",""
"MA200-0416","29255","88","1","1.10","1.4","2023-05-28T08:44:00","120","2023/05/28","08:44:00","-15.795761108398438","35.002982166130096","0.0","12","30","64","91","-2948","-1336","-26191","14","150","150.11","115.49","34.63","27.12","42.1","13.15","90688","27.63","DUALSPOT-UV-BLUE-GREEN-RED-IR","856520","737693","911336","0.082406","0.021848","0.000000","807643","917977","764926","0.043588","0.009817","0.000000","902829","920699","816288","0.031655","0.002426","0.000000","885805","937640","864159","0.024294","-0.003880","0.000000","751409","860370","955015","0.038091","0.004615","0.000000","1901","1783","1901","1320","1121","1320","1014","45","1014","1025","-402","1025","2077","1093","2077",""
"MA200-0416","29256","88","1","1.10","1.4","2023-05-28T08:44:30","120","2023/05/28","08:44:30","-15.795778274536133","35.00298033305444","0.0","12","30","64","90","-3175","-1579","-26287","14","150","149.63","115.16","34.48","27.23","41.9","13.16","90684","27.63","DUALSPOT-UV-BLUE-GREEN-RED-IR","849646","732582","905400","0.185814","0.049968","0.000000","807670","918712","765712","0.111812","0.025606","0.000000","902608","921072","816740","0.084095","0.013714","0.000000","886654","938949","865486","0.061875","0.002205","0.000000","751365","860624","955362","0.070352","0.011365","0.000000","5274","4790","5274","4391","3395","4391","3780","2718","3780","3274","1771","3274","3913","2735","3913",""
"MA200-0416","29257","88","1","1.10","1.4","2023-05-28T08:45:00","120","2023/05/28","08:45:00","-15.795768141746521","35.00297333300114","0.0","12","30","64","90","-2900","-1364","-26100","14","150","150.09","115.24","34.86","27.32","41.5","13.11","90688","27.63","DUALSPOT-UV-BLUE-GREEN-RED-IR","848991","732658","905765","0.338882","0.091812","0.000000","807148","918655","765839","0.215607","0.054121","0.000000","898973","917784","813950","0.167012","0.034713","0.000000","887984","940727","867199","0.123810","0.015407","0.000000","746831","855670","949940","0.116542","0.022614","0.000000","7801","7050","7801","6677","6064","6677","5973","5001","5973","5392","3799","5392","5599","4507","5599",""
"MA200-0416","29258","88","1","1.10","1.4","2023-05-28T08:45:30","120","2023/05/28","08:45:30","-15.79576861858368","35.002961833262816","0.0","12","30","64","90","-2960","-1260","-26363","14","150","150.05","114.92","35.13","27.42","41.3","13.11","90684","27.69","DUALSPOT-UV-BLUE-GREEN-RED-IR","849558","733711","907348","0.447278","0.121112","0.000000","802502","913896","762050","0.290936","0.071889","0.000000","898991","918260","814489","0.227826","0.046628","0.000000","881662","934427","861492","0.171881","0.023377","0.000000","746895","856056","950453","0.154457","0.031031","0.000000","5540","4898","5540","4859","3749","4859","4393","2815","4393","4196","2275","4196","4609","3346","4609",""
"MA200-0416","29259","88","1","1.10","1.4","2023-05-28T08:46:00","120","2023/05/28","08:46:00","-15.795760691165924","35.00296299974434","0.0","12","30","64","89","-2965","-1438","-26161","14","150","149.86","115.03","34.83","27.52","41.1","13.12","90688","27.69","DUALSPOT-UV-BLUE-GREEN-RED-IR","847488","732595","906244","0.566868","0.153078","0.000000","800811","912608","761099","0.379550","0.093549","0.000000","897177","916949","813464","0.303292","0.064158","0.000000","880143","933280","860514","0.231456","0.035124","0.000000","745331","854533","948915","0.204250","0.043076","0.000000","6106","5390","6106","5710","4610","5710","5446","4178","5446","5196","3383","5196","6047","4831","6047",""
"MA200-0416","29260","88","1","1.10","1.4","2023-05-28T08:46:30","120","2023/05/28","08:46:30","-15.795747458934784","35.00295649957843","0.1","11","30","64","90","-2930","-1307","-25880","14","150","150.23","115.12","35.11","27.63","40.9","13.14","90688","27.75","DUALSPOT-UV-BLUE-GREEN-RED-IR","843320","729637","902875","0.689559","0.186071","0.000000","802635","915276","763522","0.468528","0.115924","0.000000","898156","918444","814935","0.377547","0.080495","0.000000","882886","936631","863686","0.289160","0.044989","0.000000","746613","856322","950991","0.251060","0.056380","0.000000","6260","5519","6260","5730","4724","5730","5355","3863","5355","5029","2818","5029","5680","5293","5680",""
"MA200-0416","29261","88","1","1.10","1.4","2023-05-28T08:47:00","120","2023/05/28","08:47:00","-15.795750975608826","35.00295433308929","0.0","11","30","64","90","-2908","-1180","-26100","14","150","149.83","114.88","34.95","27.74","40.7","13.19","90684","27.75","DUALSPOT-UV-BLUE-GREEN-RED-IR","844461","731195","905075","0.799475","0.215503","0.000000","803752","917112","765162","0.547981","0.134145","0.000000","898929","919742","816157","0.442254","0.092864","0.000000","883023","937178","864246","0.341480","0.052869","0.000000","746631","856592","951408","0.294466","0.067222","0.000000","5619","4945","5619","5127","3864","5127","4676","2937","4676","4569","2261","4569","5278","4333","5278",""
"MA200-0416","29262","88","1","1.10","1.4","2023-05-28T08:47:30","120","2023/05/28","08:47:30","-15.795752942562103","35.002961666556075","0.0","11","30","64","90","-2832","-1200","-26272","14","150","149.89","115.08","34.81","27.88","40.6","13.26","90688","27.81","DUALSPOT-UV-BLUE-GREEN-RED-IR","845049","732122","906412","0.889281","0.240367","0.000000","804206","917997","765994","0.609153","0.147830","0.000000","898960","920130","816555","0.490927","0.100785","0.000000","884723","939235","866186","0.380283","0.058293","0.000000","746629","856793","951740","0.330257","0.077300","0.000000","4583","4195","4583","3940","2914","3940","3511","1889","3511","3382","1563","3382","4344","4044","4344",""
"MA200-0416","29263","88","1","1.10","1.4","2023-05-28T08:48:00","120","2023/05/28","08:48:00","-15.79576963186264","35.002968666143715","0.0","11","30","64","90","-2912","-1416","-26232","14","150","150.17","115.33","34.84","28.03","40.3","13.27","90692","27.94","DUALSPOT-UV-BLUE-GREEN-RED-IR","846079","733392","908154","0.955534","0.258983","0.000000","799875","913364","762192","0.648403","0.154520","0.000000","899630","921066","817427","0.522971","0.104218","0.000000","879859","934346","861662","0.403898","0.056499","0.000000","747000","857415","952474","0.358144","0.084093","0.000000","3374","3138","3374","2522","1423","2522","2306","818","2306","2054","-516","2054","3377","2723","3377",""
"MA200-0416","29264","88","1","1.10","1.4","2023-05-28T08:48:30","120","2023/05/28","08:48:30","-15.795758306980133","35.00297199958004","0.0","12","30","64","90","-2936","-1304","-26232","14","150","149.86","114.80","35.06","28.21","40.0","13.33","90692","28.00","DUALSPOT-UV-BLUE-GREEN-RED-IR","842347","730419","904605","1.007568","0.272798","0.000000","801611","915562","764039","0.678074","0.156761","0.000000","895863","917404","814114","0.544214","0.101423","0.000000","881734","936510","863601","0.418460","0.052249","0.000000","747500","858104","953291","0.381767","0.090846","0.000000","2662","2314","2662","1916","473","1916","1536","-661","1536","1272","-1216","1272","2874","2690","2874",""
"MA200-0416","29265","88","1","1.10","1.4","2023-05-28T08:49:00","120","2023/05/28","08:49:00","-15.795748770236969","35.00296349986456","0.0","12","30","64","89","-2928","-1284","-26236","14","150","150.09","115.08","35.02","28.42","39.6","13.37","90696","28.06","DUALSPOT-UV-BLUE-GREEN-RED-IR","843658","732304","907390","1.106955","0.303394","0.000000","798249","912256","761377","0.721919","0.163358","0.000000","896019","917967","814680","0.574051","0.101775","0.000000","883266","938421","865339","0.439119","0.048077","0.000000","747624","858493","953840","0.409591","0.097376","0.000000","5072","5131","5072","2824","1396","2824","2152","83","2152","1801","-1195","1801","3377","2605","3377",""
"MA200-0416","29266","88","1","1.10","1.4","2023-05-28T08:49:30","120","2023/05/28","08:49:30","-15.795754134654999","35.00295999995433","0.0","12","30","64","89","-2944","-1360","-26328","14","150","150.65","115.36","35.29","28.62","39.2","13.40","90700","28.19","DUALSPOT-UV-BLUE-GREEN-RED-IR","838553","731136","907616","1.629026","0.458076","0.000000","795183","911218","761323","1.053059","0.257146","0.000000","894228","918082","815397","0.830924","0.169176","0.000000","882887","939605","866916","0.633645","0.095373","0.000000","746682","858336","954107","0.550598","0.141223","0.000000","26580","25745","26580","21279","19702","21279","18486","15856","18486","16917","13446","16917","17074","17357","17074",""
"MA200-0416","29267","88","1","1.10","1.4","2023-05-28T08:50:00","120","2023/05/28","08:50:00","-15.795749306678772","35.002970666158944","0.0","13","30","64","89","-2912","-1372","-26275","14","150","150.49","115.08","35.42","28.83","38.9","13.46","90704","28.38","DUALSPOT-UV-BLUE-GREEN-RED-IR","827752","725938","903152","2.589664","0.725244","0.000000","795696","914333","764510","1.478761","0.355697","0.000000","893295","918947","816573","1.127421","0.229996","0.000000","877219","934943","862872","0.844675","0.133461","0.000000","742101","853872","949357","0.689699","0.170974","0.000000","49031","44309","49031","27424","20629","27424","21391","14258","21391","18398","10789","18398","16886","11735","16886",""
"MA200-0416","29268","88","1","1.10","1.4","2023-05-28T08:50:30","120","2023/05/28","08:50:30","-15.795739591121674","35.00296683306806","0.1","13","30","64","89","-3016","-1216","-26060","14","150","149.32","114.41","34.90","29.02","38.5","13.48","90704","28.50","DUALSPOT-UV-BLUE-GREEN-RED-IR","825609","729211","909678","3.530751","0.985027","-0.043063","791690","912038","763126","1.791471","0.423414","0.000000","890323","917496","815581","1.328688","0.265132","0.000000","875249","934056","862198","0.982654","0.149548","0.000000","744210","857059","953055","0.789953","0.188045","0.000000","48312","43714","41935","20261","14382","20261","14604","8357","14604","12099","4624","12099","12240","6831","12240",""
"MA200-0416","29269","88","1","1.10","1.4","2023-05-28T08:51:00","120","2023/05/28","08:51:00","-15.79574429988861","35.00297033297829","0.0","13","30","64","89","-3004","-1340","-25903","14","150","149.34","114.50","34.84","29.19","38.2","13.48","90704","28.69","DUALSPOT-UV-BLUE-GREEN-RED-IR","820288","725041","904740","3.658292","1.020587","-0.035822","794158","915388","766030","1.859653","0.435144","0.000000","892019","919634","817547","1.376330","0.268840","0.000000","879429","938815","866582","1.016551","0.146943","0.000000","745804","859159","955447","0.827098","0.193495","0.000000","6542","5995","5784","4414","2496","4414","3454","883","3454","2970","-750","2970","4531","2185","4531",""
"MA200-0416","29270","88","1","1.10","1.4","2023-05-28T08:51:30","120","2023/05/28","08:51:30","-15.795754313468933","35.0029656663537","0.0","13","30","64","89","-2912","-1296","-26060","14","150","149.50","114.88","34.62","29.36","37.8","13.50","90704","28.81","DUALSPOT-UV-BLUE-GREEN-RED-IR","823934","728960","909991","3.806321","1.061697","-0.032102","792259","913779","764805","1.950311","0.455850","0.000000","888703","916688","814970","1.444786","0.279527","0.000000","875077","934540","862665","1.063442","0.150352","0.000000","742352","855448","951377","0.869419","0.201144","0.000000","7568","6974","6744","5850","4433","5850","4947","2562","4947","4095","988","4095","5146","3086","5146",""
"MA200-0416","29271","88","1","1.10","1.4","2023-05-28T08:52:00","120","2023/05/28","08:52:00","-15.79575264453888","35.002963666571304","0.1","13","30","64","89","-2956","-1296","-26284","14","150","150.06","115.08","34.98","29.50","37.5","13.50","90696","28.94","DUALSPOT-UV-BLUE-GREEN-RED-IR","818034","724682","905060","3.957482","1.103771","-0.033442","788789","910387","762143","2.027535","0.472761","0.000000","890165","918658","816797","1.497250","0.287520","0.000000","872910","932571","860878","1.098990","0.152081","0.000000","743689","857265","953466","0.904319","0.205904","0.000000","7714","7064","6813","4974","3583","4974","3784","1897","3784","3099","495","3099","4236","1900","4236",""
"MA200-0416","29272","88","1","1.10","1.4","2023-05-28T08:52:30","120","2023/05/28","08:52:30","-15.795760810375214","35.00296316645108","0.1","13","30","64","89","-2828","-1232","-26140","14","150","149.43","114.84","34.59","29.63","37.4","13.56","90700","29.13","DUALSPOT-UV-BLUE-GREEN-RED-IR","811647","724851","908298","4.754128","1.334289","-0.012170","784468","910648","764010","2.568924","0.617975","0.000000","880610","913170","813306","1.928883","0.400578","0.000000","869860","932919","862301","1.434254","0.233978","0.000000","741780","857335","954382","1.135475","0.261049","0.000000","40745","39142","38516","34948","31121","34948","31204","27135","31204","29289","23753","29289","28118","22270","28118",""
"MA200-0416","29273","88","1","1.10","1.4","2023-05-28T08:53:00","120","2023/05/28","08:53:00","-15.795751929283142","35.0029669997748","0.0","12","30","64","89","-2940","-1292","-26163","14","150","150.03","115.00","35.03","29.74","37.2","13.56","90692","29.25","DUALSPOT-UV-BLUE-GREEN-RED-IR","805610","722013","906056","5.451807","1.536108","-0.013851","781804","909419","763483","3.042817","0.744110","-0.065955","881928","916016","816263","2.328634","0.502514","0.000000","868904","933120","862777","1.756942","0.311875","0.000000","739549","855528","952621","1.355938","0.314192","0.000000","35634","33837","33132","30549","26692","25443","28860","24158","28860","28152","22308","28152","26781","21191","26781",""
"MA200-0416","29274","88","1","1.10","1.4","2023-05-28T08:53:30","120","2023/05/28","08:53:30","-15.795738458633423","35.002966499654576","0.1","12","30","64","89","-2840","-1268","-26416","14","150","150.23","115.19","35.05","29.80","36.9","13.51","90696","29.31","DUALSPOT-UV-BLUE-GREEN-RED-IR","802900","722704","908650","6.094191","1.731502","-0.000081","781842","910920","765192","3.280007","0.803470","-0.093708","877043","912026","812972","2.493089","0.537234","0.000000","869046","934157","863965","1.884269","0.336426","0.000000","739531","856182","953471","1.453361","0.332310","0.000000","32756","32745","32740","15265","12555","11676","11853","8224","11853","11090","7027","11090","11815","7221","11815",""
"MA200-0416","29275","88","1","1.10","1.4","2023-05-28T08:54:00","120","2023/05/28","08:54:00","-15.795734167098999","35.002970832865685","0.0","12","30","64","89","-2956","-1428","-26024","14","150","149.96","115.08","34.89","29.87","36.7","13.48","90700","29.44","DUALSPOT-UV-BLUE-GREEN-RED-IR","769872","712325","906711","10.176008","2.992874","0.002621","755708","901114","764147","6.526727","1.742952","-0.010141","855479","907964","815903","5.312711","1.332956","-0.019128","848123","927505","863388","4.229636","0.977337","-0.034776","725673","850393","951232","3.092054","0.767986","-0.063283","208340","212370","214049","209156","199639","196172","203425","189368","184659","204477","184316","178258","198927","174458","166372",""
"MA200-0416","29276","88","1","1.10","1.4","2023-05-28T08:54:30","120","2023/05/28","08:54:30","-15.795736312866211","35.002975166309625","0.0","13","30","64","89","-2828","-1276","-26336","14","150","150.56","114.84","35.73","29.93","36.5","13.45","90700","29.50","DUALSPOT-UV-BLUE-GREEN-RED-IR","764046","708053","901989","10.466854","3.089178","0.007993","751223","897252","761370","6.802571","1.823700","-0.012899","856300","910173","818352","5.559653","1.403289","-0.022913","850054","930808","866863","4.441260","1.032794","-0.058213","726419","852102","953441","3.246770","0.807540","-0.095776","14876","15833","16234","17807","16755","16370","17853","16345","15835","18488","15573","14690","18820","15467","14356",""
"MA200-0416","29277","88","1","1.10","1.4","2023-05-28T08:55:00","120","2023/05/28","08:55:00","-15.795736014842987","35.00297166639939","0.0","14","30","64","89","-2936","-1248","-26191","14","150","149.51","114.92","34.59","30.02","36.4","13.50","90704","29.63","DUALSPOT-UV-BLUE-GREEN-RED-IR","766137","710736","905921","10.631001","3.143009","0.010612","753355","900611","764507","6.939902","1.862180","-0.015015","851511","905809","814643","5.677253","1.433545","-0.042477","844915","925846","862392","4.536903","1.055104","-0.091428","727066","853281","954899","3.314811","0.824200","-0.099615","8389","9141","9456","8859","8247","8023","8496","7262","6845","8350","6471","5901","8271","6728","6217",""
"MA200-0416","29278","88","1","1.10","1.4","2023-05-28T08:55:30","120","2023/05/28","08:55:30","-15.795727670192719","35.0029621666763","0.0","14","30","64","89","-2960","-1296","-26184","14","150","149.87","115.13","34.74","30.09","36.2","13.47","90704","29.69","DUALSPOT-UV-BLUE-GREEN-RED-IR","767740","712498","908267","10.694757","3.164447","0.013061","754855","902760","766444","7.002192","1.880323","-0.007132","852369","907059","815876","5.729925","1.447230","-0.039866","847430","928862","865273","4.578363","1.063716","-0.149223","727948","854487","956354","3.347206","0.831258","-0.175307","3252","3624","3780","4011","3871","3820","3798","3270","3092","3613","2487","2146","3930","2838","2477",""
"MA200-0416","29279","88","1","1.10","1.4","2023-05-28T08:56:00","120","2023/05/28","08:56:00","-15.795721292495728","35.00295466626994","0.0","14","30","64","89","-2884","-1372","-26363","14","150","149.90","115.24","34.66","30.17","36.0","13.46","90696","29.81","DUALSPOT-UV-BLUE-GREEN-RED-IR","757726","706448","902546","11.344772","3.374460","0.008415","748274","897809","763338","7.450549","2.016502","0.001777","847191","903940","813971","6.095057","1.553958","-0.006456","840536","923316","860843","4.870116","1.143682","-0.026944","723926","851014","952976","3.540004","0.884173","-0.037314","33131","35588","36628","28843","29126","29230","26306","25564","25310","25400","23146","22454","23372","21326","20645",""
"MA200-0416","29280","88","1","1.10","1.4","2023-05-28T08:56:30","120","2023/05/28","08:56:30","-15.79571133852005","35.002964166458696","0.0","14","30","64","88","-2953","-1219","-26780","14","150","150.49","114.84","35.65","30.22","35.8","13.40","90692","29.94","DUALSPOT-UV-BLUE-GREEN-RED-IR","756213","707984","906375","11.647060","3.474197","0.007043","746827","899133","765626","7.690144","2.089870","-0.002494","845047","904234","815243","6.289524","1.610052","-0.016758","840573","925509","863695","5.025364","1.186282","-0.035696","723561","852042","954690","3.651449","0.911488","-0.106819","15461","16430","16842","15467","15255","15175","14059","13061","12718","13563","11987","11500","13556","10702","9752",""
"MA200-0416","29281","88","1","1.10","1.4","2023-05-28T08:57:00","120","2023/05/28","08:57:00","-15.795715630054474","35.00296816625632","0.0","14","30","64","88","-2772","-1224","-26136","14","150","149.76","114.66","35.11","30.27","35.6","13.37","90688","30.00","DUALSPOT-UV-BLUE-GREEN-RED-IR","738487","699354","900548","13.698446","4.162965","0.008898","733286","891683","762862","9.409899","2.638721","0.005909","835609","902195","816690","7.794130","2.078980","0.003062","834079","925378","866378","6.275786","1.563495","-0.003184","719471","851779","956547","4.526687","1.166818","-0.014998","105086","115240","119673","111191","115902","117738","108947","110899","111610","109413","107803","107269","106635","101603","99856",""
"MA200-0416","29282","88","1","1.10","1.4","2023-05-28T08:57:30","120","2023/05/28","08:57:30","-15.795716106891632","35.002972832880914","0.1","14","30","64","88","-2904","-1340","-26572","14","150","149.70","114.16","35.54","30.30","35.3","13.27","90684","30.06","DUALSPOT-UV-BLUE-GREEN-RED-IR","723351","695884","903682","16.106358","5.003526","0.009299","720192","888061","765048","11.491418","3.328819","0.007302","817114","893198","813383","9.620184","2.668696","0.005124","815646","914501","860296","7.799497","2.038747","0.000346","708215","844811","951795","5.599661","1.488156","-0.009721","123887","138931","145711","135167","143962","147548","132798","137774","139684","133907","134174","134269","131296","126319","124518",""
"MA200-0416","29283","88","1","1.10","1.4","2023-05-28T08:58:00","120","2023/05/28","08:58:00","-15.795713603496552","35.00295849982649","0.1","14","30","64","88","-2800","-1324","-26775","14","150","149.83","114.72","35.11","30.33","35.1","13.20","90688","30.13","DUALSPOT-UV-BLUE-GREEN-RED-IR","724137","697458","906348","16.272400","5.063154","0.012352","715594","883351","761438","11.644094","3.380251","0.010666","817101","894089","814534","9.758931","2.713370","0.006882","817555","917393","863367","7.917989","2.073658","-0.006743","708637","845860","953183","5.687681","1.511581","-0.037999","8501","9974","10640","9866","10859","11265","10041","10563","10764","10362","9975","9837","10718","9319","8813",""
"MA200-0416","29284","88","1","1.10","1.4","2023-05-28T08:58:30","120","2023/05/28","08:58:30","-15.795723617076874","35.00295999995433","0.1","14","30","64","88","-2976","-1376","-25636","14","150","149.51","114.80","34.71","30.34","35.0","13.17","90692","30.19","DUALSPOT-UV-BLUE-GREEN-RED-IR","723643","698079","907922","16.553143","5.161251","0.011147","715804","884754","763064","11.863208","3.448671","0.003727","817007","894988","815712","9.946364","2.768278","-0.004523","818574","919429","865575","8.074064","2.117121","-0.014834","709185","847082","954808","5.796501","1.540492","-0.034132","14364","16600","17614","14149","14614","14804","13555","13134","12971","13640","12563","12181","13242","11636","11054",""
"MA200-0416","29285","88","1","1.10","1.4","2023-05-28T08:59:00","120","2023/05/28","08:59:00","-15.795735657215118","35.00296483305283","0.0","14","30","64","88","-2760","-1488","-25888","14","150","149.96","114.68","35.28","30.36","35.0","13.18","90684","30.19","DUALSPOT-UV-BLUE-GREEN-RED-IR","718660","693571","902261","16.620653","5.188053","0.017858","717207","886770","764897","11.910641","3.464031","0.005786","817510","895806","816589","9.987921","2.780777","-0.003216","819513","920714","866825","8.106538","2.124035","-0.088361","709962","848163","956063","5.819917","1.545126","-0.162217","3457","4461","4917","3066","3227","3293","3008","2940","2914","2841","1965","1655","2852","1835","1467",""
"MA200-0416","29286","88","1","1.10","1.4","2023-05-28T08:59:30","120","2023/05/28","08:59:30","-15.795717477798462","35.00295999995433","0.0","14","30","64","88","-2858","-1454","-25804","14","150","149.63","114.48","35.15","30.36","35.0","13.17","90692","30.19","DUALSPOT-UV-BLUE-GREEN-RED-IR","715601","693132","903570","16.918028","5.295774","0.012256","715187","886650","765818","12.108645","3.530235","0.009206","815199","895225","816884","10.139820","2.829355","0.005368","811277","913061","860272","8.220106","2.156431","-0.012962","708844","847834","956149","5.894409","1.565136","-0.034857","15257","17999","19248","12822","13961","14430","11016","11473","11650","9952","9245","8994","9089","7952","7540",""
"MA200-0416","29287","88","1","1.10","1.4","2023-05-28T09:00:00","120","2023/05/28","09:00:00","-15.795714437961578","35.002955166390166","0.0","14","30","64","88","-2800","-1316","-26280","14","150","150.17","114.92","35.26","30.37","34.9","13.16","90696","30.25","DUALSPOT-UV-BLUE-GREEN-RED-IR","711271","691987","904418","17.873968","5.643966","0.012013","708008","880439","761672","12.767179","3.749454","0.008407","813037","895169","817839","10.679890","3.000301","0.003941","811146","914807","862705","8.649337","2.288097","-0.000042","704157","843404","951686","6.176771","1.646254","-0.015402","48860","58002","62220","42482","46090","47590","39018","40251","40732","37474","37464","37460","34325","32137","31343",""
"MA200-0416","29288","88","1","1.10","1.4","2023-05-28T09:00:30","120","2023/05/28","09:00:30","-15.795722305774689","35.0029558329843","0.0","14","30","64","88","-2816","-1204","-26940","14","150","149.86","114.50","35.36","30.38","34.8","13.11","90696","30.25","DUALSPOT-UV-BLUE-GREEN-RED-IR","712081","693654","907288","18.098406","5.728496","0.013430","708516","881855","763225","12.909039","3.798532","0.011271","809290","891638","814883","10.792266","3.037351","0.007959","811401","915569","863643","8.732446","2.312720","-0.006718","704818","844451","952994","6.228605","1.660526","-0.027878","11513","14040","15210","9185","10288","10748","8148","8698","8914","7282","6985","6878","6324","5637","5388",""
"MA200-0416","29289","88","1","1.10","1.4","2023-05-28T09:01:00","120","2023/05/28","09:01:00","-15.79571783542633","35.00295649957843","0.0","14","30","64","87","-2808","-1348","-26268","14","150","150.49","114.88","35.61","30.38","34.8","13.11","90696","30.25","DUALSPOT-UV-BLUE-GREEN-RED-IR","709133","691703","905367","18.255224","5.783273","0.008571","706457","880077","761966","13.013986","3.829212","-0.006760","807153","889908","813489","10.873555","3.059983","-0.015208","809792","914301","862579","8.794344","2.326930","-0.062004","703368","843081","951508","6.268198","1.669138","-0.109363","8018","9034","9505","6772","6385","6224","5874","5275","5041","5405","4003","3498","4814","3377","2856",""
"MA200-0416","29290","88","1","1.10","1.4","2023-05-28T09:01:30","120","2023/05/28","09:01:30","-15.795722782611847","35.002959499834105","0.0","14","30","64","87","-2800","-1344","-26400","14","150","150.03","114.20","35.83","30.39","34.9","13.17","90696","30.31","DUALSPOT-UV-BLUE-GREEN-RED-IR","704548","687690","900384","18.394928","5.828785","0.002894","708407","882945","764601","13.104556","3.855312","-0.009946","808688","891992","815535","10.947097","3.079658","-0.023531","811905","917012","865221","8.851109","2.340406","-0.055814","704412","844486","953179","6.305307","1.678313","-0.064380","7185","7461","7589","5879","5400","5201","5346","4559","4251","4986","3773","3337","4539","3577","3228",""
"MA200-0416","29291","88","1","1.10","1.4","2023-05-28T09:02:00","120","2023/05/28","09:02:00","-15.795710802078247","35.002959666308016","0.0","14","30","64","88","-2936","-1372","-26124","14","150","149.94","114.38","35.56","30.40","35.0","13.22","90696","30.31","DUALSPOT-UV-BLUE-GREEN-RED-IR","710491","693955","908923","18.507068","5.867105","0.006849","708016","882866","764672","13.174773","3.875822","-0.007117","808524","892182","815821","11.003612","3.094350","-0.026824","812801","918293","866520","8.892338","2.348971","-0.092354","705148","845571","954450","6.330684","1.683128","-0.178725","5758","6329","6594","4551","4275","4160","4102","3430","3167","3616","2416","1985","3099","1891","1454",""
"MA200-0416","29292","88","1","1.10","1.4","2023-05-28T09:02:30","120","2023/05/28","09:02:30","-15.795703828334808","35.00295433308929","0.1","14","30","64","88","-2838","-1269","-26880","14","150","150.58","114.82","35.76","30.41","35.1","13.27","90700","30.31","DUALSPOT-UV-BLUE-GREEN-RED-IR","704420","688222","901517","18.549970","5.882021","0.007847","708668","883933","765687","13.209721","3.885799","-0.010126","808558","892390","816100","11.033145","3.102242","-0.022308","805554","910285","858998","8.915992","2.355194","-0.029995","704913","845381","954294","6.348692","1.688041","-0.031977","2194","2449","2568","2256","2068","1990","2135","1832","1713","2066","1745","1630","2190","1919","1821",""
"MA200-0416","29293","88","1","1.10","1.4","2023-05-28T09:03:00","120","2023/05/28","09:03:00","-15.795708656311035","35.00295899971388","0.0","14","30","64","88","-2748","-1132","-27556","14","150","150.36","114.88","35.48","30.42","35.1","13.29","90700","30.38","DUALSPOT-UV-BLUE-GREEN-RED-IR","704331","689235","903547","18.770798","5.953394","0.003392","704350","879330","761941","13.329372","3.917469","-0.019066","808223","892671","816526","11.124673","3.123253","-0.049906","805850","911178","860002","8.988218","2.369451","-0.106932","704998","845841","954906","6.396005","1.696962","-0.176483","11290","11814","12058","7721","6616","6156","6614","4916","4253","6307","4031","3216","5753","3512","2702",""
"MA200-0416","29294","88","1","1.10","1.4","2023-05-28T09:03:30","120","2023/05/28","09:03:30","-15.795697331428528","35.00296949944459","0.0","14","30","64","88","-2592","-1116","-26960","14","150","149.90","114.64","35.26","30.45","35.2","13.34","0","0.00","DUALSPOT-UV-BLUE-GREEN-RED-IR","703657","689005","903574","18.857252","5.983230","0.008047","703942","879244","761999","13.385220","3.932905","-0.012502","808091","892910","816831","11.170831","3.133911","-0.047457","806297","911950","860789","9.025062","2.377373","-0.076529","705009","846038","955170","6.423372","1.703112","-0.090044","4429","4970","5221","3611","3245","3093","3342","2509","2184","3224","2254","1907","3334","2436","2112",""
"MA200-0416","29295","88","1","1.10","1.4","2023-05-28T09:04:00","120","2023/05/28","09:04:00","-15.795696496963501","35.00297633279115","0.0","14","30","64","88","-2908","-1408","-26563","14","150","149.73","114.59","35.14","30.48","35.3","13.40","0","0.00","DUALSPOT-UV-BLUE-GREEN-RED-IR","699681","687932","904501","19.493794","6.227495","0.013829","701713","878683","762567","13.757590","4.061561","0.011062","801758","887636","812810","11.447509","3.224307","0.007275","805317","912224","861587","9.227952","2.437752","-0.004556","704390","846093","955589","6.545183","1.735971","-0.029963","32628","40824","44671","24091","27139","28415","20046","21355","21868","17764","17237","17047","14850","13061","12415",""
"MA200-0416","29296","88","1","1.10","1.4","2023-05-28T09:04:30","120","2023/05/28","09:04:30","-15.795706510543823","35.00297816609964","0.0","14","30","64","87","-2856","-1344","-26336","14","150","150.05","114.69","35.36","30.49","35.0","13.32","90700","30.38","DUALSPOT-UV-BLUE-GREEN-RED-IR","700913","689368","906631","19.612766","6.277727","0.017948","702681","880137","763961","13.835837","4.091806","0.019135","806939","893580","818381","11.512455","3.247094","0.013999","805995","913170","862589","9.277169","2.453310","0.003562","700617","841684","950641","6.580339","1.745785","-0.022460","6093","8343","9403","5057","6340","6879","4701","5350","5604","4305","4413","4452","4282","3877","3730",""
"MA200-0416","29297","88","1","1.10","1.4","2023-05-28T09:05:00","120","2023/05/28","09:05:00","-15.795705676078796","35.00297699961811","0.0","14","30","64","87","-2932","-1360","-25536","14","150","149.76","114.44","35.32","30.53","34.7","13.22","90700","30.44","DUALSPOT-UV-BLUE-GREEN-RED-IR","696355","686891","905110","19.953482","6.413494","0.015040","699522","877878","762814","14.051202","4.169298","0.013571","799690","886913","812861","11.674643","3.301960","0.010108","803366","911240","861215","9.396303","2.490997","0.003484","698450","839664","948699","6.656360","1.769108","-0.001252","17487","22574","24984","13951","16262","17238","11766","12895","13340","10444","10704","10797","9279","9223","9203",""
"MA200-0416","29298","88","1","1.10","1.4","2023-05-28T09:05:30","120","2023/05/28","09:05:30","-15.795711517333984","35.0029746661894","0.0","14","30","64","86","-2964","-1252","-25984","14","150","150.03","114.52","35.51","30.60","34.6","13.20","90700","30.44","DUALSPOT-UV-BLUE-GREEN-RED-IR","697834","689244","908987","20.296170","6.548702","0.014134","700497","880006","765049","14.277145","4.246391","0.008759","800635","888679","814790","11.851686","3.357643","0.001655","806747","915708","865662","9.531500","2.529663","-0.012399","700374","842390","951953","6.743452","1.796140","0.000205","17576","22364","24646","14626","16094","16716","12835","13019","13091","11844","10924","10592","10623","10634","10638",""
"MA200-0416","29299","88","1","1.10","1.4","2023-05-28T09:06:00","120","2023/05/28","09:06:00","-15.795720994472504","35.0029788329266","0.0","14","30","64","87","-2676","-1244","-26768","14","150","149.86","114.61","35.25","30.72","34.4","13.24","90704","30.50","DUALSPOT-UV-BLUE-GREEN-RED-IR","691784","683602","901762","20.377632","6.579660","0.012671","697073","875982","761706","14.336442","4.264868","0.001289","800701","889078","815215","11.902329","3.370290","-0.029862","806833","916035","866014","9.570004","2.536058","-0.174718","700140","842254","951902","6.774626","1.806570","0.015789","4174","5158","5627","3835","3886","3907","3668","2979","2706","3370","1820","1261","3799","4133","4254",""
"MA200-0416","29300","88","1","1.10","1.4","2023-05-28T09:06:30","120","2023/05/28","09:06:30","-15.795731127262115","35.002979832934216","0.0","14","30","64","87","-2932","-1528","-26260","14","150","150.24","114.50","35.74","30.84","34.3","13.29","90700","30.56","DUALSPOT-UV-BLUE-GREEN-RED-IR","691169","684071","903236","20.611020","6.665460","0.010092","696468","876244","762277","14.481983","4.306442","-0.009495","800454","889601","815974","12.011665","3.398048","-0.029309","800655","909658","860165","9.653204","2.555489","-0.053964","700504","843090","953030","6.834442","1.824178","-0.012328","11972","14100","15116","9423","8622","8284","7928","6447","5863","7290","5454","4793","7298","6882","6730",""
"MA200-0416","29301","88","1","1.10","1.4","2023-05-28T09:07:00","120","2023/05/28","09:07:00","-15.795736312866211","35.002977166324854","0.0","14","30","64","87","-2836","-1388","-26028","14","150","149.45","114.12","35.32","31.00","34.1","13.33","90712","30.63","DUALSPOT-UV-BLUE-GREEN-RED-IR","687996","684016","905737","21.245428","6.909700","0.012492","694708","876646","763878","14.884908","4.447771","0.010724","795126","885774","813410","12.318394","3.497904","0.005473","800973","911726","862785","9.879241","2.622515","-0.006142","700427","843988","954517","6.980121","1.866781","-0.011678","32651","40611","44448","26173","29660","31145","22314","23469","23927","19871","19036","18734","17832","16847","16488",""
"MA200-0416","29302","88","1","1.10","1.4","2023-05-28T09:07:30","120","2023/05/28","09:07:30","-15.795730173587799","35.00296783307567","0.0","14","30","64","86","-2828","-1280","-26668","14","150","149.60","114.47","35.12","31.14","33.7","13.28","90708","30.75","DUALSPOT-UV-BLUE-GREEN-RED-IR","683457","680020","900997","21.500268","7.014499","0.015609","690948","872425","760417","15.052894","4.506231","0.010682","795160","886313","814089","12.452553","3.539061","-0.000016","801820","913027","864108","9.974630","2.647346","-0.026062","700744","844652","955399","7.055614","1.889688","-0.002167","13075","17525","19680","10878","12339","12963","9730","9728","9728","8360","7093","6635","9212","9111","9073",""
"MA200-0416","29303","88","1","1.10","1.4","2023-05-28T09:08:00","120","2023/05/28","09:08:00","-15.795741260051727","35.002966332947835","0.0","14","30","64","86","-3191","-1462","-26270","14","150","149.33","114.04","35.28","31.27","33.4","13.25","90712","30.81","DUALSPOT-UV-BLUE-GREEN-RED-IR","685412","682228","904083","21.574350","7.042612","0.011664","692356","874488","762300","15.103594","4.518778","-0.026471","796174","887691","815373","12.489865","3.544288","-0.259228","804312","916136","867003","10.002960","2.645838","0.268390","696689","839975","950183","7.092775","1.899585","-0.033089","3815","4679","5098","3295","2636","2354","2716","1229","640","2492","-428","-1479","4552","3918","3686",""
"MA200-0416","29304","88","1","1.10","1.4","2023-05-28T09:08:30","120","2023/05/28","09:08:30","-15.795731782913208","35.00296016666107","0.0","14","30","64","86","-2876","-1348","-26060","14","150","150.09","114.64","35.46","31.44","33.0","13.24","90716","30.94","DUALSPOT-UV-BLUE-GREEN-RED-IR","683385","681756","904779","21.813378","7.135765","0.012779","691111","874444","762921","15.272658","4.575348","0.006854","794248","886757","815024","12.621408","3.583955","-0.002865","796574","908284","859978","10.099924","2.671331","-0.025349","695530","839248","949654","7.171024","1.920261","-0.034634","12246","15431","16980","10932","11828","12211","9526","9288","9193","8485","7213","6756","9535","8146","7638",""
"MA200-0416","29305","88","1","1.10","1.4","2023-05-28T09:09:00","120","2023/05/28","09:09:00","-15.79570996761322","35.002954832976684","0.1","14","30","64","86","-2812","-1412","-26196","14","150","149.92","114.50","35.43","31.54","32.7","13.16","90720","31.06","DUALSPOT-UV-BLUE-GREEN-RED-IR","680606","679680","902634","22.116112","7.252180","0.012003","688844","872217","761297","15.480879","4.646999","0.008924","792199","885087","813688","12.788282","3.636175","0.001226","800684","913467","865023","10.226609","2.706307","-0.016774","697881","842520","953488","7.266870","1.946551","-0.025238","15530","19301","21142","13481","14994","15642","12100","12238","12293","11100","9905","9475","11694","10367","9881",""
"MA200-0416","29306","88","1","1.10","1.4","2023-05-28T09:09:30","120","2023/05/28","09:09:30","-15.795715153217316","35.00295866653323","0.1","14","30","64","86","-2808","-1244","-26356","14","150","149.96","114.32","35.64","31.60","32.4","13.09","90716","31.19","DUALSPOT-UV-BLUE-GREEN-RED-IR","682217","681518","905245","22.165024","7.270803","0.011175","690017","873941","762878","15.515666","4.656315","-0.016260","793636","886884","815482","12.818335","3.642451","-0.066778","796945","909386","861156","10.248481","2.706254","0.361613","699342","844503","955790","7.298994","1.951382","-0.329760","2513","3069","3340","2255","1937","1801","2182","1461","1175","1919","-15","-709","3925","1893","1152",""
"MA200-0416","29307","88","1","1.10","1.4","2023-05-28T09:10:00","120","2023/05/28","09:10:00","-15.795699656009674","35.00297216628678","0.0","14","30","64","86","-2916","-1300","-26512","14","150","149.51","114.36","35.15","31.68","32.2","13.04","90720","31.25","DUALSPOT-UV-BLUE-GREEN-RED-IR","685267","684825","909785","22.217326","7.290212","0.010622","692378","877210","765819","15.554750","4.665722","-0.028863","795108","888802","817261","12.850100","3.647393","-0.172775","799088","912098","863741","10.272147","2.706439","0.398571","696412","841123","952041","7.327276","1.957061","-0.122452","2686","3243","3515","2533","1984","1748","2306","1167","716","2076","52","-671","3454","2257","1820",""
"MA200-0416","29308","88","1","1.10","1.4","2023-05-28T09:10:30","120","2023/05/28","09:10:30","-15.79570198059082","35.00298483297229","0.0","14","30","64","86","-2956","-1404","-26024","14","150","149.90","114.96","34.94","31.84","31.9","13.07","90712","31.38","DUALSPOT-UV-BLUE-GREEN-RED-IR","680292","680050","903643","22.268458","7.309919","0.012809","688195","872149","761469","15.593625","4.676151","-0.012896","791788","885325","814099","12.882560","3.654670","-0.044862","802042","915664","867139","10.295587","2.709043","-0.601432","697127","842120","953199","7.347746","1.962176","-0.043625","2612","3312","3655","2506","2213","2087","2344","1729","1485","2045","747","284","2487","2044","1883",""
"MA200-0416","29309","88","1","1.10","1.4","2023-05-28T09:11:00","120","2023/05/28","09:11:00","-15.795728504657745","35.002966332947835","0.0","14","30","64","86","-2904","-1424","-26216","14","150","150.32","114.47","35.85","32.04","31.7","13.14","90708","31.50","DUALSPOT-UV-BLUE-GREEN-RED-IR","682358","682371","906963","22.328814","7.330911","0.006320","689820","874525","763646","15.640631","4.689455","-0.010214","792890","886822","815546","12.922462","3.663479","-0.054218","797095","910276","862072","10.327528","2.712965","-0.455303","698075","843456","954793","7.375362","1.970623","-0.004503","3097","3438","3605","3044","2750","2624","2894","2039","1701","2799","1097","490","3370","3290","3262",""
"MA200-0416","29310","88","1","1.10","1.4","2023-05-28T09:11:30","120","2023/05/28","09:11:30","-15.795722305774689","35.00295799970627","0.1","14","30","64","86","-2864","-1340","-26319","14","150","149.61","114.38","35.22","32.29","31.5","13.26","90712","31.63","DUALSPOT-UV-BLUE-GREEN-RED-IR","678412","678655","902144","22.377278","7.350334","0.013845","687390","871692","761223","15.678232","4.698402","-0.030661","793796","888127","816795","12.953903","3.667580","-0.316923","799593","913327","864963","10.350374","2.713388","0.449581","698807","844504","956044","7.398515","1.976316","-0.051242","2488","3238","3605","2437","1882","1645","2282","966","447","2003","120","-548","2827","2258","2050",""
"MA200-0416","29311","88","1","1.10","1.4","2023-05-28T09:12:00","120","2023/05/28","09:12:00","-15.79574066400528","35.00295566651039","0.0","14","30","64","86","-2880","-1420","-26063","14","150","149.73","114.57","35.16","32.57","31.4","13.43","90716","31.81","DUALSPOT-UV-BLUE-GREEN-RED-IR","682407","682938","908049","22.440224","7.370632","0.003135","689495","874709","763966","15.728580","4.709154","-0.048747","792764","887258","816062","12.995416","3.672224","-0.596918","796711","910324","862160","10.382991","2.715952","12.991132","696779","842255","953605","7.433731","1.985252","-0.041596","3226","3390","3471","3257","2267","1843","3008","1096","343","2856","731","-21","4293","3550","3279",""
"MA200-0416","29312","88","1","1.10","1.4","2023-05-28T09:12:30","120","2023/05/28","09:12:30","-15.79574167728424","35.00295633310452","0.0","14","30","64","86","-2888","-1396","-26132","14","150","149.51","115.55","33.95","32.90","31.2","13.65","90716","32.06","DUALSPOT-UV-BLUE-GREEN-RED-IR","677211","678298","902347","22.556312","7.416002","0.014616","685430","870214","760278","15.822383","4.736036","-0.002305","788767","883388","812670","13.075042","3.691500","-0.024864","798542","912931","864732","10.445506","2.726066","-0.148505","696407","842197","953698","7.493911","2.001960","-0.010846","5900","7848","8803","6017","5869","5806","5720","4713","4317","5427","2988","2127","7275","6874","6728",""
"MA200-0416","29313","88","1","1.10","1.4","2023-05-28T09:13:00","120","2023/05/28","09:13:00","-15.795752763748169","35.002959833014756","0.0","14","30","64","86","-2912","-1468","-26012","14","150","150.29","115.20","35.10","33.21","31.0","13.82","90712","32.31","DUALSPOT-UV-BLUE-GREEN-RED-IR","676751","678350","902807","22.682092","7.460256","0.008263","685369","870760","760939","15.921450","4.763609","-0.008844","791605","887149","816253","13.159143","3.709382","-0.055203","797239","911979","863880","10.512258","2.734625","-0.342805","694615","840471","951941","7.563946","2.020308","-0.031253","6413","7406","7892","6375","5823","5588","6061","4229","3510","5813","2446","1262","8492","7302","6869",""
"MA200-0416","29314","88","1","1.10","1.4","2023-05-28T09:13:30","120","2023/05/28","09:13:30","-15.795751929283142","35.0029426664114","0.0","14","30","64","86","-2808","-1396","-26303","14","150","149.92","115.07","34.85","33.52","30.8","13.98","0","0.00","DUALSPOT-UV-BLUE-GREEN-RED-IR","675303","677329","901700","22.787690","7.496225","0.006869","689099","875973","765611","16.002865","4.781633","-0.038917","791117","887047","816206","13.227867","3.718304","-0.292794","795871","910827","862789","10.565576","2.735818","0.473524","696982","843756","955774","7.630628","2.035525","-0.066424","5390","6061","6390","5245","3833","3232","4958","2125","1017","4648","343","-1161","8095","6098","5372",""
"MA200-0416","29315","88","1","1.10","1.4","2023-05-28T09:14:00","120","2023/05/28","09:14:00","-15.795747339725494","35.002948832931","0.1","14","30","64","85","-2928","-1404","-26103","14","150","149.96","114.84","35.12","33.86","30.7","14.21","0","0.00","DUALSPOT-UV-BLUE-GREEN-RED-IR","678561","680854","906550","22.843918","7.512665","-0.003081","686442","872937","762990","16.042141","4.784036","0.507612","789193","885222","814508","13.261103","3.715104","0.166642","792353","907111","859159","10.589808","2.726334","0.140055","693523","839874","951450","7.676885","2.043642","-0.180608","2875","2749","2686","2535","507","-354","2402","-756","-1986","2117","-2708","-4381","5626","3228","2357",""
"MA200-0416","29316","88","1","1.10","1.4","2023-05-28T09:14:30","120","2023/05/28","09:14:30","-15.795746803283691","35.002963999984786","0.0","14","30","64","86","-2788","-1380","-26391","14","150","149.96","114.76","35.20","34.21","30.6","14.45","90708","33.06","DUALSPOT-UV-BLUE-GREEN-RED-IR","680205","683092","909950","22.958948","7.552263","0.006708","687664","875134","765018","16.123747","4.801769","-0.044064","789848","886538","815801","13.328161","3.723186","-0.401172","793638","909087","861056","10.639155","2.725488","0.318015","693109","839812","951550","7.740421","2.057969","-0.072951","5887","6606","6959","5271","3734","3082","4851","1906","764","4314","-241","-1810","7734","5685","4943",""
"MA200-0416","29317","88","1","1.10","1.4","2023-05-28T09:15:00","120","2023/05/28","09:15:00","-15.795726954936981","35.00298266601749","0.1","14","30","64","86","-2820","-1356","-26291","14","150","150.23","115.00","35.23","34.55","30.4","14.66","90716","33.38","DUALSPOT-UV-BLUE-GREEN-RED-IR","672543","676036","900970","23.113348","7.604891","0.006217","686537","874231","764402","16.217537","4.823513","-0.032657","789939","887147","816422","13.402681","3.733527","-0.234069","794261","910258","862155","10.694975","2.726323","0.431494","692056","838933","950614","7.802603","2.069964","-0.130248","7886","8774","9209","6046","4575","3952","5380","2436","1300","4869","237","-1347","7553","4756","3746",""
"MA200-0416","29318","88","1","1.10","1.4","2023-05-28T09:15:30","120","2023/05/28","09:15:30","-15.79574066400528","35.002986166160554","0.0","14","30","64","85","-2800","-1424","-26319","14","150","150.03","114.44","35.59","34.82","30.0","14.69","90724","33.69","DUALSPOT-UV-BLUE-GREEN-RED-IR","671696","675442","900366","23.179576","7.626693","0.003465","685797","873515","763770","16.251692","4.827751","-0.362722","788792","886103","815417","13.427940","3.730183","0.150929","791678","907486","859409","10.706749","2.713764","0.112329","693622","841120","953135","7.840696","2.073152","-19.776773","3399","3598","3696","2212","882","320","1832","-780","-1784","1032","-3540","-5092","4650","1251","29",""
"MA200-0416","29319","88","1","1.10","1.4","2023-05-28T09:16:00","120","2023/05/28","09:16:00","-15.795724630355835","35.00297216628678","0.1","14","30","64","86","-2824","-1356","-26312","14","150","150.08","114.79","35.28","35.04","29.7","14.72","90728","33.94","DUALSPOT-UV-BLUE-GREEN-RED-IR","673657","677633","903364","23.220536","7.638727","-0.003029","687154","875518","765522","16.273628","4.823465","0.107837","789953","887653","816803","13.445749","3.722631","0.106837","793668","910046","861718","10.718008","2.698630","0.108395","693617","841378","953476","7.876034","2.077138","-0.777919","2095","2003","1958","1416","-900","-1876","1287","-1777","-2950","984","-4303","-6082","4300","1578","603",""
"MA200-0416","29320","88","1","1.10","1.4","2023-05-28T09:16:30","120","2023/05/28","09:16:30","-15.795722782611847","35.00297016627155","0.0","14","30","64","86","-2840","-1408","-26163","14","150","149.46","114.42","35.04","35.28","29.4","14.75","90724","34.19","DUALSPOT-UV-BLUE-GREEN-RED-IR","672984","677193","902952","23.272024","7.654726","0.000910","686373","874734","764856","16.303152","4.823726","0.223172","790686","888690","817724","13.469810","3.719287","0.147876","793940","910573","862086","10.733865","2.687973","0.121727","692643","840437","952425","7.906845","2.080285","-1.199354","2643","2681","2700","1912","55","-725","1745","-792","-1760","1390","-3051","-4534","3761","1254","358",""
"MA200-0416","29321","88","1","1.10","1.4","2023-05-28T09:17:00","120","2023/05/28","09:17:00","-15.795722782611847","35.00296499975957","0.1","14","30","64","85","-2808","-1416","-26333","14","150","149.63","114.04","35.59","35.48","29.1","14.76","90732","34.44","DUALSPOT-UV-BLUE-GREEN-RED-IR","671312","675857","901414","23.345134","7.679655","0.005195","685315","873726","764003","16.343342","4.830909","-0.094384","785694","883339","812791","13.499267","3.719329","0.272147","791256","907733","859375","10.752481","2.680367","0.137802","694180","842486","954765","7.935777","2.082243","2.171566","3765","4114","4285","2612","1496","1027","2144","9","-802","1637","-2144","-3399","3544","768","-218",""
"MA200-0416","29322","88","1","1.10","1.4","2023-05-28T09:17:30","120","2023/05/28","09:17:30","-15.795742988586426","35.00297149945982","0.2","14","30","64","86","-2804","-1360","-26416","14","150","149.53","113.84","35.69","35.70","28.8","14.80","90728","34.69","DUALSPOT-UV-BLUE-GREEN-RED-IR","671624","676472","902368","23.408204","7.698654","-0.002647","685662","874470","764692","16.383099","4.834671","-6.395136","786641","884746","814063","13.533346","3.718525","0.226958","793434","910502","861904","10.774414","2.671892","0.139955","694240","842807","955176","7.966495","2.087811","-0.167575","3254","3126","3064","2589","781","24","2485","-187","-1199","1933","-2382","-3805","3769","2179","1614",""
"MA200-0416","29323","88","1","1.10","1.4","2023-05-28T09:18:00","120","2023/05/28","09:18:00","-15.795738160610199","35.002956833224744","0.0","14","30","64","86","-2764","-1412","-26360","14","150","149.59","114.00","35.59","35.95","28.7","14.95","90724","34.94","DUALSPOT-UV-BLUE-GREEN-RED-IR","670960","676196","902288","23.482184","7.722957","0.003081","684745","873774","764194","16.437326","4.843759","-0.116290","786467","884976","814345","13.578135","3.721797","1.407432","792107","909395","860874","10.808361","2.668792","0.221695","693004","841590","953881","8.001268","2.094646","-0.125824","3811","4011","4108","3526","1893","1211","3261","763","-180","2987","-873","-2139","4260","2682","2123",""
"MA200-0416","29324","88","1","1.10","1.4","2023-05-28T09:18:30","120","2023/05/28","09:18:30","-15.795715987682343","35.00296099972911","0.0","14","30","64","85","-2796","-1528","-26300","14","150","150.05","114.31","35.74","36.19","28.5","15.05","90728","35.13","DUALSPOT-UV-BLUE-GREEN-RED-IR","674841","680410","908095","23.565676","7.750782","0.003789","682787","871617","762407","16.506237","4.860378","-0.029071","784293","882863","812463","13.635626","3.731786","-0.115533","795375","913486","864764","10.855136","2.671868","2.029154","689701","837791","949686","8.045889","2.104808","-0.072326","4290","4572","4710","4469","3446","3020","4175","2320","1621","4105","863","-195","5453","3971","3447",""
"MA200-0416","29325","88","1","1.10","1.4","2023-05-28T09:19:00","120","2023/05/28","09:19:00","-15.795722663402557","35.00296516646631","0.0","14","30","64","86","-2844","-1608","-26308","14","150","149.37","114.19","35.18","36.42","28.3","15.12","90724","35.38","DUALSPOT-UV-BLUE-GREEN-RED-IR","675470","681311","909536","23.625854","7.770225","0.002866","683266","872558","763272","16.549997","4.868866","-0.066742","789101","888571","817786","13.674321","3.737181","-0.223350","789325","906784","858353","10.882369","2.668041","0.190802","693514","842683","955265","8.079033","2.110345","-0.201557","3095","3246","3320","2840","1788","1349","2813","1273","693","2392","-1091","-2222","4054","2198","1542",""
"MA200-0416","29326","88","1","1.10","1.4","2023-05-28T09:19:30","120","2023/05/28","09:19:30","-15.795711636543274","35.002965999534354","0.0","14","30","64","85","-2760","-1396","-26344","14","150","149.63","113.60","36.03","36.66","28.0","15.16","90724","35.63","DUALSPOT-UV-BLUE-GREEN-RED-IR","673197","679958","908463","23.804042","7.838213","0.009766","681730","871314","762458","16.648121","4.896158","-0.012663","785015","884582","814208","13.747543","3.749770","-0.123644","796153","915173","866355","10.934210","2.671343","1.681916","692423","841625","954230","8.124275","2.121160","-0.061519","9212","11084","12002","6403","5616","5288","5351","2900","1982","4578","919","-263","5563","4193","3709",""
"MA200-0416","29327","88","1","1.10","1.4","2023-05-28T09:20:00","120","2023/05/28","09:20:00","-15.795725703239441","35.00297433277592","0.0","14","30","64","86","-2744","-1412","-26375","14","150","149.47","113.74","35.73","36.86","27.7","15.16","90724","35.88","DUALSPOT-UV-BLUE-GREEN-RED-IR","671514","678979","907741","24.010028","7.915359","0.009285","680219","870005","761489","16.757189","4.926796","-0.010513","787360","887743","817248","13.829268","3.767675","-0.051462","794243","913430","864741","10.993061","2.676624","-1.540146","690378","839497","951823","8.170463","2.127580","-0.374673","10636","12682","13688","7108","6356","6043","5965","4160","3484","5190","1482","289","5672","2510","1396",""
"MA200-0416","29328","88","1","1.10","1.4","2023-05-28T09:20:30","120","2023/05/28","09:20:30","-15.795726358890533","35.002979832934216","0.1","14","30","64","85","-2700","-1492","-26296","14","150","149.37","113.39","35.98","37.02","27.5","15.22","0","0.00","DUALSPOT-UV-BLUE-GREEN-RED-IR","670138","677872","906459","24.086908","7.943826","0.008281","679477","869302","760959","16.801728","4.935682","-0.065910","783378","883490","813356","13.864374","3.771019","-1.792126","792835","912030","863365","11.017982","2.672428","0.179669","692886","842799","955585","8.201645","2.130905","-1.062305","3982","4647","4974","2911","1831","1381","2570","771","99","2204","-1170","-2250","3841","1290","395",""
"MA200-0416","29329","88","1","1.10","1.4","2023-05-28T09:21:00","120","2023/05/28","09:21:00","-15.795734643936157","35.00297449948266","0.1","14","30","64","85","-2727","-1327","-26358","14","150","149.57","114.32","35.25","37.14","27.4","15.23","0","0.00","DUALSPOT-UV-BLUE-GREEN-RED-IR","667062","674858","902546","24.114934","7.952924","0.003036","682035","872718","763939","16.821952","4.936981","0.552470","785163","885661","815326","13.882298","3.769988","0.186569","789380","908203","859699","11.032028","2.667004","0.136643","690091","839527","951898","8.224052","2.133217","-1.073082","1439","1516","1553","1311","273","-158","1301","-242","-818","1232","-1543","-2429","2738","916","278",""
"MA200-0416","29330","88","1","1.10","1.4","2023-05-28T09:21:30","120","2023/05/28","09:21:30","-15.795737981796265","35.00297149945982","0.1","14","30","64","85","-2820","-1412","-26108","14","150","149.92","113.62","36.30","37.21","27.2","15.20","90728","36.44","DUALSPOT-UV-BLUE-GREEN-RED-IR","664772","674102","902883","24.342614","8.043186","0.010869","680562","872186","764077","16.962990","4.982877","0.001511","784811","886328","816411","13.989348","3.800696","-0.011656","789166","908863","860591","11.110399","2.683747","-0.069814","689362","839217","951767","8.285553","2.146221","-0.101341","11769","14604","16004","9201","9372","9444","7822","7023","6725","6920","4627","3897","7561","5004","4110",""
"MA200-0416","29331","88","1","1.10","1.4","2023-05-28T09:22:00","120","2023/05/28","09:22:00","-15.795734822750092","35.002977666212246","0.0","14","30","64","85","-2728","-1488","-25264","14","150","149.73","114.21","35.52","37.30","27.0","15.17","90724","36.56","DUALSPOT-UV-BLUE-GREEN-RED-IR","667298","678197","909866","24.836940","8.247463","0.013281","677825","869942","762731","17.251508","5.086691","0.010555","782516","884805","815445","14.212499","3.872537","0.003247","793048","914238","866001","11.276537","2.729320","-0.016342","690924","841659","954782","8.393562","2.175586","-0.024363","25422","33780","37935","18727","21667","22896","16221","16792","17006","14594","12872","12323","13211","11549","10968",""
"MA200-0416","29332","88","1","1.10","1.4","2023-05-28T09:22:30","120","2023/05/28","09:22:30","-15.795731127262115","35.00298233283684","0.0","14","30","64","85","-2733","-1445","-25866","14","150","150.03","113.92","36.11","37.36","26.8","15.11","90724","36.69","DUALSPOT-UV-BLUE-GREEN-RED-IR","660020","672154","903017","25.207394","8.399250","0.012105","677884","871096","764210","17.455120","5.156435","0.005893","782632","885820","816742","14.363206","3.919589","-0.001458","787480","908476","860771","11.386247","2.757120","-0.031590","687339","837687","950373","8.463188","2.192609","-0.052709","19099","24692","27487","13249","14320","14768","10983","10819","10757","9661","7724","7105","8537","6586","5904",""
"MA200-0416","29333","88","1","1.10","1.4","2023-05-28T09:23:00","120","2023/05/28","09:23:00","-15.79572981595993","35.002963999984786","0.1","14","30","64","85","-2576","-1380","-26536","14","150","149.83","114.08","35.75","37.43","26.6","15.07","90720","36.81","DUALSPOT-UV-BLUE-GREEN-RED-IR","659860","672370","903652","25.309046","8.440905","0.012480","677681","871209","764460","17.518632","5.175770","-0.002401","782392","885843","816842","14.413011","3.932190","-0.024996","792736","914781","866790","11.423360","2.763986","-0.102890","690107","841197","954454","8.488495","2.198686","-0.054270","5233","6844","7649","4127","4009","3960","3624","2926","2664","3263","1927","1500","3098","2374","2121",""
"MA200-0416","29334","88","1","1.10","1.4","2023-05-28T09:23:30","120","2023/05/28","09:23:30","-15.795715153217316","35.0029718328733","0.0","14","30","64","85","-2704","-1458","-26583","14","150","150.09","113.64","36.45","37.49","26.4","14.99","90732","36.94","DUALSPOT-UV-BLUE-GREEN-RED-IR","662193","674914","907211","25.364152","8.466434","0.015777","674544","867310","761133","17.553462","5.188375","0.008783","780808","884209","815357","14.438663","3.938764","-0.026440","790087","911860","864036","11.442782","2.765882","-0.972061","687832","838574","951460","8.505493","2.201823","-0.157786","2848","4113","4748","2272","2563","2686","1874","1497","1356","1714","521","141","2089","1202","892",""
"MA200-0416","29335","88","1","1.10","1.4","2023-05-28T09:24:00","120","2023/05/28","09:24:00","-15.795727670192719","35.00297999987379","0.0","14","30","64","85","-2716","-1392","-26136","14","150","150.03","113.84","36.19","37.54","26.3","14.98","90736","37.06","DUALSPOT-UV-BLUE-GREEN-RED-IR","665599","678407","911982","25.377672","8.470760","0.000383","677208","870832","764230","17.569308","5.191087","-0.108064","783002","886757","817766","14.453800","3.941762","-0.074478","786918","908300","860637","11.454686","2.765792","0.337172","689741","840971","954241","8.516937","2.203931","-0.153790","697","702","704","1031","555","355","1103","687","531","1049","-24","-366","1404","814","607",""
"MA200-0416","29336","88","1","1.10","1.4","2023-05-28T09:24:30","120","2023/05/28","09:24:30","-15.795736849308014","35.00296449987218","0.0","14","30","64","85","-2704","-1396","-26247","14","150","149.99","114.27","35.72","37.58","26.2","14.92","90736","37.13","DUALSPOT-UV-BLUE-GREEN-RED-IR","661466","674179","906272","25.376662","8.471910","0.046012","673816","866460","760445","17.573426","5.193651","0.033275","780076","883461","814742","14.457748","3.941649","0.207445","787500","908991","861295","11.456785","2.763909","0.108566","685976","836390","949035","8.521179","2.203987","0.518410","-51","189","309","267","532","643","286","-26","-143","184","-529","-755","518","21","-151",""
"MA200-0416","29337","88","1","1.10","1.4","2023-05-28T09:25:00","120","2023/05/28","09:25:00","-15.795719146728516","35.00296716648154","0.1","14","30","64","85","-2654","-1429","-26095","14","150","149.67","113.93","35.74","37.64","26.0","14.88","90736","37.25","DUALSPOT-UV-BLUE-GREEN-RED-IR","659502","672170","903527","25.367060","8.468096","0.011259","677036","870644","764083","17.572792","5.190950","0.053891","779439","882795","814057","14.458880","3.938430","0.074555","786385","907766","860088","11.457775","2.759808","0.092205","688631","839669","952732","8.525215","2.205408","0.016601","-495","-626","-692","-41","-560","-777","82","-747","-1058","87","-1151","-1543","494","555","576",""
"MA200-0416","29338","88","1","1.10","1.4","2023-05-28T09:25:30","120","2023/05/28","09:25:30","-15.795718491077423","35.002961833262816","0.0","14","30","64","85","-2720","-1396","-26280","14","150","149.68","113.27","36.41","37.75","26.0","14.95","90736","37.31","DUALSPOT-UV-BLUE-GREEN-RED-IR","662133","674794","907062","25.358676","8.465200","0.003956","674157","866984","760850","17.574448","5.188972","0.066891","780981","884574","815699","14.459117","3.935390","0.070411","789378","911300","863396","11.457919","2.754778","0.087885","689937","841259","954582","8.527851","2.207058","0.065786","-434","-467","-483","108","-402","-617","17","-693","-958","12","-1386","-1828","325","633","740",""
"MA200-0416","29339","88","1","1.10","1.4","2023-05-28T09:26:00","120","2023/05/28","09:26:00","-15.795718014240265","35.00298366649076","0.1","14","30","64","85","-2740","-1360","-26444","14","150","150.09","113.80","36.29","37.89","25.9","15.02","90744","37.44","DUALSPOT-UV-BLUE-GREEN-RED-IR","657497","670303","901247","25.412434","8.487411","0.012097","675423","868832","762512","17.609044","5.198610","-0.012400","781412","885278","816399","14.487509","3.941589","-0.052755","790098","912270","864364","11.477296","2.757103","-0.399705","690568","842116","955614","8.546047","2.212308","-0.017254","2774","3594","4006","2253","1968","1849","2071","1418","1173","1708","642","305","2233","2020","1946",""
"MA200-0416","29340","88","1","1.10","1.4","2023-05-28T09:26:30","120","2023/05/28","09:26:30","-15.79572069644928","35.002966166241094","0.0","14","30","64","85","-2748","-1436","-26344","14","150","149.40","114.13","35.27","38.02","25.8","15.07","90744","37.50","DUALSPOT-UV-BLUE-GREEN-RED-IR","662302","675266","907954","25.429936","8.493134","0.003142","674215","867368","761245","17.622138","5.200088","-0.513471","780447","884284","815468","14.498457","3.939926","0.134778","788271","910277","862391","11.482474","2.751667","0.105301","688196","839329","952483","8.556816","2.213903","-0.275756","900","952","978","850","310","84","796","-391","-834","455","-1546","-2176","1318","631","392",""
"MA200-0416","29341","88","1","1.10","1.4","2023-05-28T09:27:00","120","2023/05/28","09:27:00","-15.795716285705566","35.00296533317305","0.0","14","30","64","85","-2676","-1384","-26247","14","150","149.68","114.25","35.44","38.18","25.8","15.21","90752","37.69","DUALSPOT-UV-BLUE-GREEN-RED-IR","658253","671146","902460","25.435608","8.494543","-0.016742","675840","869510","763133","17.628854","5.197704","0.084519","782687","886908","817853","14.502742","3.934741","0.080994","792396","915093","866912","11.484913","2.745825","0.095393","690606","842334","955920","8.569424","2.218096","0.010366","291","233","204","435","-498","-889","311","-1214","-1782","214","-1653","-2240","1541","1652","1691",""
"MA200-0416","29342","88","1","1.10","1.4","2023-05-28T09:27:30","120","2023/05/28","09:27:30","-15.795713484287262","35.002965999534354","0.1","14","30","64","85","-2772","-1444","-26296","14","150","149.59","114.42","35.17","38.38","25.8","15.35","90756","37.81","DUALSPOT-UV-BLUE-GREEN-RED-IR","662029","675266","908176","25.493856","8.516842","0.010562","673805","867143","761113","17.664100","5.207342","-0.010515","781003","885204","816293","14.528691","3.938060","-0.276914","788274","910481","862534","11.500251","2.743524","0.178085","687399","838564","951672","8.591816","2.223752","-0.036896","2990","3723","4091","2283","2031","1925","1882","783","374","1344","-656","-1283","2733","2246","2075",""
"MA200-0416","29343","88","1","1.10","1.4","2023-05-28T09:28:00","120","2023/05/28","09:28:00","-15.795712172985077","35.00298066646792","0.0","15","30","64","85","-2668","-1388","-26347","14","150","150.49","114.92","35.57","38.60","25.5","15.39","90740","38.00","DUALSPOT-UV-BLUE-GREEN-RED-IR","659072","672253","904176","25.500608","8.521622","0.025844","676568","870755","764263","17.666296","5.204534","0.065626","779629","883696","814868","14.531171","3.933662","0.077181","785918","907828","859921","11.499195","2.735931","0.084081","689155","840812","954230","8.604774","2.226037","-0.160836","345","789","1012","141","-585","-888","179","-1026","-1474","-92","-2141","-2781","1575","897","660",""
"MA200-0416","29344","88","1","1.10","1.4","2023-05-28T09:28:30","120","2023/05/28","09:28:30","-15.795721113681793","35.00298266601749","0.1","15","30","64","85","-2720","-1388","-26219","14","150","149.70","114.60","35.10","38.83","25.3","15.47","90740","38.19","DUALSPOT-UV-BLUE-GREEN-RED-IR","662904","676295","909715","25.527972","8.530294","0.001949","674464","868170","762006","17.680666","5.204571","0.196041","781299","885732","816693","14.538722","3.928465","0.088719","790216","912904","864670","11.502794","2.727699","0.095543","686582","837773","950841","8.622383","2.229933","-0.069365","1402","1451","1475","929","7","-376","547","-1229","-1887","315","-2352","-3182","2146","1550","1343",""
"MA200-0416","29345","88","1","1.10","1.4","2023-05-28T09:29:00","120","2023/05/28","09:29:00","-15.795718491077423","35.00297366618179","0.0","15","30","64","85","-2680","-1404","-26188","14","150","149.57","114.60","34.97","39.05","25.2","15.54","90740","38.31","DUALSPOT-UV-BLUE-GREEN-RED-IR","661778","675181","908184","25.539346","8.533983","0.003374","673596","867152","761017","17.684140","5.198450","0.063125","780522","884930","815845","14.540665","3.919738","0.072124","787350","909710","861514","11.500484","2.714736","0.083295","688236","839888","953246","8.638611","2.232854","-0.143199","583","619","638","224","-1297","-1931","140","-2071","-2888","-202","-3719","-4806","1978","1167","884",""
"MA200-0416","29346","88","1","1.10","1.4","2023-05-28T09:29:30","120","2023/05/28","09:29:30","-15.795720279216766","35.00297149945982","0.1","15","30","64","85","-2752","-1452","-26147","14","150","150.05","114.88","35.17","39.30","24.9","15.62","90744","38.56","DUALSPOT-UV-BLUE-GREEN-RED-IR","659940","673349","905735","25.544186","8.533321","0.072537","676738","871286","764601","17.685284","5.191059","0.058412","780100","884568","815468","14.541986","3.910547","0.070953","786246","908502","860283","11.496482","2.701211","0.080822","686360","837725","950846","8.656895","2.235507","-0.282006","247","-110","-290","73","-1557","-2235","95","-2169","-3002","-349","-3857","-4935","2223","1053","646",""
"MA200-0416","29347","88","1","1.10","1.4","2023-05-28T09:30:00","120","2023/05/28","09:30:00","-15.795720994472504","35.00298083294183","0.0","15","30","64","85","-2616","-1416","-26256","14","150","150.13","114.49","35.63","39.55","24.8","15.74","90752","38.75","DUALSPOT-UV-BLUE-GREEN-RED-IR","658107","671819","903890","25.605982","8.553019","0.001368","675448","869872","763396","17.714002","5.191475","0.218386","779287","883869","814776","14.561989","3.903943","0.106492","791582","914909","866220","11.507191","2.689273","0.104354","688610","840669","954233","8.683121","2.240648","-0.114627","3170","3246","3285","1859","86","-648","1450","-1538","-2633","938","-3361","-4672","3199","2015","1603",""
"MA200-0416","29348","88","1","1.10","1.4","2023-05-28T09:30:30","120","2023/05/28","09:30:30","-15.795728981494904","35.00297666643746","0.1","15","30","64","85","-2591","-1362","-26345","14","150","150.16","114.72","35.44","39.84","24.7","15.91","90740","39.00","DUALSPOT-UV-BLUE-GREEN-RED-IR","656658","670489","902151","25.645376","8.563541","-0.009951","674432","868726","762341","17.731922","5.185837","0.086835","778753","883436","814288","14.573655","3.895020","0.086948","789876","913100","864402","11.512905","2.675897","0.095397","686407","838174","951417","8.707989","2.245440","-0.118095","2017","1743","1606","1157","-1179","-2145","844","-2090","-3160","499","-3786","-5083","3028","1888","1492",""
"MA200-0416","29349","88","1","1.10","1.4","2023-05-28T09:31:00","120","2023/05/28","09:31:00","-15.795723974704742","35.0029746661894","0.0","15","30","64","85","-2660","-1444","-26391","14","150","149.76","114.28","35.48","40.13","24.5","16.04","90740","39.19","DUALSPOT-UV-BLUE-GREEN-RED-IR","662579","676705","910605","25.673028","8.570963","-0.009952","674212","868595","762184","17.744496","5.180782","0.081502","781432","886633","817147","14.581470","3.884929","0.079950","787842","910877","862155","11.513700","2.660513","0.087920","688555","840917","954605","8.730675","2.248863","-0.257872","1421","1228","1131","815","-1056","-1827","567","-2361","-3424","69","-4349","-5677","2773","1347","852",""
"MA200-0416","29350","88","1","1.10","1.4","2023-05-28T09:31:30","120","2023/05/28","09:31:30","-15.795730292797089","35.002966166241094","0.0","15","30","64","85","-2776","-1572","-26336","14","150","150.01","114.35","35.65","40.42","24.5","16.25","90736","39.50","DUALSPOT-UV-BLUE-GREEN-RED-IR","656116","670154","901787","25.685378","8.571011","0.119668","673772","868159","761707","17.747880","5.170465","0.060309","781266","886608","817030","14.584762","3.871387","0.072306","787603","910770","861885","11.511614","2.641892","0.084512","686904","839111","952546","8.752422","2.251852","-0.348194","634","7","-305","219","-2145","-3117","238","-3153","-4379","-182","-5239","-6745","2656","1171","656",""
"MA200-0416","29351","88","1","1.10","1.4","2023-05-28T09:32:00","120","2023/05/28","09:32:00","-15.795738279819489","35.00296666636132","0.0","15","30","64","84","-2700","-1516","-26475","14","150","150.28","114.29","35.99","40.72","24.3","16.40","90732","39.75","DUALSPOT-UV-BLUE-GREEN-RED-IR","659574","673762","906612","25.695130","8.570086","0.079779","676380","871657","764698","17.750264","5.159260","0.058964","780467","885777","816136","14.585136","3.857201","0.068981","785357","908307","859401","11.509082","2.624494","0.083782","684584","836418","949553","8.773998","2.253938","-1.571717","501","-150","-477","154","-2308","-3317","27","-3272","-4458","-222","-4850","-6217","2637","809","178",""
"MA200-0416","29352","88","1","1.10","1.4","2023-05-28T09:32:30","120","2023/05/28","09:32:30","-15.795735478401184","35.00297333300114","0.0","15","30","64","85","-2648","-1416","-26344","14","150","149.83","114.60","35.23","41.02","24.2","16.57","90736","40.00","DUALSPOT-UV-BLUE-GREEN-RED-IR","655833","670093","901712","25.720826","8.574139","-0.105338","673280","867814","761251","17.759738","5.151415","0.069708","781758","887457","817602","14.591145","3.844696","0.075711","786674","909978","860834","11.508247","2.606142","0.085952","688732","841669","955532","8.799267","2.257620","-0.274939","1317","675","355","612","-1650","-2575","435","-2946","-4157","-73","-5226","-6734","3080","1460","900",""
"MA200-0416","29353","88","1","1.10","1.4","2023-05-28T09:33:00","120","2023/05/28","09:33:00","-15.795736610889435","35.002971166046336","0.0","15","30","64","84","-2616","-1450","-26304","14","150","149.73","114.27","35.46","41.34","24.2","16.83","90740","40.25","DUALSPOT-UV-BLUE-GREEN-RED-IR","655632","670019","901615","25.744050","8.576242","0.666834","672767","867291","760721","17.766898","5.139852","0.063565","778301","883709","814018","14.595334","3.830062","0.072903","787083","910619","861266","11.507165","2.586925","0.085720","687395","840176","953872","8.821014","2.260069","-0.678411","1193","348","-73","464","-2417","-3590","304","-3425","-4752","-95","-5436","-6985","2658","964","380",""
"MA200-0416","29354","88","1","1.10","1.4","2023-05-28T09:33:30","120","2023/05/28","09:33:30","-15.795732617378235","35.00298116635531","0.1","15","30","64","84","-2600","-1444","-26336","14","150","150.21","113.75","36.46","41.70","24.2","17.12","90748","40.56","DUALSPOT-UV-BLUE-GREEN-RED-IR","659986","674554","907735","25.758184","8.576067","0.108499","676322","872005","764758","17.770412","5.128492","0.060135","777387","882802","813076","14.598089","3.816151","0.071662","785041","908396","859029","11.505428","2.568364","0.084877","684854","837265","950553","8.846508","2.262679","-1.208660","729","-28","-406","229","-2309","-3339","201","-3167","-4359","-153","-5107","-6530","3130","1000","267",""
"MA200-0416","29355","88","1","1.10","1.4","2023-05-28T09:34:00","120","2023/05/28","09:34:00","-15.795732736587524","35.00298599945381","0.0","15","30","64","84","-2640","-1276","-26160","14","150","149.76","114.11","35.65","42.02","24.1","17.32","90756","40.81","DUALSPOT-UV-BLUE-GREEN-RED-IR","656152","670749","902636","25.773468","8.578377","-0.132765","672828","867617","760889","17.776750","5.119699","0.064725","778803","884568","814616","14.604025","3.805195","0.076682","787086","910903","861267","11.504713","2.551484","0.086023","684819","837415","950762","8.869625","2.265603","-0.449121","786","380","177","411","-1828","-2734","431","-2551","-3602","-62","-4750","-6085","2829","1145","567",""
"MA200-0416","29356","88","1","1.10","1.4","2023-05-28T09:34:30","120","2023/05/28","09:34:30","-15.795738458633423","35.002981832949445","0.1","15","30","64","84","-2520","-1480","-26447","14","150","149.49","114.42","35.07","42.34","23.9","17.50","90760","41.13","DUALSPOT-UV-BLUE-GREEN-RED-IR","656102","670979","903087","25.824428","8.592236","-0.007864","673014","868104","761266","17.799482","5.116249","0.107319","779112","885146","815056","14.619436","3.795623","0.090554","787321","911447","861615","11.512342","2.534341","0.095834","687799","841245","955178","8.898510","2.270122","-0.215349","2615","2321","2174","1472","-729","-1618","1118","-2266","-3453","668","-4904","-6477","3526","1800","1209",""
"MA200-0416","29357","88","1","1.10","1.4","2023-05-28T09:35:00","120","2023/05/28","09:35:00","-15.795740962028503","35.002981999423355","0.1","15","30","64","84","-2764","-1368","-25852","14","150","149.83","114.48","35.35","42.66","23.6","17.57","90756","41.38","DUALSPOT-UV-BLUE-GREEN-RED-IR","657025","672038","904601","25.861632","8.603230","-0.002663","673942","869453","762410","17.815474","5.112642","0.095477","778943","885108","814960","14.628155","3.784620","0.080021","787271","911573","861583","11.514914","2.518242","0.090154","686206","839484","953221","8.924931","2.273886","-0.292114","1908","1826","1785","1035","-756","-1477","632","-2584","-3706","225","-4569","-5911","3224","1487","893",""
"MA200-0416","29358","88","1","1.10","1.4","2023-05-28T09:35:30","120","2023/05/28","09:35:30","-15.79575115442276","35.00297366618179","0.1","15","30","64","84","-2516","-1360","-26468","14","150","149.96","113.96","36.00","42.96","23.4","17.67","90752","41.69","DUALSPOT-UV-BLUE-GREEN-RED-IR","657671","672780","905609","25.873398","8.602764","0.095016","674312","870043","762850","17.815878","5.100984","0.056567","779535","885949","815588","14.630673","3.771758","0.071439","787505","911974","861790","11.512304","2.499014","0.083921","685199","838468","952038","8.946606","2.274456","0.599042","606","-75","-415","26","-2400","-3374","183","-2966","-4060","-229","-5358","-6780","2656","220","-609",""
"MA200-0416","29359","88","1","1.10","1.4","2023-05-28T09:36:00","120","2023/05/28","09:36:00","-15.795755624771118","35.00295999995433","0.1","15","30","64","84","-2554","-1379","-26345","14","150","149.72","113.89","35.83","43.27","23.1","17.74","90756","42.00","DUALSPOT-UV-BLUE-GREEN-RED-IR","656305","671454","903816","25.885284","8.603069","0.141494","672884","868297","761256","17.818684","5.091406","0.059720","779472","886003","815517","14.633542","3.756624","0.071320","787109","911631","861306","11.510505","2.479452","0.084892","683473","836495","949824","8.968307","2.276187","289.489441","613","50","-230","182","-1981","-2847","209","-3506","-4790","-158","-5477","-6938","2662","674","-1",""
"MA200-0416","29360","88","1","1.10","1.4","2023-05-28T09:36:30","120","2023/05/28","09:36:30","-15.79575264453888","35.002948832931","0.1","15","30","64","84","-2492","-1440","-26675","14","150","149.66","114.59","35.07","43.54","22.8","17.72","90764","42.31","DUALSPOT-UV-BLUE-GREEN-RED-IR","659149","674462","907860","25.898582","8.604834","-0.216204","675409","871635","764098","17.822782","5.084486","0.063021","781277","888145","817432","14.635201","3.747224","0.071036","789100","914092","863490","11.506317","2.460807","0.082142","683385","836567","949919","8.991055","2.277773","3.359966","681","295","103","265","-1462","-2152","120","-2224","-3031","-366","-5333","-6684","2773","631","-94",""
"MA200-0416","29361","88","1","1.10","1.4","2023-05-28T09:37:00","120","2023/05/28","09:37:00","-15.795749068260193","35.00295183318667","0.0","15","30","64","84","-2537","-1454","-26179","14","150","149.43","114.23","35.20","43.71","22.4","17.61","90768","42.56","DUALSPOT-UV-BLUE-GREEN-RED-IR","658921","674292","907670","25.909390","8.606134","-0.402356","675136","871375","763835","17.823888","5.077535","0.058045","778294","884846","814331","14.636111","3.737920","0.069847","790084","915347","864549","11.504829","2.445936","0.084796","686935","841103","955056","9.014458","2.276689","0.316788","555","217","48","71","-1463","-2075","66","-2194","-2969","-130","-4238","-5347","2862","-429","-1542",""
"MA200-0416","29362","88","1","1.10","1.4","2023-05-28T09:37:30","120","2023/05/28","09:37:30","-15.795753479003906","35.00294483313337","0.0","15","30","64","84","-2568","-1392","-26344","14","150","150.56","114.88","35.68","43.84","22.1","17.46","90776","42.81","DUALSPOT-UV-BLUE-GREEN-RED-IR","659881","675406","909217","25.935420","8.611414","-0.041688","675974","872646","764895","17.834060","5.070680","0.072425","778952","885767","815076","14.643534","3.726541","0.078097","789634","914997","864054","11.507360","2.429659","0.090177","686031","840218","954047","9.035400","2.274957","0.270529","1330","869","639","656","-1424","-2250","536","-2647","-3734","220","-4577","-5861","2546","-678","-1763",""
"MA200-0416","29363","88","1","1.10","1.4","2023-05-28T09:38:00","120","2023/05/28","09:38:00","-15.79575902223587","35.002941666636616","0.0","15","30","64","84","-2604","-1444","-26303","14","150","150.09","114.28","35.81","43.99","21.8","17.38","90768","43.00","DUALSPOT-UV-BLUE-GREEN-RED-IR","659158","674801","908467","25.957314","8.616072","-0.035654","675274","871848","764151","17.845162","5.066169","0.081422","778642","885562","814831","14.652789","3.719848","0.088127","788864","914274","863296","11.511299","2.416384","0.093133","684629","838594","952213","9.053093","2.275797","0.937191","1125","763","584","720","-933","-1589","672","-1551","-2308","345","-3718","-4798","2162","327","-288",""
"MA200-0416","29364","88","1","1.10","1.4","2023-05-28T09:38:30","120","2023/05/28","09:38:30","-15.795768797397614","35.00294749974273","0.0","15","30","64","84","-2580","-1404","-26403","14","150","150.56","114.88","35.68","44.07","21.5","17.27","90776","43.19","DUALSPOT-UV-BLUE-GREEN-RED-IR","657972","673721","907072","25.986084","8.624601","-0.002816","674337","870757","763221","17.861120","5.067480","2.144278","778302","885312","814615","14.666662","3.719574","0.228547","788260","913716","862722","11.519165","2.409714","0.110172","683533","837420","950827","9.066559","2.273224","0.205764","1471","1404","1370","1029","272","-27","1002","-63","-426","686","-1875","-2552","1637","-1006","-1891",""
"MA200-0416","29365","88","1","1.10","1.4","2023-05-28T09:39:00","120","2023/05/28","09:39:00","-15.795769095420837","35.002970666158944","0.0","15","30","64","84","-2572","-1508","-26180","14","150","149.90","114.12","35.77","44.10","21.3","17.14","90780","43.31","DUALSPOT-UV-BLUE-GREEN-RED-IR","653592","669265","901098","25.996078","8.627369","-0.008137","670823","866273","759299","17.871496","5.066734","0.134137","779479","886737","815900","14.676981","3.718715","0.166202","784495","909451","858617","11.524946","2.403218","0.104872","684759","839030","952645","9.077831","2.271534","0.223497","514","454","424","674","-154","-482","750","-199","-521","508","-1822","-2435","1379","-660","-1341",""
"MA200-0416","29366","88","1","1.10","1.4","2023-05-28T09:39:30","120","2023/05/28","09:39:30","-15.795772135257721","35.00298116635531","0.0","15","30","64","84","-2566","-1483","-26300","14","150","149.76","114.72","35.05","44.09","21.1","16.95","90772","43.38","DUALSPOT-UV-BLUE-GREEN-RED-IR","659359","675209","909116","26.003948","8.629160","-0.023741","675382","872241","764513","17.877662","5.066913","0.268859","779454","886755","815955","14.685603","3.719287","1.479565","789070","914846","863695","11.532148","2.401769","0.165930","683501","837517","950922","9.084965","2.271206","0.316407","402","300","249","398","37","-104","623","135","-30","629","-414","-689","868","-130","-463",""
"MA200-0416","29367","88","1","1.10","1.4","2023-05-28T09:40:00","120","2023/05/28","09:40:00","-15.795771479606628","35.00299383304082","0.1","15","30","64","84","-2416","-1308","-26825","14","150","150.49","114.31","36.18","44.05","20.9","16.79","90772","43.44","DUALSPOT-UV-BLUE-GREEN-RED-IR","655847","671655","904341","26.012432","8.631268","-0.018267","672480","868549","761299","17.889148","5.070501","-0.001049","781041","888644","817714","14.696311","3.722673","-0.000111","785367","910622","859703","11.539742","2.400714","0.192754","685377","839877","953568","9.087605","2.268352","0.132568","435","342","295","744","735","731","777","776","776","666","-292","-544","322","-1101","-1575",""
"MA200-0416","29368","88","1","1.10","1.4","2023-05-28T09:40:30","120","2023/05/28","09:40:30","-15.795761108398438","35.00298266601749","0.1","15","30","64","84","-2516","-1445","-26154","14","150","149.51","113.88","35.62","43.98","20.8","16.61","90772","43.50","DUALSPOT-UV-BLUE-GREEN-RED-IR","656970","672843","905960","26.019024","8.634268","0.015571","673620","870072","762687","17.898676","5.075592","0.027774","778950","886303","815568","14.705372","3.726667","0.024073","789223","915127","863966","11.547585","2.403187","0.000885","682752","836671","949914","9.086025","2.265155","0.096780","339","494","571","620","1059","1233","660","930","1022","690","696","698","-193","-1253","-1605",""
"MA200-0416","29369","88","1","1.10","1.4","2023-05-28T09:41:00","120","2023/05/28","09:41:00","-15.795756757259369","35.00296449987218","0.1","15","30","64","84","-2472","-1344","-26308","14","150","150.14","113.79","36.35","43.91","20.6","16.42","90776","43.50","DUALSPOT-UV-BLUE-GREEN-RED-IR","658147","674056","907637","26.026454","8.639656","0.025177","674119","870797","763348","17.911744","5.083240","0.030001","779667","887148","816449","14.717543","3.734981","0.041045","789307","915236","864158","11.557425","2.408087","0.035793","683413","837479","950845","9.084553","2.264209","0.063175","383","870","1112","851","1559","1840","887","1898","2242","867","1352","1479","-180","-363","-424",""
"MA200-0416","29370","88","1","1.10","1.4","2023-05-28T09:41:30","120","2023/05/28","09:41:30","-15.79575401544571","35.00297449948266","0.1","15","30","64","84","-2500","-1341","-26204","14","150","150.72","113.86","36.86","43.81","20.4","16.21","90772","43.50","DUALSPOT-UV-BLUE-GREEN-RED-IR","658005","674184","908061","26.042092","8.646240","0.011924","674396","871382","764046","17.929588","5.092603","0.025907","779338","886964","816407","14.733210","3.744459","0.036523","789128","915213","864230","11.571757","2.416474","0.043658","683383","837464","950812","9.083824","2.263409","0.083791","806","1049","1169","1161","1883","2169","1142","2134","2473","1262","2282","2552","-89","-303","-374",""
"MA200-0416","29371","88","1","1.10","1.4","2023-05-28T09:42:00","120","2023/05/28","09:42:00","-15.795754969120026","35.002981999423355","0.0","15","30","64","84","-2552","-1468","-26512","14","150","150.03","113.60","36.42","43.70","20.3","16.05","90772","43.50","DUALSPOT-UV-BLUE-GREEN-RED-IR","656985","674293","909041","26.355336","8.755945","0.004609","673644","871293","764337","18.107588","5.150999","0.001736","779081","887353","817083","14.869463","3.789889","0.003421","789443","916079","865286","11.672148","2.449161","0.001652","683851","838267","951826","9.127151","2.274671","-0.036938","16195","17690","18434","11615","11885","11992","9957","10355","10491","8865","9003","9040","5327","4319","3984",""
"MA200-0416","29372","88","1","1.10","1.4","2023-05-28T09:42:30","120","2023/05/28","09:42:30","-15.795753180980682","35.002972832880914","0.0","15","30","64","84","-2620","-1436","-25292","14","150","150.36","113.81","36.55","43.59","20.2","15.87","90772","43.44","DUALSPOT-UV-BLUE-GREEN-RED-IR","652216","672074","908185","26.954204","8.976742","0.006736","671490","870532","764458","18.429890","5.250246","-0.003318","776553","886118","816562","15.117947","3.861660","-0.010342","786472","913999","863827","11.864853","2.503228","-0.016079","682652","837525","951200","9.232834","2.299254","-0.062841","30906","35479","37763","20993","20128","19783","18126","16301","15675","16987","14840","14265","12971","9394","8208",""
"MA200-0416","29373","88","1","1.10","1.4","2023-05-28T09:43:00","120","2023/05/28","09:43:00","-15.795750200748444","35.002970999572426","0.0","15","30","64","84","-2466","-1658","-25120","14","150","149.45","113.56","35.88","43.49","20.1","15.70","90776","43.38","DUALSPOT-UV-BLUE-GREEN-RED-IR","648437","669672","906262","27.367084","9.140369","0.010098","668962","868460","763145","18.653362","5.320686","-0.000176","774717","885060","816018","15.299352","3.917509","-0.002327","785458","913738","863943","12.019073","2.546877","-0.012677","681879","837147","950951","9.324326","2.318524","-0.085542","21354","26785","29508","14587","14553","14540","13261","12922","12805","13624","12204","11823","11254","7502","6260",""
"MA200-0416","29374","88","1","1.10","1.4","2023-05-28T09:43:30","120","2023/05/28","09:43:30","-15.795757949352264","35.002968332963064","0.0","15","30","64","83","-2468","-1324","-26124","14","150","150.39","113.44","36.95","43.39","20.0","15.56","90772","43.31","DUALSPOT-UV-BLUE-GREEN-RED-IR","646211","667503","903541","27.405216","9.162216","0.019441","666410","865330","760527","18.686700","5.335623","0.018439","773348","883621","814815","15.331713","3.932881","0.024879","782640","910592","861078","12.044947","2.560151","0.035044","681248","836391","950159","9.332188","2.322572","0.046734","1974","3473","4225","2178","2996","3323","2368","3454","3828","2288","3604","3959","968","1530","1717",""
"MA200-0416","29375","88","1","1.10","1.4","2023-05-28T09:44:00","120","2023/05/28","09:44:00","-15.795756757259369","35.00296683306806","0.0","15","30","64","83","-2592","-1524","-25944","14","150","150.21","113.29","36.92","43.32","19.9","15.44","90772","43.25","DUALSPOT-UV-BLUE-GREEN-RED-IR","646715","667970","904221","27.399044","9.166380","0.046598","667312","866497","761640","18.697476","5.347585","0.041248","773956","884352","815567","15.343256","3.943205","0.045708","782299","910202","860767","12.056764","2.569825","0.054554","681823","837025","950855","9.327602","2.324185","0.167803","-319","662","1156","705","2402","3081","845","2321","2831","1046","2628","3057","-565","610","1000",""
"MA200-0416","29376","88","1","1.10","1.4","2023-05-28T09:44:30","120","2023/05/28","09:44:30","-15.795753598213196","35.00297483289614","0.0","15","30","64","83","-2529","-1320","-26037","14","150","149.68","113.66","36.02","43.27","19.9","15.39","90772","43.19","DUALSPOT-UV-BLUE-GREEN-RED-IR","643382","665605","902047","27.576756","9.241184","0.011985","669949","870792","765781","18.793658","5.380684","0.005713","772195","882937","814547","15.413877","3.969043","0.011176","786902","916029","866489","12.106672","2.588075","0.013522","680920","836117","949964","9.346203","2.332201","0.034673","9183","12197","13716","6273","6811","7027","5158","5955","6231","4405","5083","5267","2286","3108","3382",""
"MA200-0416","29377","88","1","1.10","1.4","2023-05-28T09:45:00","120","2023/05/28","09:45:00","-15.795747458934784","35.00297999987379","0.0","15","30","64","83","-2532","-1444","-26200","14","150","149.51","113.56","35.94","43.33","19.9","15.45","90776","43.13","DUALSPOT-UV-BLUE-GREEN-RED-IR","643743","667659","906387","28.079072","9.444836","0.010595","665826","866656","762754","19.052702","5.470657","0.006314","772340","884118","816078","15.609042","4.030972","0.000227","783123","912444","863478","12.253669","2.632594","-0.004734","682426","838394","952791","9.435905","2.359416","-0.006184","25979","33281","36982","16909","18558","19222","14267","14305","14318","12986","12427","12274","11034","10577","10425",""
"MA200-0416","29378","88","1","1.10","1.4","2023-05-28T09:45:30","120","2023/05/28","09:45:30","-15.79574465751648","35.002975333016366","0.0","15","30","64","83","-2537","-1408","-26283","14","150","150.36","113.58","36.78","43.44","20.0","15.57","90772","43.19","DUALSPOT-UV-BLUE-GREEN-RED-IR","644012","668070","907173","28.146808","9.477415","0.015011","666736","868042","764068","19.101144","5.489523","0.011589","772364","884334","816342","15.644540","4.043138","0.004665","783863","913401","864433","12.280522","2.642893","0.015496","682515","838547","953071","9.448193","2.367000","0.057930","3502","5202","6065","3161","3802","4060","2594","2746","2798","2371","2809","2929","1511","2880","3338",""
"MA200-0416","29379","88","1","1.10","1.4","2023-05-28T09:46:00","120","2023/05/28","09:46:00","-15.795738816261292","35.00297216628678","0.0","15","30","64","84","-2668","-1404","-26072","14","150","150.29","113.68","36.61","43.59","20.0","15.71","90776","43.25","DUALSPOT-UV-BLUE-GREEN-RED-IR","643803","668188","907659","28.203128","9.500286","0.010016","666616","868217","764319","19.139046","5.498380","-0.032681","772545","884767","816827","15.673132","4.048377","-0.088504","784153","913984","865009","12.301032","2.644753","-0.877331","682419","838544","953098","9.462090","2.373870","0.044032","2909","3669","4055","2471","1793","1520","2088","1188","874","1810","509","153","1707","2621","2927",""
"MA200-0416","29380","88","1","1.10","1.4","2023-05-28T09:46:30","120","2023/05/28","09:46:30","-15.795743823051453","35.002959666308016","0.0","15","30","64","83","-2484","-1472","-26384","14","150","149.51","113.29","36.22","43.80","20.1","15.94","90772","43.31","DUALSPOT-UV-BLUE-GREEN-RED-IR","634834","664830","907767","29.432724","9.953274","0.006356","661586","866267","764224","19.790292","5.684818","-0.008689","767157","882426","815843","16.172567","4.174203","-0.024737","779083","911309","863388","12.695063","2.734673","-0.045240","679135","836608","951554","9.736172","2.432731","-0.079925","63751","73460","78421","42616","38159","36363","36601","28842","26142","34895","24907","22165","33797","22702","19007",""
"MA200-0416","29381","88","1","1.10","1.4","2023-05-28T09:47:00","120","2023/05/28","09:47:00","-15.79576164484024","35.00296716648154","0.0","15","30","64","83","-2600","-1488","-26384","14","150","150.43","113.77","36.65","44.03","20.2","16.22","90772","43.44","DUALSPOT-UV-BLUE-GREEN-RED-IR","630129","661185","903883","29.967472","10.154655","0.006791","657572","862142","760975","20.079686","5.764049","-0.013288","764880","880834","814591","16.408381","4.226750","-0.043288","776676","909464","861806","12.894406","2.772481","-0.085358","680397","838918","954430","9.895519","2.466915","-0.081054","27606","32270","34660","18856","16024","14884","17207","11902","10061","17578","10348","8368","19565","13027","10857",""
"MA200-0416","29382","88","1","1.10","1.4","2023-05-28T09:47:30","120","2023/05/28","09:47:30","-15.795763611793518","35.00296983262524","0.0","15","30","64","83","-2524","-1404","-26200","14","150","149.45","113.80","35.64","44.29","20.3","16.53","90772","43.56","DUALSPOT-UV-BLUE-GREEN-RED-IR","632821","663747","907360","29.925750","10.149130","-0.230331","660117","865434","763799","20.072072","5.760151","0.023470","765726","881810","815443","16.405891","4.218358","0.056644","777350","910316","862539","12.900770","2.765948","0.094953","676391","834166","949046","9.926620","2.472624","-0.123679","-2153","-910","-272","-495","-810","-937","-181","-1954","-2568","561","-1838","-2493","3817","2237","1713",""
"MA200-0416","29383","88","1","1.10","1.4","2023-05-28T09:48:00","120","2023/05/28","09:48:00","-15.795759320259094","35.00297399959527","0.0","15","30","64","83","-2544","-1488","-26252","14","150","149.18","113.44","35.74","44.50","20.2","16.58","90772","43.75","DUALSPOT-UV-BLUE-GREEN-RED-IR","634514","665254","909339","29.875702","10.140261","-0.065662","661164","866653","764860","20.049592","5.755317","-0.040074","766487","882643","816139","16.388779","4.210347","0.024123","778634","911819","863890","12.886815","2.754986","0.050832","676566","834500","949446","9.946407","2.475959","-0.163463","-2591","-1457","-874","-1469","-1002","-814","-1252","-1860","-2071","-1234","-3076","-3578","2436","1303","927",""
"MA200-0416","29384","88","1","1.10","1.4","2023-05-28T09:48:30","120","2023/05/28","09:48:30","-15.795771062374115","35.00297633279115","0.0","15","30","64","83","-2476","-1288","-26268","14","150","149.62","114.47","35.15","44.64","20.1","16.60","90780","43.88","DUALSPOT-UV-BLUE-GREEN-RED-IR","631130","663753","908711","30.203792","10.253023","0.005064","659107","865400","764181","20.207424","5.792440","-0.024165","765215","882248","816037","16.497189","4.228139","-0.101435","777011","910758","862968","12.960219","2.758920","1.661013","678840","837927","953525","10.017048","2.489375","-0.102955","16834","18843","19875","10221","7829","6867","7862","4202","2941","6433","1122","-313","8620","5331","4243",""
"MA200-0416","29385","88","1","1.10","1.4","2023-05-28T09:49:00","120","2023/05/28","09:49:00","-15.795767962932587","35.002972832880914","0.0","15","30","64","83","-2456","-1416","-25703","14","150","149.50","114.22","35.28","44.84","20.0","16.74","90780","44.06","DUALSPOT-UV-BLUE-GREEN-RED-IR","623765","659364","905382","31.107936","10.577898","0.006380","654408","861752","761838","20.656892","5.918079","-0.007429","761919","880536","815027","16.829814","4.306382","-0.028006","772043","906691","859528","13.213249","2.809250","-0.062444","679436","839847","956054","10.204044","2.527175","-0.083225","46493","54091","58005","29171","26402","25290","24177","18414","16432","22225","14313","12177","22870","14968","12367",""
"MA200-0416","29386","88","1","1.10","1.4","2023-05-28T09:49:30","120","2023/05/28","09:49:30","-15.795761466026306","35.00296299974434","0.1","15","30","64","83","-2496","-1384","-26388","14","150","149.69","114.22","35.47","45.01","19.9","16.80","90784","44.19","DUALSPOT-UV-BLUE-GREEN-RED-IR","623044","661071","910125","31.647148","10.803413","0.010899","655478","864959","765406","20.922030","6.002760","0.001836","761499","881479","816422","17.025624","4.359841","-0.011388","774421","910738","863699","13.368434","2.842271","-0.049825","675902","836460","952489","10.335670","2.555159","-0.069755","27727","37343","42327","17208","17698","17895","14232","12513","11921","13630","9340","8181","16098","11021","9354",""
"MA200-0416","29387","88","1","1.10","1.4","2023-05-28T09:50:00","120","2023/05/28","09:50:00","-15.795768976211548","35.00296816625632","0.1","15","30","64","83","-2500","-1288","-26208","14","150","149.70","114.52","35.18","45.11","19.8","16.75","90788","44.38","DUALSPOT-UV-BLUE-GREEN-RED-IR","619022","657929","906979","31.934368","10.925781","0.011597","651718","860937","762248","21.072468","6.051206","0.003014","759859","880424","815691","17.142486","4.390520","-0.014176","771814","908427","861700","13.465736","2.860588","-0.071817","677740","839368","955990","10.428703","2.573022","-0.095025","14731","20431","23395","9738","10209","10399","8472","7240","6816","8524","5223","4333","11348","7093","5699",""
"MA200-0416","29388","88","1","1.10","1.4","2023-05-28T09:50:30","120","2023/05/28","09:50:30","-15.795768141746521","35.00296533317305","0.1","15","30","64","83","-2525","-1383","-26187","14","150","150.43","114.48","35.95","45.20","19.6","16.74","90788","44.50","DUALSPOT-UV-BLUE-GREEN-RED-IR","616404","656058","905490","32.349438","11.107059","0.011536","654035","864774","765971","21.281002","6.117910","0.001203","760605","882033","817423","17.311270","4.435926","-0.013774","773784","911452","864702","13.609458","2.890450","-0.055316","675109","836734","953201","10.554737","2.601498","-0.056162","21295","29621","33974","13503","13756","13858","12240","10487","9883","12595","8334","7185","15379","11066","9655",""
"MA200-0416","29389","88","1","1.10","1.4","2023-05-28T09:51:00","120","2023/05/28","09:51:00","-15.795754611492157","35.002957499818876","0.0","15","30","64","83","-2400","-1420","-26291","14","150","150.35","114.09","36.27","45.35","19.5","16.77","90784","44.56","DUALSPOT-UV-BLUE-GREEN-RED-IR","615820","657222","909056","32.680436","11.258392","0.012260","649650","860177","762453","21.427426","6.168236","0.004774","758039","880052","816008","17.425916","4.469598","-0.006547","770434","908523","862248","13.710050","2.914357","-0.034404","672899","834867","951380","10.653145","2.625372","-0.043032","17041","24508","28433","9514","10286","10598","8343","7707","7488","8846","6613","6010","12049","9195","8262",""
"MA200-0416","29390","88","1","1.10","1.4","2023-05-28T09:51:30","120","2023/05/28","09:51:30","-15.795748114585876","35.002959166420624","0.0","14","30","64","82","-2466","-1341","-26379","14","150","149.96","114.56","35.40","45.47","19.4","16.73","90784","44.69","DUALSPOT-UV-BLUE-GREEN-RED-IR","608738","651848","904207","33.355148","11.565826","0.012613","649100","860861","763866","21.718380","6.277241","0.010587","756907","879998","816523","17.656066","4.546255","0.005370","769617","908773","862982","13.913580","2.973336","-0.006187","671663","834401","951256","10.835613","2.672723","-0.024941","34593","51005","59716","18828","22825","24450","16679","17976","18426","17824","16713","16411","22250","18684","17516",""
"MA200-0416","29391","88","1","1.10","1.4","2023-05-28T09:52:00","120","2023/05/28","09:52:00","-15.795737624168396","35.00295466626994","0.0","14","30","64","83","-2445","-1408","-26245","14","150","149.38","114.10","35.28","45.54","19.2","16.66","90788","44.81","DUALSPOT-UV-BLUE-GREEN-RED-IR","613328","656206","909989","33.355504","11.586063","0.029874","647799","858914","762064","21.733818","6.288231","0.029769","756790","879691","816231","17.674788","4.555839","0.026542","767826","906612","860884","13.941861","2.981376","-0.008185","674280","837762","955120","10.882645","2.683525","-0.047641","18","3369","5152","1003","2309","2841","1362","2255","2565","2486","2286","2232","5758","4276","3792",""
"MA200-0416","29392","88","1","1.10","1.4","2023-05-28T09:52:30","120","2023/05/28","09:52:30","-15.795734465122223","35.00295399967581","0.1","14","30","72","82","-2484","-1484","-26324","14","150","149.57","114.12","35.44","45.61","19.0","16.58","90792","44.94","DUALSPOT-UV-BLUE-GREEN-RED-IR","529601","566309","785149","33.268010","11.560974","-0.004005","649570","861115","764013","21.710120","6.284988","-0.170619","758262","881330","817711","17.658498","4.551035","-0.004123","770341","909551","863641","13.933266","2.975232","0.044742","672165","835210","952228","10.888760","2.683063","0.233239","-4503","-4157","-3973","-1539","-678","-327","-1185","-1125","-1104","-755","-1739","-2006","748","-181","-486",""
"MA200-0416","29393","88","1","1.10","1.4","2023-05-28T09:53:00","120","2023/05/28","09:53:00","-15.795723617076874","35.00295366649516","0.0","14","30","64","83","-2424","-1408","-26216","14","150","150.43","114.36","36.06","45.65","18.9","16.48","90784","45.00","DUALSPOT-UV-BLUE-GREEN-RED-IR","613339","655692","909055","33.213604","11.545422","-0.005039","651048","863068","765824","21.700334","6.286049","0.097765","755922","878559","815197","17.651968","4.550183","-0.212901","772622","912282","866245","13.927599","2.971238","0.043857","673101","836386","953570","10.890667","2.681665","0.118747","-2794","-2532","-2393","-634","217","565","-474","-196","-99","-497","-1110","-1277","232","-541","-794",""
"MA200-0416","29394","88","1","1.10","1.4","2023-05-28T09:53:30","120","2023/05/28","09:53:30","-15.79571944475174","35.00295366649516","0.0","14","30","64","83","-2504","-1368","-26319","14","150","149.83","114.24","35.59","45.63","18.7","16.33","90780","45.06","DUALSPOT-UV-BLUE-GREEN-RED-IR","607482","650911","904130","33.659384","11.748806","0.012372","646626","858242","762062","21.905982","6.362850","0.009990","755547","878981","816025","17.809200","4.605311","0.008127","765944","905190","859827","14.056998","3.012800","0.002702","673016","836907","954419","10.993286","2.709763","-0.017414","22919","33566","39275","13344","15997","17083","11426","12860","13360","11364","11716","11812","12548","11029","10532",""
"MA200-0416","29395","88","1","1.10","1.4","2023-05-28T09:54:00","120","2023/05/28","09:54:00","-15.795727491378784","35.00296483305283","0.0","14","30","64","83","-2412","-1408","-25916","14","150","149.90","114.80","35.10","45.59","18.5","16.15","90772","45.13","DUALSPOT-UV-BLUE-GREEN-RED-IR","607418","652139","906980","33.988400","11.879890","0.009352","646796","859625","763891","22.120642","6.441116","0.009657","752504","876484","814156","17.982402","4.665536","0.008696","766943","907215","862134","14.196480","3.056246","0.001646","670465","834294","951699","11.093147","2.738488","-0.007688","16833","21936","24678","13862","16531","17627","12526","14245","14848","12190","12418","12481","12151","11432","11196",""
"MA200-0416","29396","88","1","1.10","1.4","2023-05-28T09:54:30","120","2023/05/28","09:54:30","-15.795728981494904","35.00297149945982","0.0","14","30","64","83","-2408","-1370","-26279","14","150","150.01","114.50","35.50","45.51","18.4","15.94","90776","45.13","DUALSPOT-UV-BLUE-GREEN-RED-IR","608337","653089","908498","33.995752","11.892292","0.025659","647715","861003","765267","22.153000","6.459064","0.023781","755746","880368","817917","18.008394","4.680032","0.028821","767865","908408","863349","14.217144","3.064990","0.022320","670776","834777","952291","11.104565","2.740476","-0.125364","377","2051","2952","2094","3747","4427","1884","3389","3918","1810","2470","2652","1392","782","582",""
"MA200-0416","29397","88","1","1.10","1.4","2023-05-28T09:55:00","120","2023/05/28","09:55:00","-15.79572880268097","35.002970666158944","0.0","14","30","64","82","-2476","-1516","-26236","14","150","150.17","114.23","35.94","45.41","18.2","15.72","90772","45.13","DUALSPOT-UV-BLUE-GREEN-RED-IR","607971","652779","908199","34.031404","11.912792","0.016457","647134","860346","764784","22.184512","6.476825","0.023790","752791","876998","814872","18.032340","4.692888","0.027087","768752","909554","864517","14.236755","3.074235","0.027288","671103","835231","952803","11.111645","2.742037","-0.059324","1833","3349","4166","2045","3663","4330","1740","2969","3402","1722","2580","2816","865","606","521",""
"MA200-0416","29398","88","1","1.10","1.4","2023-05-28T09:55:30","120","2023/05/28","09:55:30","-15.795732736587524","35.00297816609964","0.0","14","30","64","82","-2404","-1366","-26250","14","150","149.46","114.42","35.04","45.30","18.1","15.51","90768","45.06","DUALSPOT-UV-BLUE-GREEN-RED-IR","608731","653338","908907","33.980764","11.899521","-0.008403","647530","860786","765201","22.177804","6.479538","0.064881","752770","876881","814813","18.031732","4.699886","0.056540","768383","909048","864076","14.235308","3.079128","0.075140","671310","835448","953034","11.104759","2.740681","-0.081119","-2599","-2224","-2022","-434","573","989","-44","1657","2257","-126","1400","1822","-840","-540","-442",""
"MA200-0416","29399","88","1","1.10","1.4","2023-05-28T09:56:00","120","2023/05/28","09:56:00","-15.795753300189972","35.00297833303921","0.0","14","30","64","82","-2420","-1500","-26091","14","150","150.16","114.56","35.60","45.17","17.9","15.30","90772","45.06","DUALSPOT-UV-BLUE-GREEN-RED-IR","605182","651268","907249","34.225420","11.984581","0.004514","645566","859381","764477","22.306406","6.521953","0.003573","748680","873005","811557","18.119866","4.728353","0.002791","767607","908812","864102","14.299487","3.099990","0.003876","671129","835553","953341","11.133770","2.747809","-0.034586","12543","14033","14836","8321","8832","9042","6387","6638","6727","5620","5878","5950","3537","2796","2554",""
"MA200-0416","29400","88","1","1.10","1.4","2023-05-28T09:56:30","120","2023/05/28","09:56:30","-15.795764088630676","35.00296749966219","0.0","14","30","64","82","-2512","-1404","-26256","14","150","150.29","114.84","35.46","45.05","17.9","15.16","90780","44.94","DUALSPOT-UV-BLUE-GREEN-RED-IR","603856","650787","907299","34.588120","12.109726","0.004428","644499","858721","764209","22.502028","6.584024","0.001676","753824","879573","817956","18.269636","4.776239","0.002516","765884","907218","862836","14.411707","3.134859","0.000562","670404","834883","952627","11.193901","2.763692","-0.021210","18551","20731","21906","12628","12978","13123","10827","11213","11349","9804","9866","9884","7314","6257","5911",""
"MA200-0416","29401","88","1","1.10","1.4","2023-05-28T09:57:00","120","2023/05/28","09:57:00","-15.795768141746521","35.00296533317305","0.0","14","30","64","82","-2636","-1600","-25708","14","150","149.99","113.96","36.02","44.98","17.9","15.09","90776","44.88","DUALSPOT-UV-BLUE-GREEN-RED-IR","584373","640745","904996","37.335824","13.283173","0.009449","634471","852770","762574","23.741438","7.020439","0.005869","742547","872232","813840","19.169610","5.071860","0.002643","758897","903857","861785","15.116955","3.354800","-0.001152","666551","833398","952430","11.684772","2.902270","-0.014177","141613","191342","218805","80622","89816","93675","65563","68136","69061","62086","61259","61023","60170","53742","51619",""
"MA200-0416","29402","88","1","1.10","1.4","2023-05-28T09:57:30","120","2023/05/28","09:57:30","-15.795747458934784","35.00297649949789","0.0","14","30","64","82","-2391","-1412","-26237","14","150","149.43","114.08","35.35","45.02","18.0","15.21","90780","44.81","DUALSPOT-UV-BLUE-GREEN-RED-IR","582647","638958","902958","37.707868","13.472004","0.013209","633169","851375","761632","23.949682","7.104820","0.012704","744616","875009","816636","19.340506","5.137110","0.012416","757288","902328","860564","15.277562","3.411436","0.009872","665455","832347","951458","11.809639","2.942079","0.003128","19155","31373","38165","13532","17695","19450","12437","15323","16367","14124","16073","16633","15290","15730","15877",""
"MA200-0416","29403","88","1","1.10","1.4","2023-05-28T09:58:00","120","2023/05/28","09:58:00","-15.795758306980133","35.00297999987379","0.0","14","30","64","82","-2491","-1412","-26216","14","150","149.43","113.77","35.66","45.13","18.0","15.33","90780","44.81","DUALSPOT-UV-BLUE-GREEN-RED-IR","586708","642931","908356","37.621820","13.454483","-0.031876","637048","856441","766176","23.945108","7.113313","0.046480","743966","874193","815960","19.345828","5.145627","0.043853","762722","908811","866816","15.292423","3.422195","0.041062","664756","831431","950489","11.820820","2.952953","0.062355","-4442","-2886","-2019","-298","1765","2638","388","1983","2561","1310","3027","3522","1372","4260","5221",""
"MA200-0416","29404","88","1","1.10","1.4","2023-05-28T09:58:30","120","2023/05/28","09:58:30","-15.795736014842987","35.00296733295545","0.0","14","30","64","82","-2612","-1552","-26240","14","150","149.57","113.84","35.72","45.26","18.0","15.40","90776","44.88","DUALSPOT-UV-BLUE-GREEN-RED-IR","587152","642962","908114","37.508940","13.418404","0.000752","637182","856490","766173","23.921092","7.109731","-0.123170","743595","873634","815377","19.329156","5.143297","-0.159879","762578","908574","866586","15.284283","3.422743","0.181189","667661","835053","954625","11.819271","2.955568","0.095876","-5823","-5932","-5992","-1563","-743","-396","-1215","-541","-297","-717","154","405","-190","1022","1426",""
"MA200-0416","29405","88","1","1.10","1.4","2023-05-28T09:59:00","120","2023/05/28","09:59:00","-15.795741081237793","35.00298033305444","0.1","14","30","64","82","-2176","-1288","-26852","14","150","149.33","113.84","35.48","45.41","18.0","15.57","90776","44.94","DUALSPOT-UV-BLUE-GREEN-RED-IR","584213","639499","902981","37.441636","13.393120","0.006468","632896","850660","760963","23.909742","7.104994","0.013628","744450","874664","816276","19.324098","5.136996","0.041564","756087","900888","859190","15.280487","3.417260","0.053926","667612","835021","954650","11.826668","2.960188","0.048412","-3472","-4185","-4582","-739","-990","-1096","-368","-1474","-1874","-334","-1550","-1900","907","1819","2123",""
"MA200-0416","29406","88","1","1.10","1.4","2023-05-28T09:59:30","120","2023/05/28","09:59:30","-15.795749843120575","35.00300116674043","0.0","14","30","64","82","-2460","-1508","-26224","14","150","149.45","114.04","35.40","45.60","18.1","15.81","90772","45.00","DUALSPOT-UV-BLUE-GREEN-RED-IR","581311","638041","902258","37.818768","13.528316","0.005134","631581","850147","760996","24.104104","7.162584","-0.002875","742706","873579","815584","19.457440","5.170512","-0.017983","755213","900588","859106","15.372687","3.436840","-0.044630","666261","833831","953501","11.899025","2.980811","-0.010316","19423","22429","24103","12634","12059","11815","9707","7859","7190","8111","5548","4810","8863","8137","7894",""
"MA200-0416","29407","88","1","1.10","1.4","2023-05-28T10:00:00","120","2023/05/28","10:00:00","-15.795751929283142","35.00300516653806","0.0","14","30","64","82","-2433","-1400","-26195","14","150","150.32","114.67","35.65","45.80","18.2","16.02","90760","45.13","DUALSPOT-UV-BLUE-GREEN-RED-IR","584745","641502","906940","37.785460","13.515846","0.006388","634148","853548","763970","24.105196","7.161230","0.048287","741679","872317","814354","19.461954","5.166816","0.064403","758908","904947","863184","15.374722","3.430915","0.070312","664749","831977","951443","11.916763","2.986592","0.005088","-1705","-2054","-2248","70","-281","-430","326","-860","-1289","178","-1667","-2197","2160","2265","2300",""
"MA200-0416","29408","88","1","1.10","1.4","2023-05-28T10:00:30","120","2023/05/28","10:00:30","-15.795745968818665","35.002988333115354","0.1","14","30","64","82","-2508","-1350","-26208","14","150","150.16","114.44","35.72","46.01","18.3","16.26","90752","45.25","DUALSPOT-UV-BLUE-GREEN-RED-IR","583335","639801","904325","37.731876","13.492321","0.010271","632829","851729","762248","24.091036","7.149177","0.029497","742358","873152","815036","19.451182","5.154037","0.040723","761255","907795","865767","15.363671","3.417438","0.051352","665446","832971","952562","11.929352","2.988854","-0.109388","-2750","-3868","-4490","-917","-2501","-3169","-781","-2970","-3759","-968","-3785","-4590","1536","884","666",""
"MA200-0416","29409","88","1","1.10","1.4","2023-05-28T10:01:00","120","2023/05/28","10:01:00","-15.795726358890533","35.00297249946743","0.1","14","30","64","82","-2484","-1424","-26140","14","150","150.36","114.56","35.80","46.27","18.3","16.52","90752","45.44","DUALSPOT-UV-BLUE-GREEN-RED-IR","583982","640427","905122","37.713212","13.482952","0.012873","632430","851260","761775","24.092960","7.144481","0.045108","743224","874276","815973","19.448500","5.143195","0.048432","757002","902786","860884","15.355947","3.403837","0.055757","665523","833145","952839","11.947510","2.993953","-0.013090","-956","-1537","-1859","124","-972","-1435","-194","-2514","-3348","-676","-3811","-4704","2214","1989","1914",""
"MA200-0416","29410","88","1","1.10","1.4","2023-05-28T10:01:30","120","2023/05/28","10:01:30","-15.795744121074677","35.00296433316544","0.1","14","30","64","82","-2420","-1320","-26328","14","150","149.51","114.24","35.26","46.52","18.4","16.77","90748","45.63","DUALSPOT-UV-BLUE-GREEN-RED-IR","584818","641273","906190","37.690536","13.469978","0.015136","632356","851246","761713","24.092184","7.136816","0.040585","743258","874414","815997","19.447660","5.132317","0.050514","762514","909441","867121","15.350821","3.390336","0.059036","664811","832359","951969","11.965439","2.996980","-0.127725","-1165","-2160","-2714","-50","-1611","-2268","-60","-2560","-3457","-450","-3840","-4802","2192","1199","867",""
"MA200-0416","29411","88","1","1.10","1.4","2023-05-28T10:02:00","120","2023/05/28","10:02:00","-15.795737981796265","35.00297416630201","0.0","14","30","64","82","-2500","-1396","-26263","14","150","150.03","114.32","35.71","46.81","18.5","17.06","90752","45.81","DUALSPOT-UV-BLUE-GREEN-RED-IR","583758","640126","904513","37.681432","13.462009","0.019561","635275","855294","765296","24.095602","7.129825","0.045771","742143","873190","814777","19.447596","5.121022","0.051351","759540","905962","863669","15.343729","3.374517","0.057828","666172","834269","954194","11.989437","3.002489","-0.045650","-467","-1310","-1779","221","-1451","-2154","-4","-2626","-3563","-622","-4444","-5522","2932","2154","1895",""
"MA200-0416","29412","88","1","1.10","1.4","2023-05-28T10:02:30","120","2023/05/28","10:02:30","-15.795739591121674","35.00298566627316","0.1","14","30","64","82","-2425","-1433","-26120","14","150","149.83","113.96","35.87","47.08","18.4","17.26","90752","46.00","DUALSPOT-UV-BLUE-GREEN-RED-IR","583611","640161","904676","37.705352","13.469086","-0.002737","634309","854198","764301","24.115722","7.129539","0.127165","740980","872011","813669","19.459782","5.115670","0.074229","757190","903299","861029","15.345765","3.361696","0.067681","664286","832117","951756","12.018112","3.006388","-0.259735","1232","1158","1117","1308","-59","-633","887","-1238","-1997","179","-3586","-4642","3514","1518","852",""
"MA200-0416","29413","88","1","1.10","1.4","2023-05-28T10:03:00","120","2023/05/28","10:03:00","-15.795760452747345","35.00298799946904","0.0","14","30","64","82","-2458","-1508","-26000","14","150","149.83","114.32","35.51","47.34","18.4","17.40","90756","46.25","DUALSPOT-UV-BLUE-GREEN-RED-IR","583112","639806","904371","37.774108","13.493633","0.004993","632360","851808","762201","24.154438","7.135118","-0.131687","743579","875288","816672","19.486316","5.112404","0.108790","756438","902564","860223","15.356161","3.349870","0.078242","666521","835095","955232","12.049625","3.011909","-0.115212","3532","4060","4353","2510","1164","600","1927","-763","-1720","912","-3341","-4527","3850","2171","1612",""
"MA200-0416","29414","88","1","1.10","1.4","2023-05-28T10:03:30","120","2023/05/28","10:03:30","-15.795768141746521","35.00299033289775","0.0","14","30","64","81","-2595","-1370","-26500","14","150","149.76","114.08","35.68","47.55","18.2","17.44","90764","46.44","DUALSPOT-UV-BLUE-GREEN-RED-IR","585938","643015","908953","37.792580","13.500813","0.007252","631121","850251","760831","24.167590","7.132858","0.075918","741533","873020","814490","19.493702","5.105180","0.062469","758793","905532","862877","15.353108","3.334433","0.061937","663557","831623","951261","12.073818","3.013356","1.147313","950","1181","1310","854","-469","-1023","537","-1680","-2467","-268","-4340","-5470","2962","566","-230",""
"MA200-0416","29415","88","1","1.10","1.4","2023-05-28T10:04:00","120","2023/05/28","10:04:00","-15.795757293701172","35.00300083332695","0.0","14","30","64","82","-2379","-1354","-26266","14","150","150.23","113.76","36.46","47.63","18.0","17.33","90768","46.69","DUALSPOT-UV-BLUE-GREEN-RED-IR","582835","639711","904416","37.815204","13.509235","0.005310","634917","855564","765581","24.183870","7.131958","0.103725","742793","874666","815988","19.503114","5.098724","0.067048","760550","907784","864945","15.355540","3.320860","0.068018","664465","832904","952700","12.093182","3.010820","0.177137","1168","1356","1461","1060","-183","-703","686","-1469","-2233","214","-3734","-4824","2377","-971","-2081",""
