"Serial number","Datum ID","Session ID","Data format version","Firmware version","App version","Date / time local","Timezone offset (mins)","Date local (yyyy/MM/dd)","Time local (hh:mm:ss)","GPS lat (ddmm.mmmmm)","GPS long (dddmm.mmmmm)","GPS speed (km/h)","GPS sat count","Timebase (s)","Status","Battery remaining (%)","Accel X","Accel Y","Accel Z","Tape position","Flow setpoint (mL/min)","Flow total (mL/min)","Flow1 (mL/min)","Flow2 (mL/min)","Sample temp (C)","Sample RH (%)","Sample dewpoint (C)","Internal pressure (Pa)","Internal temp (C)","Optical config","UV Sen1","UV Sen2","UV Ref","UV ATN1","UV ATN2","UV K","Blue Sen1","Blue Sen2","Blue Ref","Blue ATN1","Blue ATN2","Blue K","Green Sen1","Green Sen2","Green Ref","Green ATN1","Green ATN2","Green K","Red Sen1","Red Sen2","Red Ref","Red ATN1","Red ATN2","Red K","IR Sen1","IR Sen2","IR Ref","IR ATN1","IR ATN2","IR K","UV BC1","UV BC2","UV BCc","Blue BC1","Blue BC2","Blue BCc","Green BC1","Green BC2","Green BCc","Red BC1","Red BC2","Red BCc","IR BC1","IR BC2","IR BCc","Readable status"
"MA200-0416","24497","66","1","1.10","1.4","2023-05-13T08:59:00","120","2023/05/13","08:59:00","-15.795615792274475","35.00276599940844","0.0","12","30","66","91","564","24164","-5680","1","150","149.80","118.24","31.56","26.07","54.3","16.13","90664","26.50","DUALSPOT-UV-BLUE-GREEN-RED-IR","869571","746903","915797","0.000000","0.000000","0.000000","816497","923369","765157","0.000000","0.000000","0.000000","912075","925817","816999","0.000000","0.000000","0.000000","893129","942220","866470","0.000000","0.000000","0.000000","755464","865473","955692","0.000000","0.000000","0.000000","","","","","","","","","","","","","","","","Start up"
"MA200-0416","24498","66","1","1.10","1.4","2023-05-13T08:59:30","120","2023/05/13","08:59:30","-15.795652389526367","35.00278233294375","0.5","12","30","66","91","308","23960","-6532","1","150","149.73","117.84","31.89","26.16","54.4","16.24","90668","26.63","DUALSPOT-UV-BLUE-GREEN-RED-IR","858579","738059","905277","0.000000","0.000000","0.000000","812792","919535","762182","0.000000","0.000000","0.000000","909946","923935","815526","0.000000","0.000000","0.000000","889805","938949","863589","0.000000","0.000000","0.000000","752884","862836","952890","0.000000","0.000000","0.000000","","","","","","","","","","","","","","","","Start up"
"MA200-0416","24499","66","1","1.10","1.4","2023-05-13T09:00:00","120","2023/05/13","09:00:00","-15.795670330524445","35.00277233286761","0.0","12","30","66","91","128","24024","-6468","1","150","150.28","118.17","32.11","26.25","54.4","16.33","90672","26.75","DUALSPOT-UV-BLUE-GREEN-RED-IR","861034","740702","908734","0.000000","0.000000","0.000000","814472","921818","764194","0.000000","0.000000","0.000000","906794","921069","813057","0.000000","0.000000","0.000000","892582","942118","866603","0.000000","0.000000","0.000000","754983","865490","955923","0.000000","0.000000","0.000000","","","","","","","","","","","","","","","","Start up"
"MA200-0416","24500","66","1","1.10","1.4","2023-05-13T09:00:30","120","2023/05/13","09:00:30","-15.795938611030579","35.00286683323793","0.2","12","30","66","90","452","24240","-5016","1","150","150.56","118.29","32.27","26.34","54.5","16.42","90676","26.81","DUALSPOT-UV-BLUE-GREEN-RED-IR","860712","740899","909197","0.000000","0.000000","0.000000","814592","922316","764639","0.000000","0.000000","0.000000","910676","925264","816818","0.000000","0.000000","0.000000","890799","940480","865084","0.000000","0.000000","0.000000","753484","863927","954240","0.000000","0.000000","0.000000","","","","","","","","","","","","","","","","Start up"
"MA200-0416","24501","66","1","1.10","1.4","2023-05-13T09:01:00","120","2023/05/13","09:01:00","-15.796073496341705","35.00308783305809","1.3","12","30","66","90","-2388","24007","-4857","1","150","149.80","117.58","32.22","26.45","54.4","16.49","90696","26.88","DUALSPOT-UV-BLUE-GREEN-RED-IR","860450","741206","909772","0.000000","0.000000","0.000000","814402","922497","764874","0.000000","0.000000","0.000000","911459","926387","817819","0.000000","0.000000","0.000000","891400","941342","865863","0.000000","0.000000","0.000000","753350","863981","954333","0.000000","0.000000","0.000000","","","","","","","","","","","","","","","","Start up"
"MA200-0416","24502","66","1","1.10","1.4","2023-05-13T09:01:30","120","2023/05/13","09:01:30","-15.795964896678925","35.003590166335925","4.8","12","30","64","90","-1572","24396","-3820","1","150","149.61","117.35","32.26","26.53","54.1","16.49","90732","26.94","DUALSPOT-UV-BLUE-GREEN-RED-IR","860121","741553","910450","0.000000","0.000000","0.000000","814933","923552","765875","0.000000","0.000000","0.000000","911288","926585","818100","0.000000","0.000000","0.000000","885430","935360","860404","0.000000","0.000000","0.000000","753584","864463","954951","0.000000","0.000000","0.000000","","","","","","","","","","","","","","","",""
"MA200-0416","24503","66","1","1.10","1.4","2023-05-13T09:02:00","120","2023/05/13","09:02:00","-15.795665502548218","35.00417916616425","5.9","12","30","64","90","2500","23432","-8280","1","150","149.90","117.30","32.59","26.64","53.8","16.52","90792","27.00","DUALSPOT-UV-BLUE-GREEN-RED-IR","850756","734832","902745","0.226113","0.056301","0.000000","807826","916733","760538","0.161564","0.039863","0.000000","908962","925278","817196","0.131893","0.030481","0.000000","883862","934582","859886","0.105106","0.022673","0.000000","752063","863324","953880","0.079618","0.019069","0.000000","11321","10146","11321","10210","9067","10210","9334","7764","9334","8989","6979","8989","9481","8173","9481",""
"MA200-0416","24504","66","1","1.10","1.4","2023-05-13T09:02:30","120","2023/05/13","09:02:30","-15.792724013328552","35.0041814991273","13.3","12","30","64","90","1688","23316","-5256","1","150","149.51","117.82","31.69","26.72","53.5","16.50","90804","27.06","DUALSPOT-UV-BLUE-GREEN-RED-IR","852125","737814","907172","0.532300","0.134674","0.000000","808272","918787","762689","0.375491","0.094427","0.000000","904928","922426","815066","0.304227","0.073021","0.000000","887640","939562","864797","0.238621","0.054067","0.000000","749155","860672","951165","0.177972","0.043029","0.000000","15264","14528","15264","13460","12766","13460","12143","11146","12143","11369","9940","11369","11661","10563","11661",""
"MA200-0416","24505","66","1","1.10","1.4","2023-05-13T09:03:00","120","2023/05/13","09:03:00","-15.79035073518753","35.004399665631354","9.3","12","30","64","90","2856","24388","-5004","1","150","150.05","118.07","31.98","26.83","53.1","16.47","90640","27.13","DUALSPOT-UV-BLUE-GREEN-RED-IR","851357","739742","910574","0.967894","0.240240","0.000000","807432","920251","764564","0.699811","0.174850","0.000000","903459","922970","816105","0.572216","0.137406","0.000000","886661","940210","865869","0.453007","0.104397","0.000000","748363","860845","951740","0.332117","0.077697","0.000000","21668","19391","21668","20362","18645","20362","18843","16717","18843","18216","15791","18216","18237","15145","18237",""
"MA200-0416","24506","66","1","1.10","1.4","2023-05-13T09:03:30","120","2023/05/13","09:03:30","-15.788581132888794","35.00419799936935","11.6","12","30","64","90","-973","23673","-5353","1","150","149.33","117.94","31.39","26.92","52.7","16.42","90648","27.13","DUALSPOT-UV-BLUE-GREEN-RED-IR","841535","733297","903452","1.426491","0.351867","0.000000","800725","914646","760457","1.056426","0.260419","0.000000","901463","922708","816355","0.878066","0.209254","0.000000","885085","940065","866136","0.706762","0.163048","0.000000","746991","860323","951530","0.520872","0.122673","0.000000","22838","20889","22838","22415","20210","22415","21530","19005","21530","21586","18747","21586","22357","20017","22357",""
"MA200-0416","24507","66","1","1.10","1.4","2023-05-13T09:04:00","120","2023/05/13","09:04:00","-15.788021862506866","35.00184366654139","5.8","12","30","64","90","1872","24040","-5564","1","150","149.45","118.18","31.27","26.99","52.3","16.39","90780","27.19","DUALSPOT-UV-BLUE-GREEN-RED-IR","843005","735156","905960","1.522841","0.375755","0.000000","801092","915538","761288","1.115959","0.272573","0.000000","901998","923632","817240","0.925129","0.216513","0.000000","880186","935174","861665","0.741535","0.167113","0.000000","747547","861167","952512","0.550666","0.127960","0.000000","4788","4487","4788","3734","2881","3734","3306","1927","3306","2952","1304","2952","3521","2362","3521",""
"MA200-0416","24508","66","1","1.10","1.4","2023-05-13T09:04:30","120","2023/05/13","09:04:30","-15.787359058856964","35.00088199984748","6.0","13","30","64","90","1872","24480","-4828","1","150","149.39","117.74","31.65","27.07","52.0","16.38","90704","27.25","DUALSPOT-UV-BLUE-GREEN-RED-IR","842331","735360","906470","1.669440","0.408794","0.000000","801117","916267","762049","1.216948","0.293720","0.000000","900856","923034","816860","1.007861","0.232416","0.000000","879676","935115","861696","0.807023","0.177783","0.000000","746883","860741","952148","0.601451","0.138401","0.000000","7313","6132","7313","6358","4953","6358","5833","4172","5833","5580","3382","5580","6025","4609","6025",""
"MA200-0416","24509","66","1","1.10","1.4","2023-05-13T09:05:00","120","2023/05/13","09:05:00","-15.786581635475159","35.00031433333061","6.1","13","30","64","89","-1588","24192","-5184","1","150","149.09","119.25","29.83","27.14","51.8","16.38","90696","27.25","DUALSPOT-UV-BLUE-GREEN-RED-IR","840031","734156","905337","1.817987","0.444746","0.000000","799571","915220","761343","1.324713","0.318349","0.000000","899552","922331","816343","1.095950","0.250440","0.000000","878217","934088","860840","0.876736","0.189632","0.000000","745557","859547","950943","0.655628","0.147976","0.000000","7316","7077","7316","6699","6119","6699","6132","5015","6132","5865","3984","5865","6346","4483","6346",""
"MA200-0416","24510","66","1","1.10","1.4","2023-05-13T09:05:30","120","2023/05/13","09:05:30","-15.786358714103699","34.998732924461365","5.4","13","30","64","89","2200","24060","-5608","1","150","150.16","118.22","31.94","27.22","51.5","16.36","90732","27.31","DUALSPOT-UV-BLUE-GREEN-RED-IR","841844","736182","907986","1.882638","0.459077","0.000000","801181","917423","763254","1.363950","0.324733","0.000000","896679","919669","814017","1.124209","0.253075","0.000000","882291","938625","865066","0.897699","0.190127","0.000000","747660","862147","953790","0.674543","0.151339","0.000000","3212","2635","3212","2460","1481","2460","1984","684","1984","1779","155","1779","2235","1470","2235",""
"MA200-0416","24511","66","1","1.10","1.4","2023-05-13T09:06:00","120","2023/05/13","09:06:00","-15.78616201877594","34.99736487865448","2.2","13","30","64","89","492","24048","-6020","1","150","149.70","117.30","32.39","27.29","51.3","16.35","90612","27.31","DUALSPOT-UV-BLUE-GREEN-RED-IR","837732","733003","904213","1.966717","0.477663","0.000000","803054","919864","765325","1.411086","0.334610","0.000000","897777","921047","815285","1.160860","0.257593","0.000000","882856","939436","865821","0.923788","0.191432","0.000000","748303","863061","954839","0.696609","0.154333","0.000000","4210","3369","4210","2978","2260","2978","2594","1157","2594","2231","404","2231","2627","1290","2627",""
"MA200-0416","24512","66","1","1.10","1.4","2023-05-13T09:06:30","120","2023/05/13","09:06:30","-15.787102937698364","34.997584104537964","1.8","13","30","64","89","-1968","24476","-5388","1","150","149.70","117.86","31.84","27.36","51.0","16.32","90668","27.38","DUALSPOT-UV-BLUE-GREEN-RED-IR","838742","734237","905856","2.029906","0.492445","0.000000","803648","920837","766211","1.447916","0.341177","0.000000","898318","921869","816038","1.190840","0.262891","0.000000","883971","940813","867073","0.944083","0.192314","0.000000","748367","863267","955068","0.713663","0.156906","0.000000","3149","2727","3149","2316","1529","2316","2111","1381","2111","1727","277","1727","2021","1128","2021",""
"MA200-0416","24513","66","1","1.10","1.4","2023-05-13T09:07:00","120","2023/05/13","09:07:00","-15.787078619003296","34.9965683221817","3.3","13","30","64","89","2820","24624","-3544","1","150","150.29","117.62","32.67","27.42","50.8","16.32","90712","27.44","DUALSPOT-UV-BLUE-GREEN-RED-IR","838983","734867","906777","2.103815","0.510461","0.000000","798911","915732","762036","1.494801","0.350904","0.000000","898003","921765","816012","1.222884","0.267660","0.000000","878147","934818","861569","0.969219","0.194204","0.000000","748881","864012","955990","0.737428","0.162510","0.000000","3690","3239","3690","2955","2207","2955","2261","1211","2261","2143","580","2143","2822","2396","2822",""
"MA200-0416","24514","66","1","1.10","1.4","2023-05-13T09:07:30","120","2023/05/13","09:07:30","-15.785996675491333","34.996208012104034","4.9","13","30","64","89","528","24472","-4592","1","150","149.63","117.14","32.49","27.49","50.5","16.29","90636","27.50","DUALSPOT-UV-BLUE-GREEN-RED-IR","841009","737045","909654","2.175343","0.526247","0.000000","800064","917402","763486","1.538508","0.358970","0.000000","899042","923139","817221","1.258200","0.272714","0.000000","880608","937670","864215","0.993484","0.195365","0.000000","744966","859599","951114","0.757000","0.164145","0.000000","3586","2853","3586","2765","1840","2765","2502","1291","2502","2078","358","2078","2333","702","2333",""
"MA200-0416","24515","66","1","1.10","1.4","2023-05-13T09:08:00","120","2023/05/13","09:08:00","-15.784764647483826","34.99580579996109","4.4","13","30","64","89","-352","24144","-4312","1","150","150.16","117.22","32.94","27.55","50.2","16.24","90620","27.50","DUALSPOT-UV-BLUE-GREEN-RED-IR","841318","737691","910566","2.241981","0.540298","0.000000","800920","918668","764581","1.578301","0.365842","0.000000","893797","917948","812692","1.289981","0.277585","0.000000","881105","938413","864902","1.017558","0.197482","0.000000","744748","859520","951087","0.777288","0.168618","0.000000","3338","2505","3338","2516","1546","2516","2250","1227","2250","2060","644","2060","2417","1897","2417",""
"MA200-0416","24516","66","1","1.10","1.4","2023-05-13T09:08:30","120","2023/05/13","09:08:30","-15.783660352230072","34.99557501077652","5.1","13","30","64","89","959","24492","-3420","1","150","149.76","117.22","32.54","27.61","49.8","16.20","90620","27.56","DUALSPOT-UV-BLUE-GREEN-RED-IR","834293","731938","903605","2.309836","0.556148","0.000000","802007","920278","765953","1.619642","0.373744","0.000000","899526","924163","818233","1.322895","0.282430","0.000000","882537","940122","866530","1.041430","0.200510","0.000000","745405","860451","952084","0.797596","0.171691","0.000000","3399","2860","3399","2614","1800","2614","2331","1236","2331","2043","933","2043","2420","1319","2420",""
"MA200-0416","24517","66","1","1.10","1.4","2023-05-13T09:09:00","120","2023/05/13","09:09:00","-15.782295525074005","34.9955940246582","5.2","13","30","64","89","-1504","24375","-4258","1","150","149.89","117.28","32.60","27.68","49.6","16.17","90588","27.63","DUALSPOT-UV-BLUE-GREEN-RED-IR","834570","732585","904567","2.386498","0.573041","0.000000","797360","915238","761860","1.668888","0.384128","0.000000","895166","919924","814506","1.358562","0.287186","0.000000","877165","934625","861460","1.068943","0.202441","0.000000","746104","861417","953218","0.820104","0.174883","0.000000","3839","3043","3839","3112","2361","3112","2524","1211","2524","2353","594","2353","2680","1367","2680",""
"MA200-0416","24518","66","1","1.10","1.4","2023-05-13T09:09:30","120","2023/05/13","09:09:30","-15.781671226024628","34.99462008476257","5.7","13","30","64","89","-700","24036","-5808","1","150","149.45","117.38","32.06","27.73","49.4","16.17","90616","27.69","DUALSPOT-UV-BLUE-GREEN-RED-IR","834732","733137","905395","2.457645","0.589057","0.000000","797636","915907","762471","1.714992","0.392938","0.000000","895771","920827","815368","1.396161","0.293499","0.000000","879158","936975","863648","1.095986","0.204867","0.000000","746647","862181","954118","0.840286","0.178457","0.000000","3560","2933","3560","2911","2036","2911","2659","1634","2659","2311","759","2311","2401","1556","2401",""
"MA200-0416","24519","66","1","1.10","1.4","2023-05-13T09:10:00","120","2023/05/13","09:10:00","-15.78136122226715","34.993582129478455","6.5","13","30","64","89","-1084","24242","-4711","1","150","150.62","116.95","33.68","27.79","49.2","16.16","90628","27.69","DUALSPOT-UV-BLUE-GREEN-RED-IR","835102","734507","907469","2.637595","0.631994","0.000000","798425","917789","764283","1.848298","0.424064","0.000000","894891","920726","815489","1.504492","0.317257","0.000000","879117","937623","864395","1.179432","0.221729","0.000000","746176","862049","954072","0.900318","0.191202","0.000000","9038","7488","9038","8450","6851","8450","7690","5857","7690","7158","5023","7158","7171","5286","7171",""
"MA200-0416","24520","66","1","1.10","1.4","2023-05-13T09:10:30","120","2023/05/13","09:10:30","-15.781343877315521","34.991898000240326","5.8","13","30","64","89","-433","24266","-4850","1","150","150.23","117.34","32.88","27.84","49.1","16.18","90696","27.75","DUALSPOT-UV-BLUE-GREEN-RED-IR","828996","729429","901285","2.692409","0.642791","0.000000","799113","918811","765176","1.881229","0.428588","0.000000","896184","922303","816873","1.531630","0.320058","0.000000","880415","939155","865790","1.199811","0.221568","0.000000","746970","863054","955233","0.916931","0.192917","0.000000","2743","1928","2743","2080","1019","2080","1920","707","1920","1742","-49","1742","1977","728","1977",""
"MA200-0416","24521","66","1","1.10","1.4","2023-05-13T09:11:00","120","2023/05/13","09:11:00","-15.780753493309021","34.99099051952362","3.6","13","30","64","89","-48","24844","-5044","1","150","149.57","117.18","32.38","27.90","49.0","16.20","90696","27.81","DUALSPOT-UV-BLUE-GREEN-RED-IR","828878","729728","901795","2.761157","0.659566","0.000000","799215","919275","765597","1.925551","0.437158","0.000000","896467","922853","817416","1.564270","0.324660","0.000000","875429","934065","861132","1.224750","0.224006","0.000000","742859","858440","950134","0.935197","0.195807","0.000000","3445","3042","3445","2803","1961","2803","2312","1179","2312","2135","755","2135","2177","1246","2177",""
"MA200-0416","24522","66","1","1.10","1.4","2023-05-13T09:11:30","120","2023/05/13","09:11:30","-15.779510259628296","34.99092102050781","6.0","13","30","64","89","-520","24512","-6747","1","150","149.66","117.67","31.99","27.98","48.9","16.23","90728","27.88","DUALSPOT-UV-BLUE-GREEN-RED-IR","831064","731949","904659","2.816804","0.671766","0.000000","794987","914650","761814","1.959603","0.443477","0.000000","892669","919107","814128","1.591134","0.328463","0.000000","876558","935430","862389","1.241797","0.224060","0.000000","743647","859450","951275","0.949789","0.198393","0.000000","2777","2239","2777","2145","1464","2145","1895","987","1895","1453","16","1453","1732","1129","1732",""
"MA200-0416","24523","66","1","1.10","1.4","2023-05-13T09:12:00","120","2023/05/13","09:12:00","-15.778151392936707","34.99107652902603","3.5","13","30","64","88","492","23764","-4740","1","150","150.16","117.50","32.66","27.99","48.8","16.23","90812","27.88","DUALSPOT-UV-BLUE-GREEN-RED-IR","829349","730884","903528","2.897674","0.690303","0.000000","794032","913841","761216","2.001881","0.450212","0.000000","891369","918011","813192","1.621967","0.332016","0.000000","875743","934721","861759","1.263195","0.225747","0.000000","742572","858340","950066","0.967220","0.199818","0.000000","4042","3333","4042","2667","1528","2667","2178","903","2178","1827","518","1827","2072","609","2072",""
"MA200-0416","24524","66","1","1.10","1.4","2023-05-13T09:12:30","120","2023/05/13","09:12:30","-15.776658594608307","34.99122750759125","6.7","13","30","64","89","-1780","23836","-4628","1","150","149.72","117.44","32.27","28.05","48.7","16.25","90828","27.94","DUALSPOT-UV-BLUE-GREEN-RED-IR","832128","733610","907016","2.950345","0.702846","0.000000","796877","917342","764155","2.033287","0.457311","0.000000","893184","920065","815009","1.643413","0.333857","0.000000","878285","937583","864359","1.278674","0.225437","0.000000","743843","859907","951799","0.979454","0.201507","0.000000","2634","2282","2634","1982","1630","1982","1516","473","1516","1322","-96","1322","1455","731","1455",""
"MA200-0416","24525","66","1","1.10","1.4","2023-05-13T09:13:00","120","2023/05/13","09:13:00","-15.775146424770355","34.99147701263428","6.2","13","30","64","88","-2035","24228","-5368","1","150","149.24","117.50","31.74","28.10","48.6","16.25","90932","28.00","DUALSPOT-UV-BLUE-GREEN-RED-IR","831959","733800","907342","3.006632","0.716432","-0.054025","796524","917208","764115","2.064353","0.463319","0.000000","892681","919726","814746","1.667022","0.338059","0.000000","877656","937044","863876","1.294517","0.226312","0.000000","743362","859439","951317","0.991821","0.203882","0.000000","2813","2514","2420","1959","1403","1959","1668","1099","1668","1352","276","1352","1470","1045","1470",""
"MA200-0416","24526","66","1","1.10","1.4","2023-05-13T09:13:30","120","2023/05/13","09:13:30","-15.774264335632324","34.992512464523315","5.0","13","30","64","88","-2828","23944","-5292","1","150","149.73","117.39","32.34","28.15","48.3","16.21","91064","28.00","DUALSPOT-UV-BLUE-GREEN-RED-IR","826923","729649","902315","3.060531","0.729095","-0.078347","793833","914315","761739","2.095496","0.469894","0.000000","894670","921974","816789","1.690692","0.342064","0.000000","874710","934047","861141","1.311767","0.228714","0.000000","745578","862118","954280","1.005891","0.206916","0.000000","2696","2299","2175","1966","1506","1966","1674","1028","1674","1474","745","1474","1674","1310","1674",""
"MA200-0416","24527","66","1","1.10","1.4","2023-05-13T09:14:00","120","2023/05/13","09:14:00","-15.772878885269165","34.99289244413376","6.5","13","30","64","88","-740","24324","-5156","1","150","149.45","116.91","32.54","28.20","48.1","16.19","91156","28.13","DUALSPOT-UV-BLUE-GREEN-RED-IR","828685","731478","904695","3.110504","0.738781","-0.212797","794437","915205","762529","2.124941","0.474370","0.000000","895956","923467","818107","1.711690","0.344866","0.000000","876916","936514","863451","1.325875","0.229662","0.000000","746538","863322","955675","1.018709","0.208858","0.000000","2510","1748","1510","1867","1019","1867","1491","714","1491","1210","292","1210","1531","833","1531",""
"MA200-0416","24528","66","1","1.10","1.4","2023-05-13T09:14:30","120","2023/05/13","09:14:30","-15.771383225917816","34.99293738603592","3.5","13","30","64","88","-1834","24638","-5726","1","150","149.96","117.14","32.82","28.26","48.0","16.19","91224","28.13","DUALSPOT-UV-BLUE-GREEN-RED-IR","826811","730159","903177","3.163937","0.751361","-0.083642","794014","914977","762389","2.154534","0.479841","0.000000","893742","921388","816276","1.734495","0.347244","0.000000","874805","934405","861496","1.340949","0.229412","0.000000","744953","861549","953740","1.030777","0.210783","0.000000","2679","2251","2118","1872","1235","1872","1616","601","1616","1291","-76","1291","1439","819","1439",""
"MA200-0416","24529","66","1","1.10","1.4","2023-05-13T09:15:00","120","2023/05/13","09:15:00","-15.771309733390808","34.993840515613556","3.9","13","30","64","88","1896","24492","-3320","1","150","149.96","116.91","33.06","28.30","47.8","16.17","91268","28.19","DUALSPOT-UV-BLUE-GREEN-RED-IR","830064","733355","907300","3.228788","0.768301","-0.034439","796193","917723","764734","2.191096","0.487001","0.000000","891055","918810","814062","1.761942","0.351113","0.000000","878290","938319","865109","1.360088","0.231236","0.000000","742196","858470","950318","1.045080","0.212762","0.000000","3258","3009","2932","2318","1605","2318","1949","971","1949","1642","553","1642","1709","836","1709",""
"MA200-0416","24530","66","1","1.10","1.4","2023-05-13T09:15:30","120","2023/05/13","09:15:30","-15.77111542224884","34.994733691215515","0.0","14","30","64","88","488","24172","-5096","1","150","149.83","117.14","32.69","28.35","47.8","16.23","91172","28.25","DUALSPOT-UV-BLUE-GREEN-RED-IR","830931","734493","908826","3.291814","0.781429","-0.151238","796632","918514","765429","2.225768","0.493116","0.000000","891781","919780","814929","1.787602","0.354146","0.000000","880613","940946","867523","1.377648","0.230420","0.000000","743103","859639","951616","1.058160","0.213541","0.000000","3160","2359","2109","2194","1386","2194","1818","770","1818","1503","-250","1503","1559","332","1559",""
"MA200-0416","24531","66","1","1.10","1.4","2023-05-13T09:16:00","120","2023/05/13","09:16:00","-15.77172338962555","34.99503284692764","2.8","13","30","64","88","1172","24104","-4976","1","150","150.09","117.26","32.83","28.41","47.8","16.26","91136","28.25","DUALSPOT-UV-BLUE-GREEN-RED-IR","828674","733799","908503","3.526065","0.840740","-0.040742","790097","912214","760521","2.400726","0.536932","0.000000","890193","919153","814670","1.930892","0.388848","0.000000","871591","932156","859663","1.493221","0.258522","0.000000","741875","858777","950857","1.140401","0.232560","0.000000","11733","10610","10259","11060","9893","11060","10144","8775","10144","9888","8587","9888","9797","8092","9797",""
"MA200-0416","24532","66","1","1.10","1.4","2023-05-13T09:16:30","120","2023/05/13","09:16:30","-15.772761881351471","34.99583739042282","5.8","13","30","64","88","1568","24520","-3416","1","150","150.17","117.20","32.98","28.45","47.8","16.30","91016","28.31","DUALSPOT-UV-BLUE-GREEN-RED-IR","823230","729427","903245","3.606125","0.859500","-0.077994","791788","914512","762494","2.453595","0.547117","0.000000","891813","921129","816478","1.974129","0.396954","0.000000","875573","936650","863852","1.525259","0.261998","0.000000","743654","860983","953307","1.163793","0.236309","0.000000","4012","3341","3131","3344","2289","3344","3062","2040","3062","2742","1057","2742","2788","1588","2788",""
"MA200-0416","24533","66","1","1.10","1.4","2023-05-13T09:17:00","120","2023/05/13","09:17:00","-15.773518562316895","34.99704420566559","6.1","13","30","64","87","1811","23872","-4016","1","150","150.08","117.25","32.82","28.50","47.8","16.36","90912","28.38","DUALSPOT-UV-BLUE-GREEN-RED-IR","822052","729214","903304","3.712846","0.885440","-0.056340","791332","914735","762879","2.525770","0.563259","0.000000","890685","920606","816160","2.031713","0.409704","0.000000","873761","935215","862652","1.569002","0.270808","0.000000","742554","860040","952365","1.194286","0.242895","0.000000","5346","4641","4421","4563","3645","4563","4077","3224","4077","3742","2692","3742","3632","2803","3632",""
"MA200-0416","24534","66","1","1.10","1.4","2023-05-13T09:17:30","120","2023/05/13","09:17:30","-15.775122880935669","34.99745911359787","6.2","13","30","64","88","548","23884","-5216","1","150","149.36","117.06","32.30","28.55","47.7","16.36","90820","28.44","DUALSPOT-UV-BLUE-GREEN-RED-IR","806293","728409","908226","6.182490","1.535587","-0.010491","772043","906463","760240","4.635340","1.121086","-0.012503","872058","913766","814071","3.885287","0.894087","-0.018943","864398","935963","866862","3.132855","0.674975","-0.027976","736494","860381","955434","2.331670","0.521863","0.000000","123911","118239","116364","133591","128043","126273","131456","124518","122444","134026","125553","123226","135726","120665","135726",""
"MA200-0416","24535","66","1","1.10","1.4","2023-05-13T09:18:00","120","2023/05/13","09:18:00","-15.77668285369873","34.99774098396301","5.9","13","30","64","88","204","24252","-2752","1","150","149.91","117.50","32.41","28.59","47.6","16.37","90772","28.44","DUALSPOT-UV-BLUE-GREEN-RED-IR","801640","728200","909802","6.963053","1.744863","-0.005552","768411","906307","761351","5.280787","1.291860","-0.010778","868280","913493","814959","4.445678","1.040440","-0.016749","855319","929312","861674","3.597171","0.793517","-0.029304","730125","855048","950222","2.664533","0.602550","0.000000","39018","37929","37565","40721","39065","38528","39595","37493","36851","39645","36698","35864","39573","34780","39573",""
"MA200-0416","24536","66","1","1.10","1.4","2023-05-13T09:18:30","120","2023/05/13","09:18:30","-15.777744472026825","34.998093008995056","4.7","13","30","64","87","288","24344","-4364","1","150","150.49","116.63","33.86","28.64","47.6","16.41","90736","28.50","DUALSPOT-UV-BLUE-GREEN-RED-IR","798566","726273","907786","7.130979","1.786821","-0.032071","767007","905414","760780","5.396008","1.320392","-0.044852","865961","911678","813513","4.542130","1.062047","-0.093569","852849","927111","859764","3.675500","0.810105","-0.144684","732929","858675","954364","2.719354","0.612884","0.000000","8457","7277","6882","7323","6246","5896","6866","5297","4818","6738","4914","4398","6566","4262","6566",""
"MA200-0416","24537","66","1","1.10","1.4","2023-05-13T09:19:00","120","2023/05/13","09:19:00","-15.779143214225769","34.99841487407684","5.3","13","30","64","88","1740","24488","-6632","1","150","150.03","116.91","33.12","28.69","47.5","16.44","90672","28.50","DUALSPOT-UV-BLUE-GREEN-RED-IR","793854","722777","903745","7.277695","1.825042","-0.016549","769156","908672","763707","5.500245","1.344776","-0.054554","867961","914417","816100","4.629355","1.081627","-0.080306","855732","930775","863264","3.744114","0.823974","-0.155120","729881","855407","950828","2.767635","0.622530","0.000000","7371","6777","6578","6609","5457","5084","6194","4907","4515","5888","4201","3724","5769","4067","5769",""
"MA200-0416","24538","66","1","1.10","1.4","2023-05-13T09:19:30","120","2023/05/13","09:19:30","-15.780279040336609","34.99850159883499","4.8","13","30","64","88","2560","23952","-6088","1","150","149.76","117.34","32.42","28.74","47.5","16.48","90536","28.63","DUALSPOT-UV-BLUE-GREEN-RED-IR","792947","722911","904297","7.461634","1.871332","-0.018105","768546","908794","764047","5.625898","1.373214","-0.055897","867151","914266","816141","4.731827","1.102990","-0.099492","856822","932565","865076","3.823257","0.838792","-0.183990","730221","856203","951814","2.821348","0.631700","0.000000","9207","8386","8111","7938","6502","6039","7250","5470","4929","6766","4585","3972","6394","3951","6394",""
"MA200-0416","24539","66","1","1.10","1.4","2023-05-13T09:20:00","120","2023/05/13","09:20:00","-15.781612753868103","34.99907046556473","5.7","13","30","64","86","936","24320","-5348","1","150","150.49","118.38","32.11","28.78","47.4","16.47","90420","28.63","DUALSPOT-UV-BLUE-GREEN-RED-IR","790269","721557","903051","7.624763","1.910619","-0.023103","767162","908212","763764","5.742740","1.399940","-0.045574","865050","912907","815151","4.825449","1.123124","-0.076706","854784","931020","863802","3.895585","0.853306","-0.128347","728834","855009","950589","2.872139","0.642514","0.000000","8094","7185","6881","7317","6169","5799","6566","5205","4792","6130","4534","4086","5993","4703","5993",""
"MA200-0416","24540","66","1","1.10","1.4","2023-05-13T09:20:30","120","2023/05/13","09:20:30","-15.78212571144104","35.00045133329695","5.6","13","30","64","88","1732","24024","-6248","1","150","149.84","117.40","32.44","28.82","47.2","16.45","90304","28.69","DUALSPOT-UV-BLUE-GREEN-RED-IR","792304","724513","907247","7.859476","1.971614","-0.010975","768271","910509","766026","5.918652","1.442636","-0.032367","866290","915125","817373","4.976368","1.158624","-0.048303","857394","934615","867342","4.018077","0.880826","-0.078332","730442","857383","953409","2.957046","0.661680","0.000000","11742","11043","10809","11107","9757","9321","10672","9085","8604","10467","8510","7961","10102","8253","10102",""
"MA200-0416","24541","66","1","1.10","1.4","2023-05-13T09:21:00","120","2023/05/13","09:21:00","-15.782687187194824","35.0015781664988","4.3","13","30","64","88","-1076","23892","-4728","1","150","149.33","117.62","31.70","28.86","47.1","16.44","90328","28.69","DUALSPOT-UV-BLUE-GREEN-RED-IR","792154","725193","908487","7.994151","2.008327","0.001864","763359","905505","762071","6.021756","1.471485","0.007958","861306","910508","813489","5.059629","1.180207","-0.010403","850832","928020","861407","4.085973","0.897038","-0.041923","730142","857389","953579","3.005884","0.674260","-0.020189","6725","6801","6826","6498","6745","6825","5877","5651","5583","5791","5130","4944","5800","5542","5468",""
"MA200-0416","24542","66","1","1.10","1.4","2023-05-13T09:21:30","120","2023/05/13","09:21:30","-15.78369688987732","35.00141633301973","2.4","13","30","64","86","-2620","24024","-5560","1","150","149.90","117.58","32.31","28.90","47.0","16.46","90404","28.69","DUALSPOT-UV-BLUE-GREEN-RED-IR","789202","723283","906443","8.168760","2.054882","-0.005086","761364","903925","760955","6.155753","1.504219","-0.028007","863854","913917","816710","5.177742","1.208549","-0.038302","848564","926148","859799","4.181448","0.918728","-0.068309","728431","855780","951865","3.073246","0.689402","-0.099793","8722","8461","8374","8448","7509","7205","8339","7281","6959","8146","6734","6336","8003","6546","6124",""
"MA200-0416","24543","66","1","1.10","1.4","2023-05-13T09:22:00","120","2023/05/13","09:22:00","-15.783662021160126","35.002605999819934","6.2","13","30","64","87","-832","24036","-6112","1","150","149.90","117.50","32.39","28.93","47.0","16.47","90396","28.75","DUALSPOT-UV-BLUE-GREEN-RED-IR","788274","725040","909899","8.659081","2.188732","-0.001537","760241","905327","762980","6.562988","1.614410","-0.003836","858248","910376","814308","5.527353","1.301312","-0.009350","849962","929710","863778","4.469258","0.993323","-0.018663","729124","857965","954813","3.282341","0.740808","-0.049508","24509","24269","24187","25692","25217","25061","24702","23774","23488","24574","23102","22682","24858","22168","21383",""
"MA200-0416","24544","66","1","1.10","1.4","2023-05-13T09:22:30","120","2023/05/13","09:22:30","-15.783771514892578","35.00413433322683","5.5","13","30","64","87","-848","23648","-6540","1","150","149.53","117.50","32.02","28.99","46.8","16.46","90412","28.81","DUALSPOT-UV-BLUE-GREEN-RED-IR","781877","719911","903770","8.806437","2.227525","-0.005417","760499","906306","763999","6.672874","1.642507","-0.013383","858654","911408","815401","5.620659","1.323938","-0.029977","851215","931583","865621","4.546770","1.011556","-0.046990","729594","858848","955919","3.337654","0.753558","-0.074536","7365","7115","7030","6932","6504","6364","6592","5865","5642","6618","5712","5453","6576","5561","5265",""
"MA200-0416","24545","66","1","1.10","1.4","2023-05-13T09:23:00","120","2023/05/13","09:23:00","-15.784750044345856","35.004433499183506","6.0","13","30","64","87","-1976","23880","-6815","1","150","150.09","117.22","32.87","29.02","46.6","16.45","90524","28.88","DUALSPOT-UV-BLUE-GREEN-RED-IR","780809","719893","904209","8.990035","2.276712","-0.007066","760524","907253","765039","6.802459","1.673538","-0.035312","858223","911726","815884","5.728775","1.347619","-0.070001","851741","932797","866939","4.633575","1.029968","-0.098429","725188","854047","950692","3.398307","0.765950","-0.158707","9199","8789","8649","8195","6998","6607","7657","5981","5465","7429","5619","5102","7228","5266","4695",""
"MA200-0416","24546","66","1","1.10","1.4","2023-05-13T09:23:30","120","2023/05/13","09:23:30","-15.786207020282745","35.00420833285898","6.8","13","30","64","86","-1868","24320","-5664","1","150","150.32","117.81","32.51","29.06","46.5","16.43","90644","28.88","DUALSPOT-UV-BLUE-GREEN-RED-IR","782956","722334","907540","9.093297","2.304847","-0.001889","756852","903278","761820","6.873044","1.691145","-0.021240","858971","912851","816984","5.786669","1.361340","-0.039098","852085","933485","867622","4.678074","1.037818","-0.184694","725294","854396","951129","3.431484","0.773368","-0.094479","5148","5083","5061","4441","4014","3875","4079","3504","3327","3789","2422","2032","3933","3187","2970",""
"MA200-0416","24547","66","1","1.10","1.4","2023-05-13T09:24:00","120","2023/05/13","09:24:00","-15.787151038646698","35.004030166659504","0.1","13","30","64","87","508","24028","-7075","1","150","149.45","117.62","31.82","29.09","46.3","16.40","90676","28.94","DUALSPOT-UV-BLUE-GREEN-RED-IR","782570","722276","907604","9.153787","2.321310","0.000851","756860","903541","762119","6.915058","1.701898","-0.011162","858957","913076","817215","5.820107","1.367587","-0.116778","844682","925578","860323","4.704343","1.042426","-0.175279","725729","855035","951895","3.450027","0.776912","-0.176901","3020","3038","3044","2648","2504","2458","2360","1629","1405","2240","1452","1228","2202","1555","1367",""
"MA200-0416","24548","66","1","1.10","1.4","2023-05-13T09:24:30","120","2023/05/13","09:24:30","-15.787797152996063","35.003950166516006","4.9","13","30","64","86","-944","23748","-7415","1","150","150.62","117.50","33.12","29.14","46.2","16.42","90668","28.94","DUALSPOT-UV-BLUE-GREEN-RED-IR","782857","722831","908401","9.207951","2.335161","-0.015386","757520","904613","763074","6.951543","1.708269","-0.146405","853767","907793","812524","5.850106","1.372689","-0.183769","845088","926173","860912","4.727109","1.044821","-0.869677","725624","855035","951916","3.469026","0.780521","-0.209349","2707","2456","2371","2301","1426","1140","2119","1279","1021","1943","725","380","2258","1522","1308",""
"MA200-0416","24549","66","1","1.10","1.4","2023-05-13T09:25:00","120","2023/05/13","09:25:00","-15.788500249385834","35.00447183242068","7.1","13","30","64","86","-1357","23911","-6434","1","150","149.67","117.35","32.32","29.17","46.2","16.43","90640","29.00","DUALSPOT-UV-BLUE-GREEN-RED-IR","782004","722692","908517","9.305260","2.361892","-0.000368","756235","903700","762486","7.025645","1.726646","-0.021637","857678","912494","816914","5.913382","1.387458","-0.042073","843393","924802","859730","4.776522","1.055187","-0.092261","724615","854176","951047","3.506782","0.787583","-0.201285","4870","4858","4853","4681","4215","4063","4476","3794","3584","4224","3217","2932","4494","3052","2634",""
"MA200-0416","24550","66","1","1.10","1.4","2023-05-13T09:25:30","120","2023/05/13","09:25:30","-15.788609504699707","35.004719499032944","0.9","13","30","64","87","756","24152","-5776","1","150","149.73","117.79","31.94","29.21","46.1","16.43","90636","29.00","DUALSPOT-UV-BLUE-GREEN-RED-IR","774286","717179","902348","9.600181","2.442680","0.001431","756517","905723","764681","7.265193","1.791198","-0.001113","852330","908260","813575","6.118917","1.440465","-0.011133","845286","928082","863168","4.946675","1.098084","-0.020018","725250","855746","953108","3.628769","0.817503","-0.038667","14705","14858","14910","15075","14984","14954","14486","13780","13562","14492","13476","13186","14466","13087","12686",""
"MA200-0416","24551","66","1","1.10","1.4","2023-05-13T09:26:00","120","2023/05/13","09:26:00","-15.78875184059143","35.00493116630241","5.2","13","30","64","86","1724","25108","372","1","150","149.76","117.62","32.14","29.24","46.2","16.49","90636","29.06","DUALSPOT-UV-BLUE-GREEN-RED-IR","763830","715539","904452","10.948578","2.831625","0.006366","747212","903097","765345","8.383998","2.108604","0.005787","844252","907057","815139","7.075102","1.707517","0.003988","839812","928462","865749","5.731981","1.312334","-0.000372","721657","855715","954719","4.179159","0.959968","-0.017606","67334","71074","72378","70514","73205","74110","67492","68978","69451","66984","66874","66841","65368","61917","60888",""
"MA200-0416","24552","66","1","1.10","1.4","2023-05-13T09:26:30","120","2023/05/13","09:26:30","-15.791981160640717","35.004207498859614","11.9","13","30","64","86","-3868","23608","-6852","1","150","149.80","117.58","32.22","29.29","46.1","16.52","90780","29.13","DUALSPOT-UV-BLUE-GREEN-RED-IR","762674","715305","904531","11.368092","2.950830","0.004188","742078","897713","761028","8.725168","2.203436","0.002169","843035","906539","814842","7.380688","1.789760","-0.003260","837834","926890","864497","5.992080","1.380872","-0.008743","720760","855058","954111","4.363430","1.005912","-0.030381","20956","21732","22004","21510","21820","21925","21577","21193","21070","22193","21343","21089","21893","19921","19330",""
"MA200-0416","24553","66","1","1.10","1.4","2023-05-13T09:27:00","120","2023/05/13","09:27:00","-15.795214474201202","35.00417649932206","8.4","13","30","64","86","871","23716","-5028","1","150","149.94","117.50","32.44","29.33","45.9","16.48","90840","29.19","DUALSPOT-UV-BLUE-GREEN-RED-IR","763692","717606","908153","11.625727","3.024366","0.003780","742667","899748","763212","8.924998","2.259613","0.002699","843870","908557","817065","7.550215","1.835823","-0.002801","833103","922646","860838","6.129915","1.416134","-0.017165","717797","852212","951157","4.461506","1.029487","-0.045245","12878","13316","13470","12607","12839","12918","11978","11790","11730","11768","10907","10648","11660","10153","9701",""
"MA200-0416","24554","66","1","1.10","1.4","2023-05-13T09:27:30","120","2023/05/13","09:27:30","-15.796191036701202","35.0035151662305","1.6","13","30","64","86","2756","24304","-6679","1","150","150.49","117.40","33.09","29.37","45.9","16.50","90732","29.19","DUALSPOT-UV-BLUE-GREEN-RED-IR","763878","718477","909590","11.788914","3.069162","-0.003082","742911","900707","764230","9.050277","2.291042","-0.019042","843636","908927","817557","7.656169","1.861458","-0.030020","832744","922713","861055","6.215098","1.434535","-0.070138","717129","851771","950784","4.523456","1.043444","-0.077957","8164","7952","7877","7910","7042","6747","7492","6432","6092","7279","5579","5069","7371","5892","5449",""
"MA200-0416","24555","66","1","1.10","1.4","2023-05-13T09:28:00","120","2023/05/13","09:28:00","-15.796103775501251","35.003014999907464","1.3","13","30","64","86","512","23028","-8932","1","150","149.94","117.17","32.77","29.41","45.7","16.48","90688","29.19","DUALSPOT-UV-BLUE-GREEN-RED-IR","763140","718091","909221","11.847876","3.085447","-0.001442","742442","900455","764033","9.091352","2.300674","-0.030341","842866","908310","817042","7.690388","1.868378","-0.074997","833802","924132","862388","6.242600","1.439273","-0.159547","717176","851955","950995","4.542804","1.045547","-0.849275","2955","2919","2906","2598","2179","2036","2424","1753","1537","2354","1450","1179","2306","896","474",""
"MA200-0416","24556","66","1","1.10","1.4","2023-05-13T09:28:30","120","2023/05/13","09:28:30","-15.795637488365173","35.00285849976353","0.1","13","30","64","86","-728","24012","-6272","1","150","149.51","117.50","32.00","29.45","45.5","16.45","90688","29.25","DUALSPOT-UV-BLUE-GREEN-RED-IR","763330","718527","909910","11.899101","3.100376","0.007268","742694","900975","764584","9.127485","2.310604","0.001296","838665","903969","813201","7.718748","1.874744","-0.039200","834110","924613","862893","6.264992","1.442945","-0.170897","717552","852490","951652","4.558737","1.049430","-0.034678","2560","2739","2803","2279","2300","2307","2003","1651","1538","1911","1151","923","1894","1695","1635",""
"MA200-0416","24557","66","1","1.10","1.4","2023-05-13T09:29:00","120","2023/05/13","09:29:00","-15.795633018016815","35.002858832944185","0.1","13","30","64","85","-775","24100","-6150","1","150","150.36","117.46","32.90","29.48","45.4","16.44","90684","29.25","DUALSPOT-UV-BLUE-GREEN-RED-IR","762144","717668","908967","11.950464","3.114959","0.001523","742016","900400","764144","9.159913","2.318805","-0.016296","841634","907421","816311","7.745504","1.880365","-0.063621","831844","922263","860686","6.285144","1.446366","-0.166664","716042","850792","949787","4.575857","1.054090","-0.008337","2568","2603","2615","2046","1848","1780","1891","1418","1266","1721","1043","840","2036","1978","1961",""
"MA200-0416","24558","66","1","1.10","1.4","2023-05-13T09:29:30","120","2023/05/13","09:29:30","-15.795659482479095","35.002905666362494","3.5","13","30","64","86","808","24484","-1619","1","150","149.83","117.30","32.53","29.51","45.4","16.47","90688","29.31","DUALSPOT-UV-BLUE-GREEN-RED-IR","758164","714169","904638","11.996777","3.126506","-0.013162","739042","896982","761302","9.190975","2.324485","-0.091139","839205","904937","814143","7.769555","1.882791","-0.674112","835929","926958","865091","6.304078","1.448392","-0.623425","718187","853474","952784","4.588348","1.054954","-8.373998","2318","2085","2002","1963","1294","1068","1702","619","272","1619","625","328","1487","371","37",""
"MA200-0416","24559","66","1","1.10","1.4","2023-05-13T09:30:00","120","2023/05/13","09:30:00","-15.7959423661232","35.00286533287726","0.1","13","30","64","86","512","24280","-5068","1","150","150.16","116.87","33.29","29.56","45.4","16.52","90692","29.38","DUALSPOT-UV-BLUE-GREEN-RED-IR","758646","714907","905655","12.047552","3.139465","-0.013616","739906","898260","762422","9.224983","2.331281","-0.072134","840333","906348","815468","7.797384","1.889067","-0.048658","837185","928498","866574","6.323881","1.451099","-0.328900","719014","854543","954034","4.604942","1.058614","-0.090073","2551","2286","2192","2157","1513","1295","1977","1564","1433","1700","815","551","1983","1535","1402",""
"MA200-0416","24560","66","1","1.10","1.4","2023-05-13T09:30:30","120","2023/05/13","09:30:30","-15.796106934547424","35.003019999712706","0.5","13","30","64","85","-1536","24096","-4456","1","150","149.60","116.83","32.77","29.60","45.4","16.56","90704","29.38","DUALSPOT-UV-BLUE-GREEN-RED-IR","758832","715337","906333","12.098013","3.153240","-0.003097","740189","898889","763001","9.259506","2.338052","-0.072685","839864","906072","815228","7.823694","1.892542","-0.295214","835784","927103","865287","6.344144","1.452422","-30.990509","718538","854110","953566","4.621742","1.060531","-0.723666","2536","2469","2445","2190","1531","1309","1869","880","564","1740","405","8","2008","817","462",""
"MA200-0416","24561","66","1","1.10","1.4","2023-05-13T09:31:00","120","2023/05/13","09:31:00","-15.796190202236176","35.00343449995853","0.4","13","30","64","86","-2884","24036","-4212","1","150","149.67","116.97","32.70","29.63","45.4","16.58","90728","29.44","DUALSPOT-UV-BLUE-GREEN-RED-IR","760518","717160","908787","12.145332","3.166790","0.002620","741782","901009","764843","9.289260","2.345556","-0.016224","840845","907313","816373","7.849419","1.897275","-0.104662","831091","922097","860602","6.364115","1.455020","-0.354611","719891","855818","955503","4.637102","1.064071","-0.063640","2376","2433","2454","1885","1701","1638","1825","1201","1002","1712","797","525","1834","1512","1416",""
"MA200-0416","24562","66","1","1.10","1.4","2023-05-13T09:31:30","120","2023/05/13","09:31:30","-15.795896351337433","35.00413766596466","3.0","13","30","64","86","-2788","23772","-5248","1","150","149.93","117.02","32.91","29.67","45.3","16.58","90796","29.50","DUALSPOT-UV-BLUE-GREEN-RED-IR","753895","711343","901583","12.218658","3.186323","-0.006297","742271","901994","765823","9.339324","2.358001","-0.019686","840719","907470","816618","7.888925","1.907455","-0.015734","832222","923561","862063","6.392830","1.460511","-0.110992","715238","850473","949539","4.659513","1.067689","-0.265037","3680","3486","3417","3171","2803","2679","2802","2568","2493","2462","1673","1440","2675","1535","1197",""
"MA200-0416","24563","66","1","1.10","1.4","2023-05-13T09:32:00","120","2023/05/13","09:32:00","-15.794618904590607","35.00417049927637","8.4","13","30","64","86","-1156","23556","-6300","1","150","150.14","117.29","32.85","29.72","45.2","16.58","90872","29.50","DUALSPOT-UV-BLUE-GREEN-RED-IR","762114","719602","912362","12.307831","3.210529","-0.003531","737425","896560","761360","9.402456","2.374000","-0.015518","841957","909241","818329","7.941038","1.919049","-0.046858","833611","925485","863923","6.434772","1.469183","-0.079766","716007","851625","950922","4.690355","1.074000","-0.114541","4465","4327","4279","3990","3610","3482","3688","2930","2688","3587","2648","2370","3673","2683","2389",""
"MA200-0416","24564","66","1","1.10","1.4","2023-05-13T09:32:30","120","2023/05/13","09:32:30","-15.793196380138397","35.00424716575071","4.9","13","30","64","86","3471","24212","-4476","1","150","149.70","117.14","32.55","29.75","45.0","16.53","90888","29.50","DUALSPOT-UV-BLUE-GREEN-RED-IR","754071","712977","904384","12.452347","3.251417","0.001922","737391","897456","762397","9.509707","2.403068","-0.003596","836832","904483","814301","8.029937","1.941215","-0.019522","832636","925059","863748","6.505726","1.486802","-0.024600","716020","852088","951569","4.743131","1.086273","-0.056608","7246","7377","7423","6787","6619","6562","6300","5653","5446","6076","5430","5238","6293","5266","4961",""
"MA200-0416","24565","66","1","1.10","1.4","2023-05-13T09:33:00","120","2023/05/13","09:33:00","-15.791230857372284","35.00433966610581","7.1","13","30","64","86","1168","23980","-3976","1","150","150.56","117.42","33.13","29.78","44.8","16.50","90712","29.56","DUALSPOT-UV-BLUE-GREEN-RED-IR","736259","707651","903902","14.157476","3.754114","0.004055","722938","892136","762269","10.950768","2.820833","0.003244","822303","899541","813825","9.270985","2.295428","0.001616","822145","922716","864999","7.545808","1.775128","-0.003125","708339","849370","951230","5.508444","1.289448","-0.015206","85292","89109","90487","90979","93466","94330","87747","88751","89082","88866","87300","86819","91047","85658","84010",""
"MA200-0416","24566","66","1","1.10","1.4","2023-05-13T09:33:30","120","2023/05/13","09:33:30","-15.789205014705658","35.0047721657902","8.6","13","30","64","85","434","24411","-4165","1","150","149.59","117.04","32.55","29.81","44.5","16.43","90612","29.56","DUALSPOT-UV-BLUE-GREEN-RED-IR","729772","706643","905489","15.860214","4.266302","0.006341","717364","890728","762979","12.345390","3.233244","0.006411","816673","898334","814470","10.498470","2.648872","0.004315","816592","920779","864749","8.579746","2.068150","0.002871","705089","848339","951242","6.250692","1.486250","-0.010395","85448","92432","95002","88332","93935","95924","87069","90159","91201","88627","90325","90865","88589","84469","83184",""
"MA200-0416","24567","66","1","1.10","1.4","2023-05-13T09:34:00","120","2023/05/13","09:34:00","-15.78810828924179","35.00195816671476","14.9","13","30","64","86","-312","23740","-6240","1","150","150.21","116.88","33.34","29.86","44.3","16.40","90756","29.56","DUALSPOT-UV-BLUE-GREEN-RED-IR","727794","706009","905568","16.184666","4.365442","0.005494","715962","890209","763174","12.607128","3.311964","0.005454","815600","898282","815020","10.723913","2.714902","0.003235","817209","922460","866832","8.767514","2.121789","0.000227","705191","849210","952511","6.386057","1.520765","-0.025331","16305","17467","17896","16601","17505","17827","16014","16444","16589","16118","16142","16150","16179","14462","13926",""
"MA200-0416","24568","66","1","1.10","1.4","2023-05-13T09:34:30","120","2023/05/13","09:34:30","-15.786779463291168","35.00095766666345","3.8","13","30","64","85","2808","24300","-4820","1","150","149.42","116.92","32.50","29.89","44.1","16.37","90648","29.63","DUALSPOT-UV-BLUE-GREEN-RED-IR","726067","704680","904054","16.255613","4.399093","0.030268","714415","888634","761945","12.659161","3.341926","0.046833","813555","896292","813310","10.768873","2.740907","0.054961","814742","919939","864526","8.802658","2.141225","0.064381","703523","847378","950501","6.413412","1.531743","0.057430","3564","6082","7016","3299","6835","8103","3192","6643","7822","3015","6000","6960","3268","4719","5174",""
"MA200-0416","24569","66","1","1.10","1.4","2023-05-13T09:35:00","120","2023/05/13","09:35:00","-15.784804224967957","35.001274333219044","10.0","13","30","64","86","2438","24100","-5792","1","150","149.33","116.71","32.62","29.91","44.0","16.33","90472","29.63","DUALSPOT-UV-BLUE-GREEN-RED-IR","727323","706284","906305","16.328779","4.419851","0.001239","715582","890461","763622","12.715063","3.355260","-0.019555","814363","897507","814488","10.815919","2.752018","-0.024282","816294","921944","866494","8.839207","2.149832","-0.029721","704254","848441","951769","6.439991","1.537411","-0.070167","3682","3737","3758","3550","3030","2843","3346","2827","2650","3141","2647","2488","3181","2427","2191",""
"MA200-0416","24570","66","1","1.10","1.4","2023-05-13T09:35:30","120","2023/05/13","09:35:30","-15.784004509449005","35.00137699977495","0.0","13","30","64","85","1464","24188","-6132","1","150","149.64","117.24","32.39","29.93","43.9","16.31","90440","29.63","DUALSPOT-UV-BLUE-GREEN-RED-IR","727039","707322","908363","16.559971","4.487283","0.004291","715426","891624","765053","12.900565","3.407259","0.001514","813459","897730","815098","10.972928","2.793103","-0.006950","815646","922254","867105","8.966556","2.180368","-0.023575","704021","848807","952405","6.527094","1.559052","-0.023356","11581","12227","12467","11729","11901","11962","11118","10530","10330","10897","9458","8995","10378","9333","9005",""
"MA200-0416","24571","66","1","1.10","1.4","2023-05-13T09:36:00","120","2023/05/13","09:36:00","-15.783679723739624","35.003116666805","3.8","13","30","64","85","-3384","24020","-6564","1","150","150.03","117.06","32.96","29.96","43.9","16.34","90444","29.63","DUALSPOT-UV-BLUE-GREEN-RED-IR","724310","706358","907884","16.912594","4.583835","-0.002328","712997","890287","764389","13.173089","3.476078","-0.012379","811965","897530","815313","11.200941","2.848255","-0.020818","807824","914569","860181","9.148376","2.222544","-0.033162","703429","848814","952628","6.647909","1.584629","-0.072711","17692","17203","17022","17258","15476","14838","16170","13890","13113","15582","12836","11955","14417","10838","9719",""
"MA200-0416","24572","66","1","1.10","1.4","2023-05-13T09:36:30","120","2023/05/13","09:36:30","-15.783090949058533","35.00316249975003","10.6","13","30","64","85","-176","24096","-5492","1","150","149.94","117.13","32.81","29.98","43.9","16.36","90388","29.63","DUALSPOT-UV-BLUE-GREEN-RED-IR","724842","707354","909456","17.017466","4.614454","0.003221","708761","885474","760399","13.253037","3.497709","-0.003673","812366","898406","816239","11.271962","2.864896","-0.024912","808294","915457","861119","9.202778","2.233910","-0.054888","703681","849395","953352","6.685982","1.592495","-0.078611","5259","5481","5564","5060","4887","4825","5034","4211","3930","4659","3475","3096","4540","3349","2976",""
"MA200-0416","24573","66","1","1.10","1.4","2023-05-13T09:37:00","120","2023/05/13","09:37:00","-15.782378196716309","35.00084799993783","10.5","13","30","64","85","-580","23712","-4560","1","150","149.63","117.02","32.61","30.02","43.8","16.36","90284","29.69","DUALSPOT-UV-BLUE-GREEN-RED-IR","722555","705584","907419","17.098300","4.638674","0.005478","711924","889912","764344","13.314583","3.513874","-0.006347","810866","897085","815165","11.321787","2.877723","-0.010028","807011","914365","860170","9.245089","2.243513","-0.035084","702461","848141","952023","6.715269","1.598930","-0.057180","4057","4362","4476","3898","3675","3594","3534","3265","3174","3627","2954","2739","3496","2757","2526",""
"MA200-0416","24574","66","1","1.10","1.4","2023-05-13T09:37:30","120","2023/05/13","09:37:30","-15.781017899513245","34.99868047237396","10.2","13","30","64","85","-1648","23580","-5740","1","150","149.76","116.79","32.98","30.04","43.7","16.33","90452","29.69","DUALSPOT-UV-BLUE-GREEN-RED-IR","716974","700945","901867","17.243302","4.681297","0.003090","708496","886417","761598","13.423476","3.543306","-0.004598","811870","898891","817057","11.413606","2.902078","-0.007756","809303","917516","863317","9.318040","2.261853","-0.018179","703717","850052","954292","6.768135","1.611403","-0.040670","7292","7591","7703","6912","6616","6510","6527","6131","5996","6267","5579","5359","6323","5283","4958",""
"MA200-0416","24575","66","1","1.10","1.4","2023-05-13T09:38:00","120","2023/05/13","09:38:00","-15.778014719486237","34.99816435575485","10.3","13","30","64","85","492","24252","-5916","1","150","150.14","117.21","32.93","30.07","43.6","16.32","90688","29.75","DUALSPOT-UV-BLUE-GREEN-RED-IR","715203","700002","901062","17.413344","4.731153","0.003234","707357","885706","761244","13.551752","3.579033","-0.000893","809874","897363","815866","11.523866","2.931100","-0.008046","806346","914698","860843","9.406620","2.283484","-0.022225","702394","848787","953000","6.831787","1.627048","-0.028802","8521","8891","9029","8113","8041","8016","7810","7315","7147","7582","6589","6271","7586","6636","6338",""
"MA200-0416","24576","66","1","1.10","1.4","2023-05-13T09:38:30","120","2023/05/13","09:38:30","-15.775663077831268","34.99752289056778","13.5","13","30","64","85","-2404","24972","-4980","1","150","149.76","117.06","32.70","30.10","43.5","16.31","90784","29.75","DUALSPOT-UV-BLUE-GREEN-RED-IR","716944","702318","904343","17.548282","4.768018","-0.001770","708343","887494","762933","13.646536","3.601743","-0.017551","807408","895123","813945","11.600897","2.948689","-0.027931","809728","918979","864958","9.466256","2.295822","-0.054993","704144","851142","955718","6.872907","1.635172","-0.090720","6770","6621","6566","6002","5148","4842","5463","4465","4126","5110","3785","3361","4906","3470","3022",""
"MA200-0416","24577","66","1","1.10","1.4","2023-05-13T09:39:00","120","2023/05/13","09:39:00","-15.773316323757172","34.99695873260498","4.5","13","30","64","85","-2080","24592","-1952","1","150","149.34","116.63","32.71","30.12","43.4","16.30","90928","29.81","DUALSPOT-UV-BLUE-GREEN-RED-IR","717724","703488","906057","17.610502","4.785379","-0.000405","709102","888849","764211","13.690392","3.613575","-0.003992","807287","895275","814153","11.635822","2.955985","-0.044693","809388","918815","864862","9.495521","2.301890","-0.055265","699524","845777","949743","6.895870","1.639375","-0.121441","3133","3117","3111","2787","2681","2643","2486","1851","1635","2517","1861","1651","2750","1794","1496",""
"MA200-0416","24578","66","1","1.10","1.4","2023-05-13T09:39:30","120","2023/05/13","09:39:30","-15.772627770900726","34.99726551771164","2.8","13","30","64","85","-1819","23936","-6336","1","150","150.01","116.74","33.26","30.16","43.4","16.33","90972","29.81","DUALSPOT-UV-BLUE-GREEN-RED-IR","715644","703058","906157","17.911006","4.855226","-0.018881","707844","888549","764263","13.872747","3.654207","-0.030293","806254","895093","814225","11.773733","2.986210","-0.038014","809459","919623","865786","9.596816","2.322382","-0.064559","703706","851366","956140","6.972736","1.653619","-0.121331","15118","12333","11298","11579","9055","8153","9807","7544","6775","8705","6180","5375","9197","5982","4982",""
"MA200-0416","24579","66","1","1.10","1.4","2023-05-13T09:40:00","120","2023/05/13","09:40:00","-15.772236704826355","34.997667729854584","1.8","13","30","64","85","-2536","23364","-6611","1","150","150.17","117.08","33.09","30.18","43.3","16.32","91004","29.88","DUALSPOT-UV-BLUE-GREEN-RED-IR","713118","702590","906344","18.301948","4.949026","-0.014269","706751","888624","764712","14.102655","3.710897","-0.014845","805140","895015","814474","11.946977","3.027773","-0.021252","802378","912409","859275","9.721342","2.351898","-0.027813","699050","846318","950685","7.066683","1.674212","-0.058964","19612","16649","15550","14556","12700","12036","12284","10427","9797","10670","8948","8399","11208","8693","7912",""
"MA200-0416","24580","66","1","1.10","1.4","2023-05-13T09:40:30","120","2023/05/13","09:40:30","-15.77205365896225","34.99816334247589","2.4","13","30","64","85","-2888","23928","-5112","1","150","150.09","117.30","32.79","30.21","43.4","16.38","91068","29.94","DUALSPOT-UV-BLUE-GREEN-RED-IR","713698","704573","909486","18.556784","5.009868","-0.013462","701650","883230","760362","14.251388","3.746338","-0.017565","805666","896330","815876","12.053445","3.052621","-0.023548","802950","913613","860522","9.790834","2.365905","-0.059434","699361","847028","951559","7.118705","1.685179","-0.066748","12760","10898","10209","9399","8012","7517","7535","6291","5869","5943","4285","3757","6195","4672","4199",""
"MA200-0416","24581","66","1","1.10","1.4","2023-05-13T09:41:00","120","2023/05/13","09:41:00","-15.77221804857254","34.99843353033066","3.1","13","30","64","85","-1943","23080","-6675","1","150","149.73","116.25","33.48","30.24","43.4","16.42","91096","29.94","DUALSPOT-UV-BLUE-GREEN-RED-IR","711495","703180","908001","18.691132","5.041906","-0.016471","699810","881473","759028","14.332072","3.764011","-0.033542","804759","895786","815485","12.114385","3.065955","-0.039135","801883","912719","859750","9.832616","2.374238","-0.069312","698693","846454","950990","7.149065","1.689933","-0.207596","6787","5621","5190","5145","3913","3474","4352","3306","2952","3605","2497","2144","3648","1983","1468",""
"MA200-0416","24582","66","1","1.10","1.4","2023-05-13T09:41:30","120","2023/05/13","09:41:30","-15.77309250831604","34.99911147356033","3.7","13","30","64","85","-2096","23272","-4124","1","150","150.28","117.29","32.99","30.27","43.4","16.46","91172","30.00","DUALSPOT-UV-BLUE-GREEN-RED-IR","706622","699862","904325","18.977836","5.112022","-0.011456","701951","885357","762655","14.500905","3.803934","-0.018988","805242","897238","817067","12.240730","3.092885","-0.039164","804277","916120","863134","9.926462","2.394575","-0.043686","700017","848550","953480","7.219896","1.704451","-0.076262","14357","12483","11793","10670","8971","8366","8943","6777","6045","8027","6184","5599","8435","6147","5440",""
"MA200-0416","24583","66","1","1.10","1.4","2023-05-13T09:42:00","120","2023/05/13","09:42:00","-15.77321583032608","34.99980282783508","5.1","13","30","64","85","3012","22392","-10304","1","150","149.45","116.79","32.66","30.31","43.5","16.52","91196","30.06","DUALSPOT-UV-BLUE-GREEN-RED-IR","705689","700158","905271","19.210472","5.170305","-0.008649","701023","885119","762736","14.641671","3.838903","-0.012179","804687","897339","817382","12.348650","3.118741","-0.019204","805325","917897","864962","10.007529","2.411425","-0.051077","700007","848981","954072","7.280895","1.715838","-0.105741","11700","10481","10033","8935","7937","7583","7671","6572","6201","6964","5176","4608","7296","4870","4122",""
"MA200-0416","24584","66","1","1.10","1.4","2023-05-13T09:42:30","120","2023/05/13","09:42:30","-15.7698974609375","35.00004516666377","12.4","13","30","64","85","-358","24304","-4108","1","150","149.87","116.96","32.91","30.35","43.4","16.53","91328","30.06","DUALSPOT-UV-BLUE-GREEN-RED-IR","705578","701111","907070","19.450628","5.236967","-0.000962","701298","886369","764101","14.793740","3.879549","-0.004918","800861","893781","814342","12.469789","3.149282","-0.012948","806095","919336","866466","10.096915","2.432406","-0.027665","700836","850360","955725","7.345432","1.728793","-0.081595","12060","11898","11838","9638","9156","8984","8598","7705","7403","7667","6396","5993","7708","5499","4819",""
"MA200-0416","24585","66","1","1.10","1.4","2023-05-13T09:43:00","120","2023/05/13","09:43:00","-15.766071319580078","34.99952608346939","15.3","13","30","64","85","-696","23769","-7488","1","150","150.29","116.95","33.35","30.37","43.2","16.45","91416","30.13","DUALSPOT-UV-BLUE-GREEN-RED-IR","705640","701754","908208","19.540674","5.263468","0.002152","701430","886977","764781","14.854265","3.896280","-0.002911","800611","893873","814571","12.517158","3.161734","-0.009326","806440","919997","867207","10.132120","2.440488","-0.034092","700770","850505","955955","7.374353","1.735279","-0.052540","4522","4667","4721","3836","3719","3677","3362","3100","3011","3020","2431","2244","3454","2717","2489",""
"MA200-0416","24586","66","1","1.10","1.4","2023-05-13T09:43:30","120","2023/05/13","09:43:30","-15.761847376823425","35.000062666666054","17.0","13","30","64","85","-1087","23654","-6720","1","150","149.62","116.86","32.76","30.40","42.9","16.39","91580","30.13","DUALSPOT-UV-BLUE-GREEN-RED-IR","704575","701221","907754","19.670788","5.302360","0.004233","701045","886915","764846","14.932852","3.918935","0.002486","800431","894016","814789","12.577725","3.177327","-0.009747","799383","912254","859965","10.178751","2.451104","-0.032302","700598","850502","956028","7.406492","1.741656","-0.083439","6539","6973","7133","4985","5127","5177","4303","3951","3833","4003","3251","3012","3841","2719","2374",""
"MA200-0416","24587","66","1","1.10","1.4","2023-05-13T09:44:00","120","2023/05/13","09:44:00","-15.757983028888702","35.00190116651356","16.2","13","30","64","84","-816","24068","-5276","1","150","149.76","117.10","32.66","30.44","42.6","16.30","91768","30.13","DUALSPOT-UV-BLUE-GREEN-RED-IR","704553","701518","908350","19.736460","5.322273","0.005405","701175","887336","765325","14.977406","3.931606","0.001744","799857","893633","814510","12.614207","3.187167","-0.003649","799777","912897","860632","10.206108","2.457642","-0.022745","696135","845220","950084","7.426840","1.744402","-0.278896","3293","3581","3687","2820","2876","2896","2586","2501","2472","2343","2008","1902","2427","1174","790",""
"MA200-0416","24588","66","1","1.10","1.4","2023-05-13T09:44:30","120","2023/05/13","09:44:30","-15.753750503063202","35.002586332848296","15.5","13","30","64","84","-396","23632","-7060","1","150","149.83","116.91","32.92","30.47","42.3","16.23","0","0.00","DUALSPOT-UV-BLUE-GREEN-RED-IR","704870","702134","909231","19.795660","5.337648","-0.006025","701253","887766","765764","15.021040","3.942348","-0.013709","800302","894349","815209","12.650630","3.194981","-0.036977","799262","912494","860283","10.232113","2.461511","-0.160300","695943","845146","950069","7.447962","1.748570","-0.086302","2974","2742","2657","2766","2418","2294","2586","1970","1762","2231","1178","845","2523","1768","1536",""
"MA200-0416","24589","66","1","1.10","1.4","2023-05-13T09:45:00","120","2023/05/13","09:45:00","-15.750530540943146","35.004453165922314","12.2","13","30","64","84","-2619","23730","-6757","1","150","149.86","116.89","32.97","30.49","42.1","16.14","0","0.00","DUALSPOT-UV-BLUE-GREEN-RED-IR","702973","700448","907188","19.836080","5.347883","-0.008196","699863","886173","764438","15.047505","3.947694","-0.041528","798911","892956","813996","12.672418","3.198999","-0.068023","797554","910690","858621","10.251540","2.464789","-0.109451","699307","849312","954762","7.461807","1.751988","-0.026073","2031","1823","1747","1678","1202","1032","1547","1011","831","1667","997","785","1654","1448","1385",""
"MA200-0416","24590","66","1","1.10","1.4","2023-05-13T09:45:30","120","2023/05/13","09:45:30","-15.749240279197693","35.0063068321906","6.9","13","30","64","84","148","24240","-5388","1","150","149.73","117.46","32.27","30.52","42.0","16.15","92104","30.19","DUALSPOT-UV-BLUE-GREEN-RED-IR","698455","696425","902225","19.924046","5.373792","0.004516","696077","881855","760890","15.116590","3.965557","-0.005723","799859","894468","815493","12.729009","3.212255","-0.019275","799239","912984","860843","10.295156","2.473682","-0.049885","700191","850599","956264","7.493030","1.757859","-0.093608","4398","4716","4833","4359","4103","4012","3999","3410","3211","3725","2764","2461","3713","2541","2182",""
"MA200-0416","24591","66","1","1.10","1.4","2023-05-13T09:46:00","120","2023/05/13","09:46:00","-15.748563170433044","35.006911165546626","1.9","13","30","64","85","725","23804","-6133","1","150","150.04","117.12","32.92","30.54","42.0","16.18","92076","30.19","DUALSPOT-UV-BLUE-GREEN-RED-IR","697395","696050","902134","20.047970","5.411449","0.004990","695180","881366","760641","15.202555","3.988947","-0.002980","799031","894100","815305","12.799884","3.229451","-0.017489","800055","914288","862244","10.349802","2.486879","-0.021976","695732","845517","950662","7.532305","1.764853","-0.121804","6214","6719","6905","5441","5267","5205","5024","4337","4105","4681","4022","3813","4684","2968","2443",""
"MA200-0416","24592","66","1","1.10","1.4","2023-05-13T09:46:30","120","2023/05/13","09:46:30","-15.748400032520294","35.00642199907452","2.6","13","30","64","84","720","24012","-5376","1","150","150.36","116.75","33.61","30.56","42.1","16.22","92044","30.19","DUALSPOT-UV-BLUE-GREEN-RED-IR","695838","695721","902352","20.318920","5.493294","0.003106","694804","881971","761454","15.376325","4.032905","-0.012805","798138","893952","815447","12.941188","3.263765","-0.020460","798691","913516","861676","10.460685","2.509969","-0.054725","699442","850454","956325","7.606628","1.779571","-0.090431","13631","14301","14550","11034","9695","9219","10048","8475","7945","9528","6892","6059","8893","6116","5268",""
"MA200-0416","24593","66","1","1.10","1.4","2023-05-13T09:47:00","120","2023/05/13","09:47:00","-15.747706830501556","35.006445832084864","3.1","13","30","64","84","320","23940","-5852","1","150","150.01","116.82","33.18","30.61","42.1","16.26","92000","30.19","DUALSPOT-UV-BLUE-GREEN-RED-IR","696517","696592","903591","20.364840","5.507231","0.004212","695224","882615","762069","15.408113","4.041547","-0.003999","798510","894517","815992","12.966450","3.269285","-0.034419","799297","914299","862403","10.479089","2.512407","-0.224879","695512","845772","951066","7.621170","1.782962","-0.040015","2308","2466","2525","2017","1930","1900","1795","1380","1241","1580","736","470","1738","1427","1332",""
"MA200-0416","24594","66","1","1.10","1.4","2023-05-13T09:47:30","120","2023/05/13","09:47:30","-15.747035205364227","35.006637998856604","2.2","13","30","64","84","1496","24368","-4796","1","150","149.76","116.51","33.26","30.63","42.1","16.28","91956","30.25","DUALSPOT-UV-BLUE-GREEN-RED-IR","696202","696624","903800","20.427598","5.523561","-0.006746","695354","883112","762586","15.446838","4.050607","-0.020952","797959","894159","815713","12.996469","3.274422","-0.088644","799928","915258","863339","10.502797","2.516907","-0.074980","695358","845704","951057","7.639009","1.786273","-0.110057","3163","2884","2780","2464","2019","1861","2139","1282","994","2041","1357","1142","2138","1390","1162",""
"MA200-0416","24595","66","1","1.10","1.4","2023-05-13T09:48:00","120","2023/05/13","09:48:00","-15.74641627073288","35.006776332855225","2.5","13","30","64","84","696","23957","-4469","1","150","150.16","116.75","33.41","30.66","42.1","16.31","91904","30.25","DUALSPOT-UV-BLUE-GREEN-RED-IR","697033","697827","905587","20.506434","5.546592","0.001346","696055","884337","763734","15.499258","4.064256","-0.008993","798874","895432","816941","13.033945","3.283840","-0.014951","800775","916390","864469","10.528338","2.521521","-0.089475","696329","847014","952578","7.657984","1.788902","-0.268845","3966","4048","4078","3328","3028","2921","2665","2339","2230","2194","1385","1130","2270","1099","742",""
"MA200-0416","24596","66","1","1.10","1.4","2023-05-13T09:48:30","120","2023/05/13","09:48:30","-15.745878338813782","35.00678316550329","2.5","14","30","64","84","-237","23937","-7808","1","150","150.62","117.27","33.34","30.69","42.0","16.32","91884","30.31","DUALSPOT-UV-BLUE-GREEN-RED-IR","697592","698673","906855","20.568308","5.563747","-0.001717","695948","884428","763880","15.536736","4.073352","-0.015931","799270","896035","817547","13.063828","3.289562","-0.059273","802323","918308","866293","10.546974","2.524293","-0.159404","696587","847441","953043","7.671865","1.792319","-0.027685","3098","3021","2993","2369","2022","1899","2115","1424","1192","1594","833","594","1653","1431","1363",""
"MA200-0416","24597","66","1","1.10","1.4","2023-05-13T09:49:00","120","2023/05/13","09:49:00","-15.746185719966888","35.00597983179614","3.0","14","30","64","84","-904","24604","-6304","1","150","150.03","116.91","33.12","30.72","41.9","16.31","91920","30.38","DUALSPOT-UV-BLUE-GREEN-RED-IR","698736","700017","908696","20.609486","5.575529","0.000646","691789","879297","759507","15.562726","4.080982","0.002997","796204","892746","814569","13.083644","3.294783","-0.007894","802646","918768","866767","10.562358","2.527403","-0.057100","697248","848314","954049","7.684177","1.794706","-0.091153","2068","2089","2096","1648","1707","1728","1407","1308","1275","1320","942","823","1471","1006","865",""
"MA200-0416","24598","66","1","1.10","1.4","2023-05-13T09:49:30","120","2023/05/13","09:49:30","-15.746527373790741","35.00477683264762","3.6","14","30","64","84","-876","23992","-4688","1","150","149.64","116.99","32.65","30.72","41.9","16.31","91936","30.38","DUALSPOT-UV-BLUE-GREEN-RED-IR","697102","698590","906917","20.647336","5.586265","0.001064","695963","884767","764259","15.586207","4.084606","-0.098581","794475","890895","812932","13.101634","3.297692","-0.098007","801322","917394","865484","10.576441","2.528238","2.785962","695863","846686","952257","7.693296","1.795845","-0.335655","1900","1931","1942","1487","822","586","1276","739","558","1207","256","-42","1088","487","303",""
"MA200-0416","24599","66","1","1.10","1.4","2023-05-13T09:50:00","120","2023/05/13","09:50:00","-15.746892750263214","35.00419916538522","2.4","14","30","64","84","-1900","23176","-6960","1","150","150.29","117.22","33.07","30.74","42.2","16.41","91972","30.44","DUALSPOT-UV-BLUE-GREEN-RED-IR","699347","701280","910608","20.718716","5.604248","-0.008294","691988","880088","760289","15.631197","4.094350","-0.029366","796721","893746","815576","13.133207","3.303313","-0.074011","797465","913172","861501","10.596426","2.531707","-0.096451","698276","849757","955725","7.708893","1.799023","-0.073619","3576","3193","3052","2845","2184","1950","2236","1411","1133","1710","1052","845","1858","1342","1185",""
"MA200-0416","24600","66","1","1.10","1.4","2023-05-13T09:50:30","120","2023/05/13","09:50:30","-15.747256875038147","35.00364683289081","2.6","14","30","64","84","-512","24444","-7560","1","150","149.57","117.02","32.54","30.78","42.2","16.47","92008","30.50","DUALSPOT-UV-BLUE-GREEN-RED-IR","691448","693638","900807","20.781708","5.622005","0.000892","691229","879266","759671","15.667166","4.103614","-0.007097","795259","892238","814223","13.159908","3.309488","-0.022044","796265","911881","860334","10.613825","2.534360","-0.137503","697059","848374","954183","7.722023","1.801208","-0.142415","3161","3205","3221","2278","2110","2050","1894","1575","1468","1491","817","606","1567","937","746",""
"MA200-0416","24601","66","1","1.10","1.4","2023-05-13T09:51:00","120","2023/05/13","09:51:00","-15.747503101825714","35.00308766635135","1.8","14","30","64","84","-2844","23904","-4508","1","150","149.76","116.79","32.98","30.81","42.2","16.50","92060","30.50","DUALSPOT-UV-BLUE-GREEN-RED-IR","694014","696356","904455","20.822540","5.634420","0.004571","693866","882845","762812","15.692939","4.110557","-0.004225","796509","893792","815703","13.179842","3.313058","-0.072440","798518","914589","862897","10.627762","2.535510","-1.241015","698381","850034","956082","7.733387","1.804062","-0.021774","2053","2211","2269","1636","1560","1534","1417","898","724","1197","349","84","1359","1209","1163",""
"MA200-0416","24602","66","1","1.10","1.4","2023-05-13T09:51:30","120","2023/05/13","09:51:30","-15.747251868247986","35.00256449985318","3.3","14","30","64","84","-1256","25132","-2496","1","150","150.29","117.02","33.27","30.84","42.2","16.51","92136","30.50","DUALSPOT-UV-BLUE-GREEN-RED-IR","694682","697259","905794","20.870056","5.650800","0.010818","694437","883774","763688","15.722270","4.119379","0.004630","797491","895073","816934","13.203906","3.319674","-0.003487","799592","915925","864204","10.645153","2.540516","0.001544","694223","845019","950475","7.745266","1.806317","-0.098796","2384","2892","3080","1858","1965","2003","1707","1650","1632","1490","1509","1515","1418","946","803",""
"MA200-0416","24603","66","1","1.10","1.4","2023-05-13T09:52:00","120","2023/05/13","09:52:00","-15.746824204921722","35.00244583305903","0.4","14","30","64","84","1692","23936","-6896","1","150","149.89","116.68","33.21","30.87","42.1","16.52","92164","30.56","DUALSPOT-UV-BLUE-GREEN-RED-IR","694537","697599","906518","20.968850","5.682480","0.007050","694293","883925","763972","15.781301","4.135877","-0.001600","794588","892075","814271","13.247177","3.331267","-0.006438","801061","917858","866079","10.676170","2.547348","-0.039630","695442","846681","952375","7.765638","1.809469","-0.189324","4973","5602","5836","3750","3682","3658","3078","2897","2836","2667","2063","1874","2439","1325","987",""
"MA200-0416","24604","66","1","1.10","1.4","2023-05-13T09:52:30","120","2023/05/13","09:52:30","-15.747223675251007","35.00254183309153","2.5","14","30","64","84","1366","23275","-8562","1","150","150.36","116.51","33.85","30.91","42.1","16.53","92136","30.63","DUALSPOT-UV-BLUE-GREEN-RED-IR","695280","698637","908027","21.025494","5.699997","0.003858","695245","885365","765190","15.813968","4.144121","-0.013705","797557","895592","817532","13.274801","3.337103","-0.043224","801090","918019","866243","10.694150","2.549565","-0.289291","695011","846288","951916","7.780397","1.813075","-0.033648","2855","3039","3107","2078","1805","1708","1968","1431","1250","1548","657","378","1769","1488","1402",""
"MA200-0416","24605","66","1","1.10","1.4","2023-05-13T09:53:00","120","2023/05/13","09:53:00","-15.747516393661499","35.00290933297947","2.1","14","30","64","84","2868","23236","-4356","1","150","149.76","116.79","32.98","30.93","42.0","16.51","92076","30.63","DUALSPOT-UV-BLUE-GREEN-RED-IR","693315","696909","905900","21.072568","5.713957","0.003056","693763","883689","763844","15.844069","4.152715","0.000939","793221","890905","813303","13.297359","3.342968","-0.008906","793226","909137","857915","10.713010","2.553510","-0.048126","694508","845716","951348","7.790079","1.814791","-0.120944","2367","2486","2530","1910","1932","1939","1603","1476","1433","1620","1200","1069","1158","727","596",""
"MA200-0416","24606","66","1","1.10","1.4","2023-05-13T09:53:30","120","2023/05/13","09:53:30","-15.747310042381287","35.00347849982791","2.3","14","30","64","84","1545","24095","-2654","1","150","149.96","116.51","33.45","30.96","42.0","16.54","92008","30.69","DUALSPOT-UV-BLUE-GREEN-RED-IR","695772","700129","910494","21.224484","5.754381","-0.005267","690296","879927","760786","15.941407","4.175449","-0.021231","795058","893478","815762","13.371073","3.357935","-0.048039","795212","911789","860507","10.763136","2.562731","-0.082939","695879","847629","953565","7.824569","1.820384","-0.167570","7658","7097","6888","6193","5037","4627","5252","3714","3198","4316","2765","2280","4135","2335","1789",""
"MA200-0416","24607","66","1","1.10","1.4","2023-05-13T09:54:00","120","2023/05/13","09:54:00","-15.74699753522873","35.00410633254796","2.9","13","30","64","84","1036","24320","-3496","1","150","150.69","116.57","34.12","30.99","42.0","16.57","91972","30.69","DUALSPOT-UV-BLUE-GREEN-RED-IR","689836","694487","903271","21.292532","5.773279","-0.003542","690897","880934","761721","15.984926","4.185577","-0.024037","795172","893822","816156","13.404775","3.366005","-0.023923","796200","913102","861775","10.786345","2.567339","-0.067749","696336","848305","954341","7.840595","1.824193","-0.041356","3428","3253","3188","2767","2200","1999","2400","1963","1817","1997","1354","1154","1920","1559","1450",""
"MA200-0416","24608","66","1","1.10","1.4","2023-05-13T09:54:30","120","2023/05/13","09:54:30","-15.746542990207672","35.0048119998537","3.2","13","30","64","84","296","23772","-6979","1","150","149.76","116.51","33.26","31.02","42.0","16.59","91932","30.69","DUALSPOT-UV-BLUE-GREEN-RED-IR","689640","694431","903315","21.325492","5.785185","0.012520","690899","881078","761905","16.005814","4.191490","-0.000704","795613","894428","816744","13.419532","3.369485","-0.022489","797177","914320","862907","10.799325","2.568364","-1.723148","696712","848828","954942","7.850645","1.826176","-0.085637","1661","2102","2266","1328","1318","1314","1051","869","807","1117","309","57","1204","833","720",""
"MA200-0416","24609","66","1","1.10","1.4","2023-05-13T09:55:00","120","2023/05/13","09:55:00","-15.746143877506256","35.00602449802682","4.0","14","30","64","84","940","23200","-7847","1","150","149.76","117.06","32.70","31.06","41.9","16.59","91900","30.75","DUALSPOT-UV-BLUE-GREEN-RED-IR","690822","695769","905158","21.357996","5.795887","0.009225","691875","882460","763123","16.026783","4.197277","-0.001037","795099","893962","816355","13.436652","3.372609","-0.064204","797533","914835","863425","10.810939","2.570469","-0.079094","696677","848844","954960","7.860660","1.827758","-0.165969","1630","1922","2030","1327","1311","1306","1214","792","651","995","645","536","1195","675","518",""
"MA200-0416","24610","66","1","1.10","1.4","2023-05-13T09:55:30","120","2023/05/13","09:55:30","-15.7457857131958","35.00683999946341","1.7","14","30","64","84","-1004","24056","-5872","1","150","150.03","117.06","32.96","31.09","41.9","16.62","91868","30.75","DUALSPOT-UV-BLUE-GREEN-RED-IR","691064","696394","906170","21.426554","5.816217","0.003172","692134","883117","763817","16.071024","4.209549","-0.001275","792089","890851","813567","13.473021","3.382224","-0.006596","798095","915719","864336","10.839001","2.576882","-0.030280","697197","849654","955908","7.880321","1.830857","-0.170701","3439","3622","3690","2801","2760","2745","2579","2421","2368","2404","1951","1810","2346","1313","1000",""
"MA200-0416","24611","66","1","1.10","1.4","2023-05-13T09:56:00","120","2023/05/13","09:56:00","-15.745595693588257","35.00623999862","2.6","14","30","64","84","-924","23580","-7708","1","150","149.90","116.43","33.47","31.12","41.9","16.64","91888","30.81","DUALSPOT-UV-BLUE-GREEN-RED-IR","691481","697069","907185","21.486632","5.832571","-0.003655","692623","883977","764614","16.112440","4.219616","-0.016418","792379","891354","814062","13.504993","3.389120","-0.037022","798978","916810","865391","10.859631","2.581024","-0.060243","692953","844530","950212","7.896301","1.835645","0.006635","3030","2870","2810","2637","2229","2085","2279","1710","1519","1777","1241","1074","1917","1998","2023",""
"MA200-0416","24612","66","1","1.10","1.4","2023-05-13T09:56:30","120","2023/05/13","09:56:30","-15.745481789112091","35.00567366601899","1.0","14","30","64","84","-224","24152","-5836","1","150","149.90","116.51","33.39","31.15","41.8","16.65","91940","30.88","DUALSPOT-UV-BLUE-GREEN-RED-IR","691838","697666","908119","21.537176","5.846082","-0.004717","692804","884445","765060","16.142080","4.227222","-0.010234","792958","892161","814881","13.526233","3.394270","-0.019118","793544","910703","859625","10.874621","2.582597","-0.452506","693775","845624","951426","7.908649","1.837819","-0.127770","2548","2376","2313","1886","1688","1618","1513","1280","1202","1290","472","218","1480","909","736",""
"MA200-0416","24613","66","1","1.10","1.4","2023-05-13T09:57:00","120","2023/05/13","09:57:00","-15.745496809482574","35.005076832138","3.1","14","30","64","83","-1404","24036","-6216","1","150","150.49","116.75","33.74","31.19","41.8","16.66","92000","30.88","DUALSPOT-UV-BLUE-GREEN-RED-IR","690488","696670","906943","21.604962","5.867185","0.004429","692146","883869","764636","16.183462","4.237552","-0.014001","795233","894962","817480","13.557303","3.399872","-0.074362","791227","908239","857334","10.897222","2.586674","-0.089192","692564","844242","949914","7.924703","1.840216","-0.214407","3410","3673","3771","2627","2269","2142","2209","1378","1100","1942","1212","984","1920","992","711",""
"MA200-0416","24614","66","1","1.10","1.4","2023-05-13T09:57:30","120","2023/05/13","09:57:30","-15.745233356952667","35.00432666577399","2.1","14","30","64","83","-1816","25100","-5308","1","150","149.84","116.34","33.51","31.22","41.7","16.66","92040","30.94","DUALSPOT-UV-BLUE-GREEN-RED-IR","686700","693034","902379","21.645774","5.880861","0.008461","688340","879143","760636","16.209171","4.245682","0.007226","794057","893752","816401","13.577353","3.404551","-0.024990","794681","912295","861182","10.910422","2.588319","-0.266100","694688","846936","952962","7.936472","1.842016","-0.197822","2060","2397","2522","1638","1798","1855","1430","1159","1068","1138","492","291","1413","750","549",""
"MA200-0416","24615","66","1","1.10","1.4","2023-05-13T09:58:00","120","2023/05/13","09:58:00","-15.744912445545197","35.003578999545425","1.5","14","30","64","83","-2364","23860","-6148","1","150","149.95","116.77","33.17","31.25","41.6","16.67","92068","30.94","DUALSPOT-UV-BLUE-GREEN-RED-IR","686704","693382","902982","21.705702","5.897545","-0.001301","688301","879373","760870","16.244572","4.252517","-0.047171","793523","893365","816097","13.603706","3.411656","-0.005371","795315","913150","862020","10.930242","2.591384","-0.135821","694459","846761","952815","7.950241","1.845852","-0.003217","3014","2954","2931","2247","1527","1272","1873","1778","1746","1702","926","685","1647","1615","1606",""
"MA200-0416","24616","66","1","1.10","1.4","2023-05-13T09:58:30","120","2023/05/13","09:58:30","-15.744817554950714","35.00301633309573","2.4","14","30","64","84","-1280","23936","-6600","1","150","149.76","116.87","32.90","31.28","41.7","16.71","92060","31.00","DUALSPOT-UV-BLUE-GREEN-RED-IR","686513","693801","903834","21.812026","5.926038","-0.003234","688662","880303","761824","16.305298","4.268404","-0.006499","794332","894666","817376","13.647936","3.419470","-0.072358","795885","914073","862959","10.960455","2.598041","-0.036304","695094","847703","953881","7.970575","1.848507","-0.290064","5343","5087","4991","3852","3579","3483","3142","1972","1580","2593","2030","1855","2430","1127","733",""
"MA200-0416","24617","66","1","1.10","1.4","2023-05-13T09:59:00","120","2023/05/13","09:59:00","-15.744686365127563","35.002673333045095","0.5","14","30","64","83","2068","24032","-4240","1","150","150.36","117.12","33.24","31.30","41.7","16.73","92080","31.00","DUALSPOT-UV-BLUE-GREEN-RED-IR","687341","694996","905660","21.917138","5.959650","0.006758","689636","881819","763279","16.367958","4.286445","0.001170","794057","894574","817374","13.696321","3.433632","0.002922","795704","914101","863033","10.993819","2.604455","-0.066670","695030","847772","954015","7.994329","1.855268","0.000442","5271","5938","6187","3966","4023","4043","3429","3536","3572","2858","1935","1649","2833","2840","2843",""
"MA200-0416","24618","66","1","1.10","1.4","2023-05-13T09:59:30","120","2023/05/13","09:59:30","-15.744790017604828","35.00293516647071","1.8","14","30","64","83","1024","23680","-4924","1","150","149.67","116.74","32.94","31.34","41.6","16.74","92064","31.06","DUALSPOT-UV-BLUE-GREEN-RED-IR","685331","693186","903351","21.959034","5.970939","-0.002996","688226","880156","761885","16.393661","4.291273","-0.050455","793182","893701","816631","13.716042","3.436803","-0.098202","795376","913846","862823","11.010046","2.606797","-0.161410","694286","846938","953054","8.005781","1.855081","0.456319","2108","2013","1977","1632","1086","893","1402","799","597","1394","713","502","1370","-79","-516",""
"MA200-0416","24619","66","1","1.10","1.4","2023-05-13T10:00:00","120","2023/05/13","10:00:00","-15.74490362405777","35.003505333093926","2.1","14","30","64","83","203","24065","-6419","1","150","149.45","116.59","32.86","31.37","41.6","16.77","92068","31.06","DUALSPOT-UV-BLUE-GREEN-RED-IR","687782","696064","907409","22.050650","5.999651","0.006045","690117","882972","764395","16.447994","4.306526","-0.000322","791039","891556","814741","13.755938","3.446048","-0.022607","798564","917696","866522","11.040555","2.613122","-0.048025","695966","849122","955559","8.026367","1.860971","0.002413","4615","5132","5325","3454","3441","3436","2841","2335","2167","2625","1931","1715","2466","2504","2515",""
"MA200-0416","24620","66","1","1.10","1.4","2023-05-13T10:00:30","120","2023/05/13","10:00:30","-15.74527394771576","35.004413165617734","3.6","14","30","64","83","2691","23622","-7338","1","150","149.63","116.75","32.89","31.42","41.6","16.80","92032","31.13","DUALSPOT-UV-BLUE-GREEN-RED-IR","689319","698158","910384","22.103022","6.016716","0.008019","686122","878255","760431","16.480335","4.316665","0.008049","792066","893036","816180","13.780607","3.452634","-0.005435","791984","910328","859585","11.057139","2.617222","-0.017233","692278","844738","950698","8.039087","1.862472","-0.385964","2634","3047","3202","2053","2285","2367","1754","1662","1632","1425","1251","1197","1522","637","370",""
"MA200-0416","24621","66","1","1.10","1.4","2023-05-13T10:01:00","120","2023/05/13","10:01:00","-15.745442748069763","35.00521016540006","3.5","14","30","64","83","1708","24112","-5884","1","150","150.16","116.79","33.37","31.45","41.6","16.83","91984","31.19","DUALSPOT-UV-BLUE-GREEN-RED-IR","683743","692724","903447","22.196764","6.041883","-0.004087","687217","879841","761870","16.535349","4.328716","-0.027967","791944","893092","816265","13.821499","3.461056","-0.042972","793441","912174","861329","11.083805","2.620572","-0.248887","692736","845383","951434","8.059126","1.866457","-0.081317","4714","4429","4322","3492","2676","2387","2907","2095","1823","2290","1006","609","2396","1667","1448",""
"MA200-0416","24622","66","1","1.10","1.4","2023-05-13T10:01:30","120","2023/05/13","10:01:30","-15.745474457740784","35.00590416509658","2.2","14","30","64","83","-308","23988","-5200","1","150","149.34","116.96","32.38","31.50","41.5","16.86","91904","31.25","DUALSPOT-UV-BLUE-GREEN-RED-IR","684308","693556","904640","22.246012","6.056562","0.004288","687728","880737","762707","16.567957","4.336830","-0.009588","789089","890062","813503","13.847316","3.466266","-0.040882","795569","914766","863805","11.103218","2.623647","-0.114630","693516","846464","952653","8.073015","1.869343","-0.059442","2473","2662","2733","2066","1857","1783","1832","1335","1170","1665","953","732","1658","1245","1120",""
"MA200-0416","24623","66","1","1.10","1.4","2023-05-13T10:02:00","120","2023/05/13","10:02:00","-15.745664179325104","35.00665766559541","2.7","14","30","64","83","-526","23338","-7496","1","150","150.05","116.59","33.46","31.53","41.5","16.89","91872","31.31","DUALSPOT-UV-BLUE-GREEN-RED-IR","686207","695726","907577","22.296586","6.070043","-0.004863","683226","875168","757925","16.602375","4.344370","-0.028421","790626","891949","815311","13.873200","3.471243","-0.056697","796975","916529","865520","11.122388","2.627617","-0.051582","694758","848046","954492","8.089033","1.871770","-0.196746","2547","2366","2298","2188","1670","1486","1843","1234","1031","1649","1190","1048","1919","1013","740",""
"MA200-0416","24624","66","1","1.10","1.4","2023-05-13T10:02:30","120","2023/05/13","10:02:30","-15.745648801326752","35.00727816531435","2.2","14","30","64","83","-435","24404","-4756","1","150","149.76","116.79","32.98","31.57","41.4","16.89","91848","31.38","DUALSPOT-UV-BLUE-GREEN-RED-IR","686757","696469","908675","22.333002","6.082081","0.008505","689592","883448","765154","16.622860","4.350067","-0.001236","790574","892007","815379","13.890166","3.475284","-0.018967","797105","916805","865793","11.136294","2.629036","-0.458219","694936","848357","954852","8.099184","1.873569","-0.116097","1831","2143","2260","1300","1280","1274","1206","1017","954","1194","431","195","1214","761","625",""
"MA200-0416","24625","66","1","1.10","1.4","2023-05-13T10:03:00","120","2023/05/13","10:03:00","-15.745498597621918","35.00788366701454","2.7","14","30","64","83","-456","23884","-6036","1","150","149.99","117.16","32.83","31.61","41.4","16.89","91824","31.44","DUALSPOT-UV-BLUE-GREEN-RED-IR","685342","695203","907123","22.373054","6.094410","0.005338","688628","882411","764294","16.649860","4.357393","-0.002694","789960","891446","814911","13.912065","3.479236","-0.064921","790023","908760","858214","11.149863","2.629936","-84.596169","694279","847648","954059","8.113218","1.876386","-0.072034","2007","2206","2280","1708","1654","1635","1551","999","815","1161","275","1","1673","1198","1056",""
"MA200-0416","24626","66","1","1.10","1.4","2023-05-13T10:03:30","120","2023/05/13","10:03:30","-15.74529242515564","35.008660331368446","2.9","14","30","64","83","-380","23944","-5748","1","150","150.13","116.93","33.19","31.66","41.3","16.89","91812","31.44","DUALSPOT-UV-BLUE-GREEN-RED-IR","687838","698032","910970","22.422292","6.108665","0.001187","685224","878326","760854","16.684147","4.365415","-0.018712","791193","893084","816484","13.939135","3.485912","-0.015221","792225","911478","860818","11.172759","2.634490","-0.057641","695387","849124","955831","8.130174","1.880252","-0.042321","2473","2522","2540","2173","1791","1656","1921","1669","1585","1964","1376","1194","2025","1627","1507",""
"MA200-0416","24627","66","1","1.10","1.4","2023-05-13T10:04:00","120","2023/05/13","10:04:00","-15.745076537132263","35.009302496910095","2.5","14","30","64","83","668","23600","-7456","1","150","149.53","117.29","32.23","31.70","41.1","16.88","91784","31.50","DUALSPOT-UV-BLUE-GREEN-RED-IR","683149","693487","905173","22.475412","6.124922","0.006013","686790","880494","762776","16.717478","4.374029","-0.005262","788654","890380","814024","13.965794","3.490912","-0.052551","793713","913298","862510","11.191969","2.635568","2.287998","692084","845180","951376","8.146223","1.882397","-0.247007","2660","2962","3075","2106","1980","1936","1887","1287","1088","1643","335","-66","1911","929","634",""
"MA200-0416","24628","66","1","1.10","1.4","2023-05-13T10:04:30","120","2023/05/13","10:04:30","-15.744975328445435","35.00980116520077","1.8","14","30","64","83","1648","23216","-8816","1","150","149.53","117.17","32.35","31.73","41.1","16.88","91756","31.50","DUALSPOT-UV-BLUE-GREEN-RED-IR","683967","694531","906631","22.515502","6.135654","-0.001936","687369","881394","763608","16.743073","4.379928","-0.017192","789517","891518","815079","13.986219","3.493929","-0.116663","794572","914441","863620","11.208954","2.638543","-0.081837","692483","845772","952067","8.158424","1.884371","-0.142931","2009","1948","1925","1619","1352","1257","1447","774","549","1454","922","758","1454","852","671",""
"MA200-0416","24629","66","1","1.10","1.4","2023-05-13T10:05:00","120","2023/05/13","10:05:00","-15.744846165180206","35.010267332196236","1.2","14","30","64","83","-754","23975","-4087","1","150","149.57","116.79","32.78","31.78","41.0","16.88","91728","31.56","DUALSPOT-UV-BLUE-GREEN-RED-IR","682158","693060","904966","22.587300","6.159702","0.009298","685820","879744","762322","16.791752","4.394890","0.006791","788083","890159","813986","14.025928","3.505415","0.002791","794080","914133","863388","11.238228","2.644641","-0.045274","691888","845184","951436","8.180017","1.889739","-0.021368","3610","4309","4570","3089","3383","3487","2822","2909","2937","2514","1866","1666","2582","2287","2198",""
"MA200-0416","24630","66","1","1.10","1.4","2023-05-13T10:05:30","120","2023/05/13","10:05:30","-15.744767487049103","35.010699330829084","2.0","14","30","64","83","195","24112","-2150","1","150","150.36","117.30","33.06","31.82","40.9","16.92","91708","31.63","DUALSPOT-UV-BLUE-GREEN-RED-IR","685199","696620","909905","22.688764","6.193184","0.008392","688472","883623","765803","16.860552","4.413688","-0.002546","790108","892838","816542","14.082540","3.520321","-0.006802","789506","909129","858783","11.282939","2.656037","-0.012648","693621","847540","954192","8.213068","1.898569","-0.008817","5080","5949","6275","4348","4215","4169","4006","3744","3656","3824","3458","3346","3935","3731","3670",""
"MA200-0416","24631","66","1","1.10","1.4","2023-05-13T10:06:00","120","2023/05/13","10:06:00","-15.744566917419434","35.01118883211166","2.7","14","30","64","83","705","23416","-6127","1","150","150.36","117.18","33.18","31.86","40.9","16.93","91676","31.69","DUALSPOT-UV-BLUE-GREEN-RED-IR","685729","697442","911164","22.761250","6.216448","0.006825","683840","877869","760922","16.905044","4.425651","-0.004322","790183","893115","816822","14.116556","3.527772","-0.030620","790501","910467","860081","11.309058","2.660703","-0.082399","693612","847641","954342","8.234043","1.902137","-0.130987","3633","4118","4301","2814","2673","2623","2410","1864","1682","2236","1411","1157","2500","1502","1202",""
"MA200-0416","24632","66","1","1.10","1.4","2023-05-13T10:06:30","120","2023/05/13","10:06:30","-15.744292914867401","35.011687165126204","2.2","14","30","64","83","971","24348","-6711","1","150","150.09","116.55","33.55","31.92","40.8","16.97","91656","31.75","DUALSPOT-UV-BLUE-GREEN-RED-IR","679936","691813","903936","22.807318","6.229439","-0.001260","684530","878997","761941","16.933222","4.431564","-0.034243","790836","894002","817687","14.138763","3.532904","-0.025200","792276","912637","862163","11.325633","2.662152","-0.896500","694591","848952","955808","8.246851","1.904727","-0.076465","2321","2274","2256","1792","1306","1134","1581","1270","1166","1426","433","127","1535","1078","941",""
"MA200-0416","24633","66","1","1.10","1.4","2023-05-13T10:07:00","120","2023/05/13","10:07:00","-15.743964910507202","35.01208033040166","1.5","15","30","64","83","1376","24720","-5540","1","150","150.30","116.89","33.41","31.96","40.8","16.98","91636","31.81","DUALSPOT-UV-BLUE-GREEN-RED-IR","680856","693150","905883","22.875186","6.249910","0.003098","685506","880572","763376","16.973166","4.442806","-0.001242","787680","890704","814690","14.169298","3.538984","-0.047899","792744","913347","862848","11.346545","2.665365","-0.134709","690635","844259","950546","8.264456","1.908205","-0.081230","3410","3599","3670","2533","2494","2480","2168","1510","1291","1794","964","709","2103","1453","1258",""
"MA200-0416","24634","66","1","1.10","1.4","2023-05-13T10:07:30","120","2023/05/13","10:07:30","-15.743801891803741","35.01248216442764","2.3","15","30","64","83","812","23560","-5988","1","150","150.21","117.13","33.09","32.00","40.7","16.98","91608","31.81","DUALSPOT-UV-BLUE-GREEN-RED-IR","681150","693730","906830","22.940222","6.267448","-0.002904","685177","880371","763292","17.013420","4.451961","-0.021076","787686","890945","814979","14.199361","3.544139","-0.077407","794427","915462","864887","11.370409","2.669799","-0.071138","690900","844668","951065","8.280582","1.909962","-0.478032","3261","3113","3057","2547","2051","1875","2130","1293","1015","2044","1344","1130","1923","742","387",""
"MA200-0416","24635","66","1","1.10","1.4","2023-05-13T10:08:00","120","2023/05/13","10:08:00","-15.74365919828415","35.013127164915204","2.0","15","30","64","82","72","24616","-4448","1","150","150.03","117.18","32.84","32.04","40.6","16.99","91588","31.88","DUALSPOT-UV-BLUE-GREEN-RED-IR","679560","692663","905768","23.065510","6.307895","0.007494","683995","879313","762522","17.091782","4.472948","-0.003751","787106","890618","814804","14.260228","3.559279","-0.012376","792716","913813","863395","11.414388","2.678251","-0.061053","690218","844023","950403","8.314327","1.917895","-0.031902","6279","7233","7592","4957","4736","4658","4312","3826","3665","3765","2581","2218","4022","3373","3179",""
"MA200-0416","24636","66","1","1.10","1.4","2023-05-13T10:08:30","120","2023/05/13","10:08:30","-15.74357783794403","35.013690498657525","1.5","15","30","64","83","-546","22634","-7173","1","150","149.33","117.50","31.82","32.09","40.6","17.01","91576","31.88","DUALSPOT-UV-BLUE-GREEN-RED-IR","681476","695316","909539","23.190734","6.339790","-0.003852","680474","875351","759224","17.169858","4.492212","-0.007983","788585","892746","816891","14.319984","3.573304","-0.015102","795996","917910","867355","11.454995","2.686841","-0.034991","691861","846279","953027","8.344173","1.925186","-0.017508","6259","5886","5746","4925","4487","4332","4222","3658","3471","3467","2707","2475","3548","3200","3096",""
"MA200-0416","24637","66","1","1.10","1.4","2023-05-13T10:09:00","120","2023/05/13","10:09:00","-15.743593335151672","35.014231665059924","2.0","15","30","64","83","-955","23744","-6628","1","150","149.76","117.10","32.66","32.13","40.5","17.03","91592","31.94","DUALSPOT-UV-BLUE-GREEN-RED-IR","681847","696478","911481","23.362968","6.393041","0.005567","681542","877334","761139","17.271650","4.520424","-0.000497","788022","892580","816897","14.397038","3.593343","-0.006863","788688","909851","859810","11.508263","2.699024","-0.026698","691687","846255","953056","8.378624","1.932999","-0.038268","8638","9576","9930","6443","6403","6389","5462","5094","4971","4563","3742","3491","4109","3342","3111",""
"MA200-0416","24638","66","1","1.10","1.4","2023-05-13T10:09:30","120","2023/05/13","10:09:30","-15.743391036987305","35.014884665608406","4.3","15","30","64","83","-500","24252","-5036","1","150","149.90","117.38","32.51","32.17","40.4","17.03","91592","32.00","DUALSPOT-UV-BLUE-GREEN-RED-IR","675657","691064","904892","23.522000","6.438213","0.001441","681537","878167","762145","17.377146","4.547228","-0.007260","785295","890215","814905","14.478592","3.612023","-0.020701","789739","911613","861656","11.574393","2.712906","-0.039968","692739","847963","955119","8.429100","1.942290","-0.091689","7957","8160","8236","6662","6111","5916","5768","4769","4438","5652","4283","3864","6007","3991","3388",""
"MA200-0416","24639","66","1","1.10","1.4","2023-05-13T10:10:00","120","2023/05/13","10:10:00","-15.743482828140259","35.0156656652689","3.9","15","30","64","82","-164","24212","-5100","1","150","149.80","116.93","32.86","32.22","40.1","16.94","91592","32.06","DUALSPOT-UV-BLUE-GREEN-RED-IR","675648","691582","905893","23.652300","6.480318","0.007228","681435","878457","762566","17.470252","4.576040","0.006896","784864","890059","814921","14.558465","3.635626","0.004406","791079","913530","863549","11.638942","2.729136","-0.013710","692709","848167","955428","8.478325","1.955058","-0.013141","6545","7525","7894","5902","6499","6711","5671","5962","6059","5538","4954","4776","5880","5427","5291",""
"MA200-0416","24640","66","1","1.10","1.4","2023-05-13T10:10:30","120","2023/05/13","10:10:30","-15.743879497051239","35.01622116565704","1.8","15","30","64","83","-16","24227","-5427","1","150","149.87","117.09","32.78","32.26","39.7","16.84","91588","32.06","DUALSPOT-UV-BLUE-GREEN-RED-IR","675705","692144","906958","23.761924","6.514047","0.005047","681875","879443","763587","17.541058","4.597748","0.006502","784174","889691","814696","14.614933","3.651142","-0.001744","790671","913305","863443","11.679040","2.738756","-0.019689","692306","847883","955149","8.507381","1.961262","-0.052427","5499","6043","6248","4483","4908","5060","4004","3929","3904","3435","2944","2793","3466","2643","2397",""
"MA200-0416","24641","66","1","1.10","1.4","2023-05-13T10:11:00","120","2023/05/13","10:11:00","-15.744276583194733","35.016802329570055","2.2","15","30","64","82","-104","24028","-6836","1","150","150.62","117.10","33.52","32.29","39.5","16.76","91576","32.13","DUALSPOT-UV-BLUE-GREEN-RED-IR","675788","692712","907955","23.862210","6.544046","0.002451","682139","880235","764418","17.607624","4.615213","-0.007237","784795","890701","815717","14.666737","3.663617","-0.018289","791071","914121","864262","11.720199","2.747035","-0.054156","692539","848368","955736","8.538483","1.967629","-0.068813","5029","5256","5342","4214","3862","3737","3672","3089","2895","3526","2477","2157","3710","2653","2336",""
"MA200-0416","24642","66","1","1.10","1.4","2023-05-13T10:11:30","120","2023/05/13","10:11:30","-15.744606137275696","35.017258333042264","2.0","15","30","64","82","-44","24096","-5796","1","150","150.16","117.14","33.02","32.33","39.3","16.73","91560","32.13","DUALSPOT-UV-BLUE-GREEN-RED-IR","675313","692712","908212","23.947990","6.567671","-0.001358","681801","880254","764534","17.664370","4.628963","-0.013279","784367","890560","815708","14.711278","3.673333","-0.029309","792581","916095","866227","11.752828","2.753824","-0.044194","688578","843673","950538","8.562492","1.973349","-0.029386","4301","4202","4165","3591","3087","2908","3156","2443","2205","2794","2063","1839","2863","2420","2287",""
"MA200-0416","24643","66","1","1.10","1.4","2023-05-13T10:12:00","120","2023/05/13","10:12:00","-15.744956135749817","35.01779882982373","2.4","15","30","64","82","200","24140","-5464","1","150","151.95","115.75","36.19","32.37","39.2","16.72","91544","32.19","DUALSPOT-UV-BLUE-GREEN-RED-IR","675171","692781","908414","24.009446","6.584570","-0.008298","681698","880318","764627","17.703942","4.638334","-0.027682","784269","890640","815821","14.742582","3.679811","-0.055647","791170","914604","864800","11.776813","2.757567","-0.160523","688054","843141","949948","8.581120","1.976090","-0.256747","3118","2742","2600","2534","1919","1700","2245","1486","1233","2078","1037","719","2248","1057","701",""
"MA200-0416","24644","66","1","1.10","1.4","2023-05-13T10:12:30","120","2023/05/13","10:12:30","-15.745126187801361","35.01825249567628","1.8","15","30","64","83","-740","23768","-6984","1","150","150.06","117.40","32.66","32.41","39.1","16.72","91532","32.19","DUALSPOT-UV-BLUE-GREEN-RED-IR","671047","688761","903258","24.052340","6.597122","0.002767","678438","876278","761191","17.731328","4.645271","-0.007782","782227","888469","813834","14.762014","3.683227","-0.065232","786785","909665","860179","11.791631","2.758592","-4.330348","689065","844477","951487","8.592819","1.978735","-0.037428","2146","2257","2299","1729","1574","1519","1374","868","700","1266","314","24","1392","1131","1053",""
"MA200-0416","24645","66","1","1.10","1.4","2023-05-13T10:13:00","120","2023/05/13","10:13:00","-15.745172679424286","35.01840332895517","0.1","15","30","64","82","-692","24236","-6052","1","150","149.80","117.50","32.30","32.45","39.0","16.72","91528","32.25","DUALSPOT-UV-BLUE-GREEN-RED-IR","672244","690191","905237","24.091146","6.608921","0.005298","679501","877777","762552","17.753706","4.651941","0.005772","782842","889290","814630","14.781203","3.687655","-0.018397","788144","911340","861771","11.805301","2.759898","-0.486805","690265","846010","953246","8.604790","1.980724","-0.122893","1939","2145","2223","1411","1530","1573","1355","1138","1065","1167","405","172","1423","860","691",""
"MA200-0416","24646","66","1","1.10","1.4","2023-05-13T10:13:30","120","2023/05/13","10:13:30","-15.74518996477127","35.0184271633625","1.2","15","30","64","82","-215","24208","-7184","1","150","150.03","117.10","32.92","32.49","38.9","16.71","91532","32.31","DUALSPOT-UV-BLUE-GREEN-RED-IR","670671","688765","903463","24.130720","6.621357","0.005785","678419","876580","761535","17.780302","4.656625","-0.057591","781651","888087","813555","14.801387","3.691291","-0.062003","786775","909897","860417","11.819132","2.761840","-0.159129","688907","844454","951500","8.618668","1.982967","-0.143057","1984","2218","2306","1683","1054","831","1430","916","746","1184","592","411","1655","951","741",""
"MA200-0416","24647","66","1","1.10","1.4","2023-05-13T10:14:00","120","2023/05/13","10:14:00","-15.745104134082794","35.01875549554825","1.9","15","30","64","82","2352","23572","-10156","1","150","150.43","117.20","33.23","32.53","38.8","16.71","91532","32.38","DUALSPOT-UV-BLUE-GREEN-RED-IR","674026","692573","908678","24.199150","6.642311","0.004102","680474","879550","764199","17.826490","4.669208","-0.003145","783989","891023","816323","14.837982","3.699123","-0.032699","791282","915302","865568","11.846642","2.766454","-0.096349","686927","842163","948974","8.640419","1.987386","-0.067421","3429","3703","3807","2921","2807","2766","2592","1956","1745","2354","1392","1099","2592","1857","1638",""
"MA200-0416","24648","66","1","1.10","1.4","2023-05-13T10:14:30","120","2023/05/13","10:14:30","-15.745233237743378","35.01974782720208","3.8","15","30","64","82","720","23976","-5416","1","150","149.57","117.02","32.54","32.57","38.8","16.73","91508","32.38","DUALSPOT-UV-BLUE-GREEN-RED-IR","674849","693727","910434","24.274230","6.665256","0.004949","676411","874568","759994","17.872540","4.681780","-0.001423","783958","891219","816584","14.875001","3.708892","-0.004892","791617","915885","866163","11.873767","2.772426","-0.031403","691424","847831","955439","8.663578","1.993713","-0.002694","3768","4141","4282","2917","2863","2844","2626","2492","2448","2325","1841","1693","2764","2716","2701",""
"MA200-0416","24649","66","1","1.10","1.4","2023-05-13T10:15:00","120","2023/05/13","10:15:00","-15.745542824268341","35.02046266384423","2.7","15","30","64","82","156","24180","-5752","1","150","149.83","117.34","32.49","32.61","38.7","16.75","91472","32.44","DUALSPOT-UV-BLUE-GREEN-RED-IR","666778","685953","900481","24.368912","6.695097","0.006575","675155","873382","759100","17.933296","4.698963","0.001585","780727","887870","813630","14.923908","3.721255","-0.008783","784477","907906","858698","11.910739","2.780563","-0.030675","687065","842704","949705","8.688961","1.999368","-0.039106","4739","5395","5643","3838","3921","3950","3460","3159","3059","3161","2512","2315","3021","2431","2255",""
"MA200-0416","24650","66","1","1.10","1.4","2023-05-13T10:15:30","120","2023/05/13","10:15:30","-15.746147155761719","35.021314326673746","4.7","15","30","64","82","-3332","24400","-5784","1","150","150.03","117.14","32.88","32.67","38.7","16.79","91504","32.50","DUALSPOT-UV-BLUE-GREEN-RED-IR","669050","689019","904952","24.493868","6.732172","0.002973","676603","875900","761521","18.016930","4.721040","-0.004878","781134","888922","814728","14.987680","3.736061","-0.019971","787128","911405","862125","11.957919","2.790678","-0.037261","688253","844425","951737","8.723022","2.007564","-0.026115","6265","6622","6757","5292","4977","4865","4519","3738","3478","4040","3085","2795","4061","3481","3308",""
"MA200-0416","24651","66","1","1.10","1.4","2023-05-13T10:16:00","120","2023/05/13","10:16:00","-15.746616899967194","35.02216783165932","4.1","15","30","64","82","-3088","24100","-5288","1","150","149.80","116.55","33.24","32.71","38.6","16.78","91560","32.56","DUALSPOT-UV-BLUE-GREEN-RED-IR","669664","690141","906712","24.632638","6.774151","0.003129","677735","877808","763309","18.107344","4.747064","0.000670","781280","889423","815322","15.060387","3.755479","-0.006150","787482","912109","862853","12.013049","2.803147","-0.030798","688370","844774","952186","8.765228","2.016431","-0.059335","6993","7416","7577","5750","5802","5821","5179","4849","4740","4745","3763","3464","5058","3726","3327",""
"MA200-0416","24652","66","1","1.10","1.4","2023-05-13T10:16:30","120","2023/05/13","10:16:30","-15.746844410896301","35.02303466387093","2.7","15","30","64","82","-1980","23096","-3544","1","150","149.39","116.51","32.88","32.74","38.4","16.74","91564","32.56","DUALSPOT-UV-BLUE-GREEN-RED-IR","669075","690414","907430","24.787076","6.814714","-0.004260","677417","878037","763699","18.200730","4.771276","-0.006799","781068","889677","815675","15.128042","3.771674","-0.016753","788206","913337","864105","12.061426","2.813971","-0.030689","688710","845418","953016","8.803749","2.025313","-0.035405","7785","7246","7042","5942","5459","5287","4821","4089","3846","4165","3303","3040","4618","3773","3521",""
"MA200-0416","24653","66","1","1.10","1.4","2023-05-13T10:17:00","120","2023/05/13","10:17:00","-15.746332824230194","35.02340149693191","2.6","15","30","64","82","-736","23748","-5708","1","150","149.90","117.18","32.71","32.79","38.2","16.71","91592","32.63","DUALSPOT-UV-BLUE-GREEN-RED-IR","669897","691446","908872","24.848048","6.830312","-0.005242","677908","878829","764430","18.236976","4.779907","-0.013643","778027","886327","812642","15.156165","3.778898","-0.007849","789356","914745","865489","12.081042","2.817732","-0.057133","689127","846048","953735","8.819519","2.028309","-0.080339","3056","2800","2703","2293","1955","1836","1992","1833","1780","1679","1153","993","1879","1279","1100",""
"MA200-0416","24654","66","1","1.10","1.4","2023-05-13T10:17:30","120","2023/05/13","10:17:30","-15.745947778224945","35.024004163220525","3.0","15","30","64","82","-1088","23608","-5596","1","150","150.43","117.02","33.40","32.84","38.1","16.69","91596","32.63","DUALSPOT-UV-BLUE-GREEN-RED-IR","668491","690147","907272","24.877728","6.840210","0.007575","677159","877987","763727","18.256270","4.784645","-0.012782","781332","890208","816232","15.173175","3.782426","-0.037705","787609","912834","863663","12.092990","2.819497","-0.140405","688079","844864","952392","8.831615","2.031319","-0.022622","1489","1740","1835","1222","1051","990","1206","877","767","1024","529","379","1443","1258","1203",""
"MA200-0416","24655","66","1","1.10","1.4","2023-05-13T10:18:00","120","2023/05/13","10:18:00","-15.745689332485199","35.02457416243851","2.6","15","30","64","82","272","24664","-3100","1","150","149.57","116.71","32.86","32.87","38.0","16.66","91576","32.69","DUALSPOT-UV-BLUE-GREEN-RED-IR","664296","685953","901868","24.909962","6.850731","0.007230","673603","873504","759867","18.278280","4.791553","0.007367","782318","891431","817417","15.188008","3.786200","-0.009699","783803","908474","859598","12.105905","2.821016","-0.260022","689637","846768","954635","8.842487","2.034773","0.016172","1622","1880","1978","1398","1558","1615","1055","953","919","1110","464","267","1301","1468","1518",""
"MA200-0416","24656","66","1","1.10","1.4","2023-05-13T10:18:30","120","2023/05/13","10:18:30","-15.745527029037476","35.024910328909755","11.9","15","30","64","82","2676","24464","-4516","1","150","149.76","117.18","32.58","32.92","37.8","16.63","91544","32.69","DUALSPOT-UV-BLUE-GREEN-RED-IR","665441","687399","903886","24.961064","6.865087","0.000572","674548","874963","761258","18.311582","4.801447","0.004646","779483","888384","814679","15.215376","3.793430","-0.004673","784083","908977","860079","12.124628","2.825677","-0.013025","690014","847395","955383","8.860447","2.039328","-0.014531","2561","2588","2598","2106","2251","2302","1938","1842","1810","1603","1435","1384","2140","1952","1896",""
"MA200-0416","24657","66","1","1.10","1.4","2023-05-13T10:19:00","120","2023/05/13","10:19:00","-15.741673588752747","35.025676829740405","12.4","15","30","64","82","1396","24092","-6016","1","150","149.86","117.24","32.62","32.96","37.6","16.58","91652","32.75","DUALSPOT-UV-BLUE-GREEN-RED-IR","665403","688103","905273","25.106100","6.908937","0.004246","674190","875156","761689","18.414814","4.832859","0.006111","779906","889449","815870","15.299307","3.819185","0.007872","785421","910941","862152","12.187531","2.844089","0.005200","686243","843070","950634","8.908710","2.052998","0.002545","7266","7894","8133","6527","7138","7355","5943","6554","6757","5383","5662","5747","5750","5853","5884",""
"MA200-0416","24658","66","1","1.10","1.4","2023-05-13T10:19:30","120","2023/05/13","10:19:30","-15.73804497718811","35.02330515906215","17.2","15","30","64","82","-855","24460","-5916","1","150","149.94","116.96","32.98","32.99","37.3","16.50","91768","32.75","DUALSPOT-UV-BLUE-GREEN-RED-IR","662874","687610","906020","25.553348","7.060852","0.008629","672268","874968","762491","18.790334","4.955745","0.009532","776521","887635","815097","15.625881","3.922701","0.009105","782839","909780","861775","12.462230","2.928293","0.008210","688481","847083","955744","9.110992","2.111298","0.003085","22460","27058","28813","23801","27625","28995","23181","26061","27026","23563","25617","26248","24160","24696","24858",""
"MA200-0416","24659","66","1","1.10","1.4","2023-05-13T10:20:00","120","2023/05/13","10:20:00","-15.736734509468079","35.02314316108823","11.8","15","30","64","82","2912","23832","-7424","1","150","150.56","116.95","33.61","33.03","37.3","16.51","91856","32.81","DUALSPOT-UV-BLUE-GREEN-RED-IR","662064","688060","907388","25.823772","7.146360","0.004710","671440","875316","763276","19.018866","5.024994","0.003612","775696","887953","815860","15.824772","3.980249","0.000562","782789","910829","863180","12.630179","2.974975","-0.003564","684192","842583","950970","9.235199","2.144847","-0.009221","13582","14942","15462","14486","15272","15555","14119","14214","14246","14408","13934","13787","14836","13943","13672",""
"MA200-0416","24660","66","1","1.10","1.4","2023-05-13T10:20:30","120","2023/05/13","10:20:30","-15.73946613073349","35.02409482933581","10.3","15","30","64","82","323","24280","-5576","1","150","149.70","116.48","33.22","33.07","37.1","16.46","91776","32.81","DUALSPOT-UV-BLUE-GREEN-RED-IR","659821","687101","906968","26.129220","7.242353","0.004728","669738","874601","763253","19.276834","5.103899","0.004652","773724","887052","815543","16.052313","4.046875","0.002142","781459","910522","863339","12.823555","3.028214","-0.003712","682835","841838","950455","9.382065","2.182174","-0.017621","15402","16971","17573","16418","17607","18035","16218","16650","16795","16655","16077","15898","17613","15695","15114",""
"MA200-0416","24661","66","1","1.10","1.4","2023-05-13T10:21:00","120","2023/05/13","10:21:00","-15.741497993469238","35.02573616243899","7.7","15","30","64","82","1048","24060","-6200","1","150","149.51","116.71","32.80","33.11","36.8","16.39","91688","32.88","DUALSPOT-UV-BLUE-GREEN-RED-IR","658938","687767","908842","26.457314","7.349022","0.006744","668806","875076","764392","19.552152","5.191864","0.008033","772399","887123","816224","16.296022","4.122697","0.007691","780740","910996","864336","13.028193","3.089434","0.005984","682138","841891","950931","9.533951","2.225588","0.002284","16512","19102","20098","17488","19881","20747","17337","19192","19821","17591","18726","19079","18180","18490","18585",""
"MA200-0416","24662","66","1","1.10","1.4","2023-05-13T10:21:30","120","2023/05/13","10:21:30","-15.745711863040924","35.02492516301572","19.8","15","30","64","82","1425","23895","-6450","1","150","149.43","116.55","32.88","33.14","36.6","16.33","91480","32.88","DUALSPOT-UV-BLUE-GREEN-RED-IR","651914","681595","901433","26.731194","7.440283","0.007508","667542","874715","764577","19.785518","5.265016","0.006651","768729","884032","813887","16.500631","4.185080","0.005918","781205","912625","866319","13.203213","3.141672","0.005358","682705","843336","952941","9.668453","2.264145","0.002140","13802","16303","17267","14843","16494","17092","14574","15752","16152","15065","15939","16212","16121","16381","16461",""
"MA200-0416","24663","66","1","1.10","1.4","2023-05-13T10:22:00","120","2023/05/13","10:22:00","-15.749989926815033","35.02375116571784","12.1","15","30","64","82","-1894","23819","-7463","1","150","150.43","117.14","33.28","33.18","36.5","16.32","91228","32.88","DUALSPOT-UV-BLUE-GREEN-RED-IR","645229","679658","902415","27.706916","7.776977","0.008294","661831","873103","765722","20.649820","5.551798","0.009044","762259","881974","814307","17.263280","4.430246","0.008708","774963","910128","865942","13.849904","3.340852","0.007205","678590","841614","952502","10.144001","2.400405","0.001091","48922","59421","63518","54696","63880","67257","54050","61159","63613","55385","60044","61525","56709","57194","57344",""
"MA200-0416","24664","66","1","1.10","1.4","2023-05-13T10:22:30","120","2023/05/13","10:22:30","-15.752533376216888","35.02432166412473","16.4","15","30","64","82","832","24152","-5236","1","150","149.83","116.83","33.00","33.21","36.4","16.28","91080","32.94","DUALSPOT-UV-BLUE-GREEN-RED-IR","640190","677794","902302","28.470242","8.038194","0.007990","657643","871292","765718","21.283088","5.759126","0.008405","757852","880143","814018","17.818668","4.605478","0.007639","765506","901849","859286","14.318672","3.485018","0.007322","676605","841118","952863","10.483974","2.497066","0.000798","38377","46487","49678","40184","46569","48938","39469","44080","45687","40256","43824","44972","40652","40913","40995",""
