"Serial number","Datum ID","Session ID","Data format version","Firmware version","App version","Date / time local","Timezone offset (mins)","Date local (yyyy/MM/dd)","Time local (hh:mm:ss)","GPS lat (ddmm.mmmmm)","GPS long (dddmm.mmmmm)","GPS speed (km/h)","GPS sat count","Timebase (s)","Status","Battery remaining (%)","Accel X","Accel Y","Accel Z","Tape position","Flow setpoint (mL/min)","Flow total (mL/min)","Flow1 (mL/min)","Flow2 (mL/min)","Sample temp (C)","Sample RH (%)","Sample dewpoint (C)","Internal pressure (Pa)","Internal temp (C)","Optical config","UV Sen1","UV Sen2","UV Ref","UV ATN1","UV ATN2","UV K","Blue Sen1","Blue Sen2","Blue Ref","Blue ATN1","Blue ATN2","Blue K","Green Sen1","Green Sen2","Green Ref","Green ATN1","Green ATN2","Green K","Red Sen1","Red Sen2","Red Ref","Red ATN1","Red ATN2","Red K","IR Sen1","IR Sen2","IR Ref","IR ATN1","IR ATN2","IR K","UV BC1","UV BC2","UV BCc","Blue BC1","Blue BC2","Blue BCc","Green BC1","Green BC2","Green BCc","Red BC1","Red BC2","Red BCc","IR BC1","IR BC2","IR BCc","Readable status"
"MA200-0416","57788","117","1","1.10","1.6","2023-08-14T17:24:59","120","2023/08/14","17:24:59","0","0","0.0","0","300","66","23","-3880","-4832","-25744","1","150","149.55","115.39","34.16","29.09","38.4","13.50","0","0.00","DUALSPOT-UV-BLUE-GREEN-RED-IR","784937","707733","906992","0.000000","0.000000","0.000000","747794","875094","761529","0.000000","0.000000","0.000000","842708","884101","815412","0.000000","0.000000","0.000000","831444","903507","862100","0.000000","0.000000","0.000000","708695","843119","951298","0.000000","0.000000","0.000000","","","","","","","","","","","","","","","","Start up-DualSpot on"
"MA200-0416","57789","117","1","1.10","1.6","2023-08-14T17:29:59","120","2023/08/14","17:29:59","0","0","0.0","0","300","64","22","-3996","-4804","-25784","1","150","149.60","118.24","31.35","28.82","37.2","12.76","0","0.00","DUALSPOT-UV-BLUE-GREEN-RED-IR","762611","700705","905585","0.000000","0.000000","0.000000","735411","873733","765474","0.000000","0.000000","0.000000","827281","879509","815981","0.000000","0.000000","0.000000","817295","898165","861307","0.000000","0.000000","0.000000","701818","841769","952981","0.000000","0.000000","0.000000","","","","","","","","","","","","","","","","DualSpot on"
"MA200-0416","57790","117","1","1.10","1.6","2023-08-14T17:34:59","120","2023/08/14","17:34:59","0","0","0.0","0","300","64","22","-3871","-4940","-25688","1","150","149.44","120.67","28.77","28.53","37.0","12.43","89452","27.88","DUALSPOT-UV-BLUE-GREEN-RED-IR","744381","696264","907430","2.626316","0.839271","0.000000","717740","865098","763031","2.114777","0.672030","0.000000","810118","872196","813929","1.846302","0.583237","0.000000","806738","896041","863445","1.551809","0.489128","0.000000","693051","837562","951264","1.084497","0.323308","0.000000","12783","17135","12783","12992","17317","12992","12702","16831","12702","12902","17058","12902","12554","15699","12554","DualSpot on"
"MA200-0416","57791","117","1","1.10","1.6","2023-08-14T17:39:59","120","2023/08/14","17:39:59","0","0","0.0","1","300","64","22","-3860","-4968","-25596","1","150","149.45","120.50","28.95","28.29","37.1","12.23","0","0.00","DUALSPOT-UV-BLUE-GREEN-RED-IR","727213","690739","907208","4.944618","1.613521","0.074184","708396","864349","766915","3.940362","1.268053","0.087856","798614","868999","815088","3.429302","1.094502","0.097970","796416","892533","863706","2.872343","0.910371","0.000000","688582","837499","953807","1.997215","0.595713","0.000000","11300","15710","17846","11231","15264","17178","10906","14663","16425","10994","14600","10994","10581","13146","10581","DualSpot on"
"MA200-0416","57792","117","1","1.10","1.6","2023-08-14T17:44:59","120","2023/08/14","17:44:59","0","0","0.0","1","300","64","21","-3916","-4816","-25708","1","150","149.96","120.66","29.30","28.06","37.3","12.13","0","0.00","DUALSPOT-UV-BLUE-GREEN-RED-IR","710070","683813","904624","7.040176","2.337089","0.054982","696751","858946","765991","5.481224","1.777678","0.063644","788250","865373","815150","4.743712","1.521020","0.069797","786193","887617","861909","3.957717","1.255971","0.079124","684025","836341","954522","2.740081","0.812602","0.000000","10200","14504","16643","9466","12893","14538","9044","12085","13520","9024","11833","13139","8600","10340","8600","DualSpot on"
"MA200-0416","57793","117","1","1.10","1.6","2023-08-14T17:49:59","120","2023/08/14","17:49:59","0","0","0.0","0","300","64","21","-3916","-4891","-25587","1","150","150.31","121.14","29.17","27.86","37.3","11.96","89444","27.31","DUALSPOT-UV-BLUE-GREEN-RED-IR","696548","680941","908655","9.392981","3.193090","0.046445","683523","851627","763586","7.073483","2.314609","0.052738","776579","860313","813936","6.073692","1.953321","0.056010","780822","888216","865436","5.046202","1.595843","0.059956","678435","834001","953832","3.478988","1.017594","0.050842","11408","17235","20236","9744","13644","15542","9115","12303","13814","9014","11688","12925","8521","9816","10352","DualSpot on"
"MA200-0416","57794","117","1","1.10","1.6","2023-08-14T17:54:59","120","2023/08/14","17:54:59","0","0","0.0","1","300","64","21","-3839","-4864","-25932","1","150","149.63","120.62","29.01","27.69","37.4","11.85","0","0.00","DUALSPOT-UV-BLUE-GREEN-RED-IR","678826","674532","909177","12.044378","4.203356","0.039269","671956","847008","764259","8.877163","2.947581","0.045887","766367","857510","815381","7.582336","2.461212","0.049035","772264","885887","866619","6.288659","1.994181","0.052125","670377","829097","950541","4.335632","1.261910","0.047897","12910","20454","24497","11085","16174","18704","10383","14534","16529","10334","13775","15373","9921","11764","12521","DualSpot on"
"MA200-0416","57795","117","1","1.10","1.6","2023-08-14T17:59:59","120","2023/08/14","17:59:59","0","0","0.0","0","300","64","20","-3896","-5016","-25836","1","150","149.55","121.07","28.48","27.51","37.5","11.73","0","0.00","DUALSPOT-UV-BLUE-GREEN-RED-IR","666743","670790","911263","14.073151","4.990869","0.035665","663262","843698","765103","10.293267","3.453058","0.042538","759103","856011","817274","8.771009","2.867501","0.045877","765402","883798","867332","7.267885","2.315181","0.050385","667745","829815","953171","5.008167","1.455572","0.047965","9842","16243","19760","8670","13159","15424","8151","11845","13639","8114","11309","12802","7759","9500","10213","DualSpot on"
"MA200-0416","57796","117","1","1.10","1.6","2023-08-14T18:04:59","120","2023/08/14","18:04:59","0","0","0.0","0","300","64","20","-3855","-4804","-25932","1","150","149.61","121.06","28.54","27.34","37.7","11.64","0","0.00","DUALSPOT-UV-BLUE-GREEN-RED-IR","650751","661569","904761","15.792744","5.663950","0.032121","655721","840813","765958","11.551070","3.907698","0.038632","748730","850186","814740","9.839226","3.241091","0.042579","754915","876807","863054","8.152660","2.612269","0.047147","661799","825968","950501","5.621689","1.638632","0.048509","8342","13851","16932","7702","11809","13908","7325","10867","12607","7332","10443","11910","7079","8960","9733","DualSpot on"
"MA200-0416","57797","117","1","1.10","1.6","2023-08-14T18:09:59","120","2023/08/14","18:09:59","0","0","0.0","0","300","64","19","-3876","-4820","-25884","1","150","149.80","120.81","28.98","27.19","37.8","11.54","0","0.00","DUALSPOT-UV-BLUE-GREEN-RED-IR","643394","659834","907623","17.242680","6.239937","0.029395","646630","835003","763818","12.667637","4.321432","0.035719","743732","849742","817168","10.802148","3.585028","0.039113","751013","876913","865517","8.955528","2.887762","0.043369","660638","827704","954164","6.183254","1.811311","0.046077","7049","11672","14293","6851","10581","12513","6617","9851","11458","6667","9535","10901","6493","8322","9080","DualSpot on"
"MA200-0416","57798","117","1","1.10","1.6","2023-08-14T18:14:59","120","2023/08/14","18:14:59","0","0","0.0","0","300","64","19","-3871","-4856","-25684","1","150","149.35","121.38","27.97","27.06","37.9","11.49","0","0.00","DUALSPOT-UV-BLUE-GREEN-RED-IR","634044","656762","909450","18.907914","6.906433","0.028418","638830","831928","764858","14.018856","4.825419","0.034632","732647","843517","814657","12.000012","4.017126","0.038294","739559","869360","861129","9.988926","3.246444","0.042914","653864","823533","951649","6.947414","2.052509","0.049556","8057","13997","17415","8252","13359","16039","8193","12827","15159","8541","12867","14950","8794","12047","13411","DualSpot on"
"MA200-0416","57799","117","1","1.10","1.6","2023-08-14T18:19:59","120","2023/08/14","18:19:59","0","0","0.0","0","300","64","18","-3880","-4812","-25736","1","150","149.98","121.16","28.82","26.93","38.4","11.55","0","0.00","DUALSPOT-UV-BLUE-GREEN-RED-IR","624695","651237","905935","20.017566","7.370773","0.027264","631590","826857","762755","14.889656","5.163622","0.033043","729851","844284","817720","12.758051","4.300994","0.036381","737682","870692","864438","10.628901","3.477043","0.040776","649662","820770","949871","7.409225","2.203292","0.046764","5379","9462","11842","5328","8698","10488","5194","8176","9693","5299","8026","9353","5324","7308","8147","DualSpot on"
"MA200-0416","57800","117","1","1.10","1.6","2023-08-14T18:24:59","120","2023/08/14","18:24:59","0","0","0.0","0","300","64","18","-3964","-4820","-25708","1","150","149.45","121.15","28.30","26.83","39.0","11.71","89484","26.31","DUALSPOT-UV-BLUE-GREEN-RED-IR","621753","651558","909884","20.924912","7.754501","0.026901","629635","827709","765559","15.567596","5.428499","0.032637","724002","840520","815814","13.335290","4.518503","0.036083","731159","865627","860891","11.107937","3.650445","0.040528","649991","823041","953489","7.742988","2.310803","0.045302","4399","7964","10064","4148","6939","8433","3955","6381","7624","3967","6147","7215","3848","5307","5927","DualSpot on"
"MA200-0416","57801","117","1","1.10","1.6","2023-08-14T18:29:59","120","2023/08/14","18:29:59","0","0","0.0","0","300","64","18","-3868","-4732","-25824","1","150","149.62","120.89","28.73","26.76","39.5","11.83","89488","26.25","DUALSPOT-UV-BLUE-GREEN-RED-IR","614406","647660","908354","21.937862","8.183723","0.025318","623441","823370","763831","16.320906","5.724710","0.030767","718424","837396","814789","13.972774","4.760301","0.033987","730743","868062","865007","11.633739","3.840828","0.037720","646845","821059","952392","8.105266","2.429452","0.043274","4921","8776","11069","4619","7644","9278","4377","6988","8337","4363","6649","7775","4186","5769","6447","DualSpot on"
"MA200-0416","57802","117","1","1.10","1.6","2023-08-14T18:34:59","120","2023/08/14","18:34:59","0","0","0.0","0","300","64","17","-3852","-4952","-25736","1","150","149.70","121.11","28.59","26.69","39.9","11.94","89484","26.19","DUALSPOT-UV-BLUE-GREEN-RED-IR","601986","640817","905083","23.602456","8.877087","0.023329","614245","817701","762317","17.591030","6.210822","0.027847","709869","833200","813975","15.062810","5.159354","0.030262","722305","863229","862929","12.540495","4.158157","0.033427","642132","818737","951654","8.753384","2.635474","0.037866","8073","14244","17964","7774","12604","15240","7472","11588","13732","7511","11135","12933","7475","10066","11182","DualSpot on"
"MA200-0416","57803","117","1","1.10","1.6","2023-08-14T18:39:59","120","2023/08/14","18:39:59","0","0","0.0","0","300","64","16","-3907","-4804","-25900","1","150","149.73","121.15","28.58","26.64","40.2","11.99","0","0.00","DUALSPOT-UV-BLUE-GREEN-RED-IR","595606","639841","909675","25.192676","9.542675","0.022027","608811","816891","765321","18.892740","6.713551","0.026316","704464","832775","816994","16.206554","5.581695","0.028578","714089","858659","861305","13.515776","4.501377","0.031411","640513","820622","955982","9.466785","2.861823","0.034964","7709","13680","17321","7965","13042","15840","7837","12270","14599","8076","12050","14034","8225","11065","12295","DualSpot on"
"MA200-0416","57804","117","1","1.10","1.6","2023-08-14T18:44:59","120","2023/08/14","18:44:59","0","0","0.0","0","300","64","16","-3855","-4812","-25652","1","150","149.45","120.74","28.70","26.58","40.3","12.00","0","0.00","DUALSPOT-UV-BLUE-GREEN-RED-IR","586510","634714","907333","26.473500","10.089199","0.021238","601422","812038","763889","19.928138","7.120353","0.025285","697444","829141","816165","17.114212","5.925226","0.027769","712471","860970","866009","14.285740","4.779036","0.030603","636145","818169","954806","10.027016","3.041750","0.033414","6230","11183","14233","6357","10506","12813","6241","9936","11893","6397","9705","11367","6481","8756","9747","DualSpot on"
"MA200-0416","57805","117","1","1.10","1.6","2023-08-14T18:49:59","120","2023/08/14","18:49:59","0","0","0.0","0","300","64","15","-3904","-4828","-25684","1","150","149.76","121.43","28.34","26.53","40.5","12.00","89496","26.06","DUALSPOT-UV-BLUE-GREEN-RED-IR","581986","632219","906646","27.179814","10.411800","0.022373","597795","809747","763488","20.489078","7.353896","0.026852","693826","827235","815884","17.602842","6.117546","0.029129","708477","858363","864677","14.699888","4.934323","0.032474","633765","816666","953985","10.323296","3.140474","0.036887","3416","6686","8717","3424","6109","7613","3340","5634","6856","3421","5498","6547","3408","4867","5504","DualSpot on"
"MA200-0416","57806","117","1","1.10","1.6","2023-08-14T18:54:59","120","2023/08/14","18:54:59","0","0","0.0","0","300","64","14","-3916","-5008","-25856","1","150","150.03","120.62","29.41","26.51","40.7","12.05","89492","26.00","DUALSPOT-UV-BLUE-GREEN-RED-IR","577390","629650","905926","27.896138","10.739185","0.021047","594184","807457","763072","21.035884","7.580698","0.024862","690174","825251","815464","18.075012","6.305456","0.027257","705142","856435","864003","15.095402","5.082431","0.029605","632165","816113","954321","10.608719","3.234362","0.031521","3488","6538","8448","3360","5717","7045","3249","5305","6406","3289","5052","5947","3305","4459","4966","DualSpot on"
"MA200-0416","57807","117","1","1.10","1.6","2023-08-14T18:59:59","120","2023/08/14","18:59:59","0","0","0.0","0","300","64","13","-3880","-4816","-25968","1","150","149.84","121.74","28.10","26.47","40.8","12.05","89492","26.00","DUALSPOT-UV-BLUE-GREEN-RED-IR","575611","629884","908958","28.539184","11.038322","0.021848","592977","808111","765309","21.534572","7.791526","0.026276","685525","821816","813452","18.506936","6.478637","0.028718","699956","852064","860828","15.460457","5.220124","0.031640","628633","812989","951426","10.868107","3.321808","0.036700","3102","6253","8240","3036","5562","6994","2945","5117","6287","3008","4916","5889","2976","4347","4951","DualSpot on"
"MA200-0416","57808","117","1","1.10","1.6","2023-08-14T19:04:59","120","2023/08/14","19:04:59","0","0","0.0","0","300","64","13","-3764","-4904","-25747","1","150","150.49","121.39","29.10","26.43","40.8","12.02","89496","25.94","DUALSPOT-UV-BLUE-GREEN-RED-IR","572507","628622","909794","29.166252","11.325455","0.020505","590341","806871","765701","22.028596","7.998055","0.024457","683474","821480","814538","18.938208","6.649703","0.026518","698852","852651","862626","15.823835","5.356488","0.029124","628137","813778","953182","11.129124","3.408160","0.031801","3034","5795","7548","3016","5261","6540","2949","4880","5925","3003","4701","5570","3003","4145","4649","DualSpot on"
"MA200-0416","57809","117","1","1.10","1.6","2023-08-14T19:09:59","120","2023/08/14","19:09:59","0","0","0.0","0","300","64","12","-3938","-4961","-25669","1","150","149.92","121.80","28.12","26.41","40.8","12.02","0","0.00","DUALSPOT-UV-BLUE-GREEN-RED-IR","567099","625579","908800","30.002190","11.700180","0.020227","585814","803747","764750","22.670986","8.259446","0.024055","678832","818692","813488","19.494060","6.865823","0.026348","699477","855960","867457","16.292877","5.529490","0.029152","625275","811923","952071","11.469173","3.520009","0.033128","4031","7827","10253","3909","6891","8599","3788","6380","7790","3863","6172","7358","3900","5556","6289","DualSpot on"
"MA200-0416","57810","117","1","1.10","1.6","2023-08-14T19:14:59","120","2023/08/14","19:14:59","0","0","0.0","1","300","64","11","-3892","-4664","-25780","1","150","149.76","121.61","28.16","26.37","41.0","12.05","0","0.00","DUALSPOT-UV-BLUE-GREEN-RED-IR","555179","618183","905039","31.692314","12.469334","0.019378","577008","797260","762376","23.863300","8.752865","0.023225","674248","818207","816264","20.496712","7.259905","0.025332","690862","849911","864016","17.126648","5.837985","0.027773","623713","813180","955434","12.062794","3.714903","0.031212","8163","16044","21156","7268","12990","16305","6845","11619","14237","6878","10991","13118","6819","9668","10937","DualSpot on"
"MA200-0416","57811","117","1","1.10","1.6","2023-08-14T19:19:59","120","2023/08/14","19:19:59","0","0","0.0","1","300","64","10","-3912","-4732","-25768","1","150","150.35","121.71","28.65","26.34","41.1","12.07","89508","25.81","DUALSPOT-UV-BLUE-GREEN-RED-IR","545467","612797","904052","33.364364","13.241165","0.018416","569612","792467","761506","25.048686","9.245909","0.021906","667374","814784","816056","21.505114","7.656190","0.023703","685062","847281","864021","17.976858","6.150888","0.025667","616115","806638","949615","12.685516","3.914631","0.027120","8069","15825","20928","7220","12759","15999","6878","11484","14031","7008","10958","13012","7147","9739","10896","DualSpot on"
"MA200-0416","57812","117","1","1.10","1.6","2023-08-14T19:24:59","120","2023/08/14","19:24:59","0","0","0.0","1","300","64","10","-3760","-4868","-25896","1","150","150.09","121.63","28.46","26.33","41.1","12.07","89516","25.81","DUALSPOT-UV-BLUE-GREEN-RED-IR","541268","611368","906454","34.410752","13.742901","0.018482","566232","791284","762951","25.839018","9.586084","0.022125","663533","813374","816920","22.191476","7.935635","0.024123","681645","846120","864759","18.566962","6.374175","0.026094","614157","806521","950896","13.132500","4.061924","0.028292","5052","10354","13880","4816","8860","11246","4684","8151","10081","4867","7871","9441","5133","7229","8168","DualSpot on"
"MA200-0416","57813","117","1","1.10","1.6","2023-08-14T19:29:59","120","2023/08/14","19:29:59","0","0","0.0","1","300","64","9","-3904","-4992","-25768","1","150","150.13","121.65","28.48","26.31","41.2","12.08","0","0.00","DUALSPOT-UV-BLUE-GREEN-RED-IR","535468","607532","904576","35.284740","14.166370","0.018174","565402","793149","767022","26.514420","9.881479","0.021897","658850","810444","815983","22.783790","8.180835","0.023931","677211","843281","863584","19.079884","6.573946","0.026371","614714","809280","955444","13.524231","4.196333","0.029804","4219","8734","11762","4115","7689","9813","4042","7148","8888","4230","7038","8514","4498","6593","7536","DualSpot on"
"MA200-0416","57814","117","1","1.10","1.6","2023-08-14T19:34:59","120","2023/08/14","19:34:59","0","0","0.0","1","300","64","9","-4048","-4960","-25724","1","150","149.51","121.43","28.07","26.30","41.3","12.09","0","0.00","DUALSPOT-UV-BLUE-GREEN-RED-IR","530406","604606","904084","36.174052","14.590538","0.017706","561253","790370","766606","27.191128","10.177005","0.021584","654799","808283","815821","23.374462","8.425255","0.023640","673761","841576","863571","19.589462","6.772637","0.026138","612353","808251","955473","13.910057","4.327921","0.029348","4301","8874","11965","4131","7803","10000","4038","7228","9025","4210","7100","8627","4438","6547","7500","DualSpot on"
"MA200-0416","57815","117","1","1.10","1.6","2023-08-14T19:39:59","120","2023/08/14","19:39:59","0","0","0.0","0","300","64","8","-4196","-5112","-25703","1","150","149.51","121.72","27.79","26.26","41.2","12.03","89528","25.75","DUALSPOT-UV-BLUE-GREEN-RED-IR","529519","606338","910391","37.032224","15.000275","0.017475","556943","787418","766080","27.900574","10.484178","0.021128","650466","805867","815501","24.007908","8.687232","0.023315","669273","838837","862612","20.146496","6.988467","0.025625","609438","806693","955023","14.340302","4.474029","0.028914","4141","8659","11736","4321","8194","10525","4320","7826","9814","4591","7791","9491","4938","7344","8435","DualSpot on"
"MA200-0416","57816","117","1","1.10","1.6","2023-08-14T19:44:59","120","2023/08/14","19:44:59","0","0","0.0","0","300","64","7","-3864","-4916","-25644","1","150","150.08","121.92","28.16","26.22","41.2","12.00","89536","25.75","DUALSPOT-UV-BLUE-GREEN-RED-IR","524007","602735","908636","37.893964","15.405388","0.016775","552629","784353","765375","28.588734","10.780704","0.020342","645894","803076","814660","24.611352","8.933208","0.022169","664553","835587","860958","20.666154","7.188881","0.024519","606348","804658","953893","14.732273","4.609335","0.028411","4151","8450","11395","4184","7806","10000","4109","7252","9043","4276","7140","8668","4491","6712","7724","DualSpot on"
"MA200-0416","57817","117","1","1.10","1.6","2023-08-14T19:49:59","120","2023/08/14","19:49:59","0","0","0.0","1","300","64","6","-3868","-4904","-25700","1","150","150.21","121.32","28.89","26.18","41.2","11.97","89548","25.69","DUALSPOT-UV-BLUE-GREEN-RED-IR","518924","599557","907457","38.736048","15.804394","0.016154","548005","780710","763968","29.244088","11.065198","0.019481","642032","800945","814460","25.185306","9.171742","0.021426","665841","839690","866859","21.155420","7.380012","0.023439","604007","803473","953671","15.096966","4.734052","0.025734","4076","8111","10892","4004","7300","9306","3927","6854","8531","4045","6637","8025","4199","6030","6867","DualSpot on"
"MA200-0416","57818","117","1","1.10","1.6","2023-08-14T19:54:59","120","2023/08/14","19:54:59","0","0","0.0","0","300","64","4","-3828","-5100","-25691","1","150","149.80","121.24","28.56","26.15","41.3","11.97","89556","25.69","DUALSPOT-UV-BLUE-GREEN-RED-IR","512976","595120","904126","39.527104","16.181767","0.016051","542812","776047","761507","29.875966","11.341018","0.019378","640530","801657","817068","25.739322","9.402074","0.021232","660207","834985","863619","21.631404","7.567034","0.023426","600426","800583","951410","15.452862","4.855442","0.025567","3832","7760","10484","3863","7159","9176","3793","6695","8365","3938","6569","7985","4100","5937","6779","DualSpot on"
"MA200-0416","57819","117","1","1.10","1.6","2023-08-14T19:59:59","120","2023/08/14","19:59:59","0","0","0.0","0","300","64","4","-3873","-4926","-25819","1","150","149.63","122.00","27.63","26.10","41.3","11.94","89556","25.63","DUALSPOT-UV-BLUE-GREEN-RED-IR","509876","593319","904064","40.127980","16.480148","0.016678","540640","774912","762028","30.347812","11.556078","0.020445","634759","796305","813027","26.154446","9.579930","0.022349","658418","834517","864349","21.986082","7.709724","0.024766","599296","800422","952104","15.716637","4.948459","0.028529","2892","6342","8746","2867","5769","7554","2825","5343","6799","2916","5180","6403","3020","4702","5475","DualSpot on"
"MA200-0416","57820","117","1","1.10","1.6","2023-08-14T20:04:59","120","2023/08/14","20:04:59","0","0","0.0","1","300","64","2","-3776","-4764","-25803","1","150","149.60","122.12","27.47","26.06","41.4","11.93","89552","25.56","DUALSPOT-UV-BLUE-GREEN-RED-IR","508192","593699","908029","40.890592","16.849194","0.016188","538738","775008","764267","30.988862","11.837972","0.019590","633317","797147","815888","26.723380","9.819769","0.021709","653001","830058","861442","22.476424","7.906196","0.024315","595925","797838","950247","16.083282","5.077787","0.028202","3667","7890","10849","3891","7606","9903","3867","7248","9211","4028","7175","8882","4193","6576","7675","DualSpot on"
"MA200-0416","57821","117","1","1.10","1.6","2023-08-14T20:09:59","120","2023/08/14","20:09:59","0","0","0.0","14","300","64","2","-3838","-4926","-25753","1","150","150.16","122.04","28.12","26.01","41.5","11.92","89556","25.50","DUALSPOT-UV-BLUE-GREEN-RED-IR","505397","592187","908421","41.492464","17.151978","0.016112","536268","773484","764458","31.474376","12.058753","0.019448","630931","796082","816271","27.148248","10.002905","0.021349","651807","830345","862975","22.839952","8.052418","0.023434","598183","802224","956390","16.351299","5.171097","0.026154","2896","6324","8739","2949","5820","7603","2890","5406","6874","2988","5216","6430","3067","4635","5360","DualSpot on"
"MA200-0416","57822","117","1","1.10","1.6","2023-08-14T20:14:59","120","2023/08/14","20:14:59","0","0","0.0","14","300","64","1","-3864","-4800","-25828","1","150","149.76","121.84","27.93","25.98","41.8","12.00","89564","25.44","DUALSPOT-UV-BLUE-GREEN-RED-IR","502340","589847","906956","41.933888","17.383622","0.016400","534145","771929","764261","31.846924","12.236787","0.020031","628285","794167","815500","27.481264","10.152978","0.022017","648260","827184","860697","23.126034","8.173276","0.024472","596458","801001","955669","16.564449","5.249059","0.028123","2128","4871","6814","2266","4725","6260","2269","4461","5745","2355","4341","5427","2443","3899","4575","DualSpot on"
"MA200-0416","57823","117","1","1.10","1.6","2023-08-14T20:19:59","120","2023/08/14","20:19:59","0","0","0.0","14","300","64","0","-3615","-4534","-25888","1","150","149.49","122.15","27.34","25.97","42.0","12.06","89568","25.44","DUALSPOT-UV-BLUE-GREEN-RED-IR","500041","588468","907010","42.404240","17.629310","0.016400","531637","769885","763634","32.232238","12.419528","0.020026","625843","792560","815110","27.821630","10.306182","0.022153","650483","831445","866254","23.421142","8.297259","0.024594","594881","800014","955250","16.784714","5.330591","0.029155","2261","5278","7425","2338","4955","6596","2313","4652","6029","2423","4550","5716","2519","4166","4933","DualSpot on"
"MA200-0416","57824","117","1","1.10","1.6","2023-08-14T20:24:59","120","2023/08/14","20:24:59","0","0","0.0","14","300","64","0","-4000","-5128","-25564","1","150","149.53","121.88","27.64","25.96","42.1","12.08","89572","25.44","DUALSPOT-UV-BLUE-GREEN-RED-IR","497408","586793","906799","42.905524","17.886788","0.015951","529339","768217","763445","32.639354","12.608135","0.019285","623201","790809","814607","28.179332","10.463058","0.021206","648438","830312","866176","23.728386","8.424319","0.023631","593032","798678","954480","17.013524","5.413664","0.027530","2415","5470","7654","2476","5057","6682","2436","4711","6054","2529","4611","5757","2622","4197","4933","DualSpot on"
"MA200-0416","57825","117","1","1.10","1.6","2023-08-14T20:29:59","120","2023/08/14","20:29:59","0","0","0.0","14","300","64","0","-3812","-4880","-25703","1","150","150.69","122.40","28.29","25.95","42.2","12.10","89568","25.38","DUALSPOT-UV-BLUE-GREEN-RED-IR","494746","585208","906846","43.445832","18.164372","0.015598","527035","766611","763386","33.072506","12.811214","0.018952","621215","789944","815074","28.560078","10.632616","0.020879","646357","829246","866267","24.056398","8.561253","0.023112","592003","798548","955144","17.261260","5.502754","0.026042","2592","5764","8042","2623","5322","7029","2582","4976","6397","2688","4857","6055","2827","4400","5136","DualSpot on"
"MA200-0416","57826","117","1","1.10","1.6","2023-08-14T20:34:59","120","2023/08/14","20:34:59","0","0","0.0","14","300","64","0","-3968","-4880","-25684","1","150","149.17","121.92","27.25","25.96","42.4","12.18","89568","25.44","DUALSPOT-UV-BLUE-GREEN-RED-IR","491100","582133","904286","43.906660","18.406654","0.015932","523365","762827","761023","33.460334","12.995136","0.019340","618087","787501","813814","28.907528","10.787556","0.021224","643710","827288","865286","24.357844","8.687439","0.023634","589754","796677","953724","17.490372","5.587101","0.027866","2220","5222","7389","2358","5003","6683","2366","4720","6122","2480","4645","5845","2625","4323","5121","DualSpot on"
"MA200-0416","57827","117","1","1.10","1.6","2023-08-14T20:39:59","120","2023/08/14","20:39:59","0","0","0.0","13","300","64","0","-3936","-4896","-25712","1","150","149.57","121.84","27.73","26.03","43.0","12.48","89576","25.50","DUALSPOT-UV-BLUE-GREEN-RED-IR","489903","582277","907052","44.449480","18.686764","0.015438","522660","763679","763486","33.914304","13.207448","0.018677","616787","787644","815407","29.312298","10.966118","0.020465","638306","822063","861079","24.712140","8.831888","0.022333","585752","792671","949867","17.763360","5.687927","0.026918","2616","5933","8339","2762","5676","7534","2758","5346","6893","2917","5226","6510","3130","5079","5997","DualSpot on"
"MA200-0416","57828","117","1","1.10","1.6","2023-08-14T20:44:59","120","2023/08/14","20:44:59","0","0","0.0","13","300","64","19","-1236","304","-26363","1","150","150.01","122.94","27.07","26.17","43.2","12.66","89584","25.81","DUALSPOT-UV-BLUE-GREEN-RED-IR","487260","580986","907974","45.096548","19.012780","0.015304","520169","762169","763817","34.435744","13.448012","0.018657","613303","785250","814588","29.774184","11.168406","0.020582","635187","820022","860330","25.114670","8.996793","0.022808","586135","794729","953419","18.075798","5.801586","0.027103","3091","7074","9977","3144","6588","8794","3119","6204","8056","3285","6111","7689","3550","5865","6960","DualSpot on"
"MA200-0416","57829","117","1","1.10","1.6","2023-08-14T20:49:59","120","2023/08/14","20:49:59","0","0","0.0","13","300","64","23","-772","859","-26416","1","150","150.23","123.82","26.40","27.26","42.0","13.24","89620","29.13","DUALSPOT-UV-BLUE-GREEN-RED-IR","487623","582866","913302","45.611044","19.276100","0.015523","517017","759320","762384","34.857536","13.635753","0.018391","613363","787084","817694","30.158000","11.322197","0.019386","637055","824201","865681","25.443416","9.110470","0.019336","583226","792235","951263","18.350678","5.891882","0.024155","2440","5857","8359","2525","5271","7035","2573","4835","6195","2663","4319","5243","3101","4777","5570","DualSpot on"
"MA200-0416","57830","117","1","1.10","1.6","2023-08-14T20:54:59","120","2023/08/14","20:54:59","0","0","0.0","13","300","64","26","-716","788","-25984","1","150","150.16","119.89","30.27","28.35","40.4","13.61","89608","30.69","DUALSPOT-UV-BLUE-GREEN-RED-IR","480481","575586","903788","46.047340","19.495258","0.013721","518052","762338","766517","35.203884","13.781491","0.014850","609696","783931","815282","30.459308","11.425318","0.011906","634483","822411","864382","25.699254","9.175751","0.000634","581601","791345","950893","18.587212","5.963819","0.012456","2137","4252","5805","2141","3569","4487","2086","2828","3273","2140","2163","2176","2756","3319","3586","DualSpot on"
"MA200-0416","57831","117","1","1.10","1.6","2023-08-14T20:59:59","120","2023/08/14","20:59:59","0","0","0.0","13","300","64","28","-634","1092","-26376","1","150","150.49","120.13","30.36","29.31","38.9","13.87","89612","31.75","DUALSPOT-UV-BLUE-GREEN-RED-IR","479516","575772","906137","46.499328","19.711522","0.013075","512853","756295","761531","35.558516","13.922353","0.013626","606626","781596","813698","30.770084","11.528682","0.010915","626979","814274","856396","25.958846","9.238981","-0.002285","580543","791239","951480","18.834568","6.037700","0.011218","2209","4184","5637","2188","3439","4245","2147","2826","3233","2167","2089","2046","2876","3399","3646","DualSpot on"
"MA200-0416","57832","117","1","1.10","1.6","2023-08-14T21:04:59","120","2023/08/14","21:04:59","0","0","0.0","14","300","64","31","-652","1144","-26344","1","150","150.09","118.66","31.44","30.09","37.5","14.02","89632","32.56","DUALSPOT-UV-BLUE-GREEN-RED-IR","475896","572683","903344","46.949120","19.944084","0.013274","512092","756765","763243","35.929636","14.085665","0.014496","605657","781990","815146","31.104624","11.653922","0.012786","628634","818120","861150","26.247606","9.326178","0.006784","582104","794874","956702","19.109250","6.128153","0.013780","2226","4344","5909","2318","3850","4838","2340","3307","3886","2441","2782","2970","3233","4019","4389","DualSpot on"
"MA200-0416","57833","117","1","1.10","1.6","2023-08-14T21:09:59","120","2023/08/14","21:09:59","0","0","0.0","14","300","64","33","-488","1016","-26784","1","150","150.08","118.42","31.66","30.75","36.4","14.11","89640","33.25","DUALSPOT-UV-BLUE-GREEN-RED-IR","473352","570782","902266","47.365136","20.158402","0.013036","510509","755915","763556","36.281608","14.240754","0.014228","602264","779088","813116","31.417090","11.774963","0.013305","626221","816448","860135","26.517506","9.412321","0.008716","577612","790069","951752","19.363494","6.213701","0.014245","2063","3976","5393","2203","3631","4554","2190","3174","3764","2286","2730","2974","2999","3775","4141","DualSpot on"
"MA200-0416","57834","117","1","1.10","1.6","2023-08-14T21:14:59","120","2023/08/14","21:14:59","0","0","0.0","14","300","64","35","-568","1216","-26600","1","150","150.62","117.98","32.64","31.38","35.3","14.21","89640","33.81","DUALSPOT-UV-BLUE-GREEN-RED-IR","472448","570834","904269","47.775116","20.369378","0.012555","509309","755622","764421","36.632072","14.395782","0.013555","603135","781744","816883","31.733894","11.900014","0.012783","625652","817214","861688","26.788066","9.500335","0.007987","578117","792025","954946","19.614608","6.300922","0.013935","2041","3796","5100","2202","3520","4374","2229","3180","3750","2300","2705","2927","2973","3732","4091","DualSpot on"
"MA200-0416","57835","117","1","1.10","1.6","2023-08-14T21:19:59","120","2023/08/14","21:19:59","0","0","0.0","14","300","64","38","-472","1220","-26403","1","150","150.23","117.86","32.37","31.88","34.4","14.26","89644","34.31","DUALSPOT-UV-BLUE-GREEN-RED-IR","471841","571013","906240","48.119256","20.551506","0.012845","508860","756164","766020","36.928508","14.533371","0.014413","601476","780793","816820","32.000702","12.009594","0.013823","625039","817603","862779","27.013286","9.577858","0.010437","576032","790245","953510","19.823296","6.375458","0.015488","1715","3305","4490","1864","3151","3986","1879","2810","3370","1917","2402","2669","2473","3216","3569","DualSpot on"
"MA200-0416","57836","117","1","1.10","1.6","2023-08-14T21:24:59","120","2023/08/14","21:24:59","0","0","0.0","14","300","64","39","-491","1166","-26254","1","150","149.73","117.79","31.94","32.28","33.6","14.24","89632","34.69","DUALSPOT-UV-BLUE-GREEN-RED-IR","468767","568218","903416","48.464540","20.734230","0.012887","506115","753261","764176","37.226900","14.675115","0.014879","598354","777926","814726","32.269420","12.125249","0.015025","621160","813688","859389","27.241874","9.662367","0.013230","575523","790610","954653","20.030686","6.450350","0.016410","1721","3360","4586","1877","3290","4209","1893","3006","3676","1946","2654","3044","2459","3275","3663","DualSpot on"
"MA200-0416","57837","117","1","1.10","1.6","2023-08-14T21:29:59","120","2023/08/14","21:29:59","0","0","0.0","14","300","64","41","-400","1276","-26328","1","150","150.14","118.17","31.98","32.63","32.8","14.17","89636","35.00","DUALSPOT-UV-BLUE-GREEN-RED-IR","468838","569465","907485","48.897536","20.961696","0.012727","505602","754008","766314","37.607920","14.852152","0.014421","597651","778593","816652","32.616494","12.274105","0.014838","621401","815587","862374","27.545680","9.778027","0.014042","574105","789989","954798","20.294258","6.547357","0.017104","2152","4178","5698","2390","4104","5223","2438","3864","4725","2579","3628","4206","3115","4238","4772","DualSpot on"
"MA200-0416","57838","117","1","1.10","1.6","2023-08-14T21:34:59","120","2023/08/14","21:34:59","0","0","0.0","14","300","64","22","-532","1464","-26528","1","150","149.57","117.54","32.02","32.42","32.5","13.83","89628","33.00","DUALSPOT-UV-BLUE-GREEN-RED-IR","468389","570090","910735","49.348564","21.206170","0.012855","501219","748998","762696","38.002084","15.046009","0.015035","595788","777660","817061","32.979622","12.441729","0.015985","620344","815704","863691","27.868816","9.914518","0.016532","569567","785042","949926","20.571686","6.661546","0.020918","2253","4483","6164","2485","4487","5799","2564","4345","5424","2758","4276","5114","3297","4981","5787","DualSpot on"
"MA200-0416","57839","117","1","1.10","1.6","2023-08-14T21:39:59","120","2023/08/14","21:39:59","0","0","0.0","14","300","64","22","-488","1552","-26336","1","150","150.16","117.78","32.38","31.69","32.8","13.37","89600","31.56","DUALSPOT-UV-BLUE-GREEN-RED-IR","462221","563826","903265","49.847396","21.485142","0.012941","499829","748482","763995","38.446188","15.282527","0.015832","591983","774239","815218","33.393844","12.658072","0.017718","619034","815472","865141","28.245246","10.108255","0.020390","570630","787778","954491","20.864846","6.789589","0.022335","2487","5060","7009","2795","5414","7143","2919","5547","7150","3206","6002","7561","3477","5524","6511","DualSpot on"
"MA200-0416","57840","117","1","1.10","1.6","2023-08-14T21:44:59","120","2023/08/14","21:44:59","0","0","0.0","14","300","64","20","-644","1476","-26228","1","150","150.03","117.62","32.41","30.97","33.5","13.03","89604","30.56","DUALSPOT-UV-BLUE-GREEN-RED-IR","461413","564152","906492","50.376548","21.785594","0.012932","496308","744867","762287","38.934072","15.547379","0.015864","588198","770891","813683","33.848460","12.904965","0.018045","613303","809469","860713","28.662686","10.331388","0.020763","568906","786725","954605","21.178402","6.932853","0.023355","2642","5445","7581","3074","6058","8042","3208","6325","8245","3560","6907","8794","3724","6175","7368","DualSpot on"
"MA200-0416","57841","117","1","1.10","1.6","2023-08-14T21:49:59","120","2023/08/14","21:49:59","0","0","0.0","14","300","64","20","-584","1476","-26396","1","150","149.66","117.75","31.91","30.34","34.1","12.77","89612","29.88","DUALSPOT-UV-BLUE-GREEN-RED-IR","458424","561743","905309","50.894828","22.080246","0.012964","495595","745326","764726","39.395460","15.801390","0.016060","586130","769682","814348","34.281360","13.140789","0.018114","613897","811691","864906","29.057754","10.546954","0.021133","565664","783428","951831","21.462932","7.065660","0.024161","2585","5423","7599","2904","5901","7908","3052","6136","8052","3366","6778","8722","3375","5814","7011","DualSpot on"
"MA200-0416","57842","117","1","1.10","1.6","2023-08-14T21:54:59","120","2023/08/14","21:54:59","0","0","0.0","14","300","64","19","-824","1384","-26075","1","150","150.03","117.78","32.25","29.76","34.7","12.54","89620","29.25","DUALSPOT-UV-BLUE-GREEN-RED-IR","458219","562694","909490","51.405016","22.372894","0.012834","493483","743641","764817","39.838764","16.043909","0.015704","583435","767582","813955","34.695448","13.366110","0.017763","612760","811595","866548","29.435898","10.750652","0.020513","564992","783675","953284","21.734742","7.189216","0.022849","2544","5330","7477","2790","5575","7452","2918","5800","7606","3221","6337","8130","3223","5352","6404","DualSpot on"
"MA200-0416","57843","117","1","1.10","1.6","2023-08-14T21:59:59","120","2023/08/14","21:59:59","0","0","0.0","13","300","64","18","-588","1619","-26173","1","150","149.76","119.13","30.63","29.23","35.3","12.30","89624","28.75","DUALSPOT-UV-BLUE-GREEN-RED-IR","453918","558745","905903","51.937776","22.677712","0.013189","488375","737530","760539","40.304108","16.299099","0.016262","579958","764589","812789","35.133188","13.605774","0.018452","605754","803912","860253","29.834934","10.965160","0.021216","563266","782551","953255","22.023590","7.322178","0.024615","2626","5844","8339","2895","6176","8403","3050","6495","8673","3360","7025","9155","3387","6063","7396","DualSpot on"
"MA200-0416","57844","117","1","1.10","1.6","2023-08-14T22:04:59","120","2023/08/14","22:04:59","0","0","0.0","13","300","64","17","-600","1544","-26319","1","150","150.28","118.71","31.57","28.76","35.7","12.09","89608","28.25","DUALSPOT-UV-BLUE-GREEN-RED-IR","447858","553918","902788","52.953108","23.207294","0.011918","485755","737055","763644","41.265428","16.776348","0.014383","575557","762289","813830","36.040072","14.046165","0.015956","603825","804792","864553","30.668106","11.360250","0.018074","557848","777885","950125","22.676704","7.597261","0.020612","5023","9851","13618","6003","11205","14769","6342","11580","14925","7041","12554","15798","7685","12171","14430","DualSpot on"
"MA200-0416","57845","117","1","1.10","1.6","2023-08-14T22:09:59","120","2023/08/14","22:09:59","0","0","0.0","14","300","64","17","-592","1635","-26200","1","150","149.94","118.88","31.06","28.31","36.2","11.91","89604","27.81","DUALSPOT-UV-BLUE-GREEN-RED-IR","449192","556706","909758","53.423264","23.473340","0.012640","483888","735656","763948","41.687444","17.006786","0.015544","575418","763527","816930","36.437496","14.258242","0.017327","599405","800289","861341","31.029152","11.548495","0.019764","556444","777105","950294","22.941246","7.713535","0.022094","2322","5031","7153","2631","5500","7476","2775","5668","7528","3047","6080","7878","3108","5229","6303","DualSpot on"
"MA200-0416","57846","117","1","1.10","1.6","2023-08-14T22:14:59","120","2023/08/14","22:14:59","0","0","0.0","13","300","64","16","-668","1672","-26244","1","150","149.51","119.37","30.13","27.93","36.7","11.77","89608","27.44","DUALSPOT-UV-BLUE-GREEN-RED-IR","446395","554197","908017","53.864096","23.735726","0.013149","481469","733210","763102","42.084368","17.230624","0.016070","571120","759051","813788","36.806504","14.463243","0.018046","596066","797021","859384","31.364490","11.730722","0.020662","556930","778769","953367","23.183048","7.826090","0.024166","2169","5114","7434","2465","5506","7615","2566","5647","7642","2818","6066","8007","2829","5217","6434","DualSpot on"
"MA200-0416","57847","117","1","1.10","1.6","2023-08-14T22:19:59","120","2023/08/14","22:19:59","0","0","0.0","13","300","64","15","-608","1692","-26484","1","150","150.03","119.09","30.94","27.58","37.2","11.68","89600","27.06","DUALSPOT-UV-BLUE-GREEN-RED-IR","442419","550238","903681","54.275148","23.976002","0.012738","478119","729336","760622","42.454036","17.435902","0.015518","568238","756411","812464","37.149756","14.649767","0.017314","595207","797054","860830","31.675716","11.896322","0.019785","555166","777269","952480","23.406288","7.926485","0.022435","2027","4562","6567","2301","4919","6743","2392","5005","6707","2621","5370","7023","2618","4533","5514","DualSpot on"
"MA200-0416","57848","117","1","1.10","1.6","2023-08-14T22:24:59","120","2023/08/14","22:24:59","0","0","0.0","14","300","64","14","-584","1180","-25448","1","150","149.53","119.79","29.73","27.27","37.7","11.61","89608","26.81","DUALSPOT-UV-BLUE-GREEN-RED-IR","441891","550798","907213","54.788644","24.266178","0.012708","477525","730038","763303","42.929148","17.689986","0.015436","566008","755014","812831","37.594360","14.879248","0.017055","591984","794300","859610","32.076012","12.097241","0.019373","554460","777564","954120","23.703190","8.056291","0.022600","2517","5732","8288","2940","6335","8715","3081","6408","8587","3352","6780","8855","3462","6099","7456","DualSpot on"
"MA200-0416","57849","117","1","1.10","1.6","2023-08-14T22:29:59","120","2023/08/14","22:29:59","0","0","0.0","14","300","64","14","-664","1740","-26460","1","150","149.55","120.03","29.52","27.00","38.3","11.57","89596","26.50","DUALSPOT-UV-BLUE-GREEN-RED-IR","438875","547882","904426","55.166312","24.488698","0.012962","474521","726534","761070","43.265316","17.878554","0.015851","564004","753393","812426","37.902684","15.047777","0.017668","593312","797132","863911","32.351014","12.242828","0.020081","550325","772604","948842","23.902942","8.144588","0.022899","1848","4427","6485","2076","4735","6607","2132","4739","6455","2298","4947","6560","2324","4178","5136","DualSpot on"
"MA200-0416","57850","117","1","1.10","1.6","2023-08-14T22:34:59","120","2023/08/14","22:34:59","0","0","0.0","14","300","64","13","-844","1764","-26256","1","150","149.57","119.53","30.04","26.76","38.6","11.50","89584","26.25","DUALSPOT-UV-BLUE-GREEN-RED-IR","438991","548807","907876","55.521364","24.700656","0.012833","474358","727252","763149","43.580344","18.054788","0.015529","563805","754146","814545","38.190212","15.204449","0.017283","587573","790390","857777","32.608510","12.378187","0.019556","551071","774449","951878","24.085328","8.226183","0.022519","1744","4145","6068","1953","4349","6044","1997","4330","5874","2161","4521","5965","2131","3795","4657","DualSpot on"
"MA200-0416","57851","117","1","1.10","1.6","2023-08-14T22:39:59","120","2023/08/14","22:39:59","0","0","0.0","14","300","64","12","-607","1788","-26350","1","150","149.09","121.03","28.06","26.53","39.0","11.44","0","0.00","DUALSPOT-UV-BLUE-GREEN-RED-IR","434864","544418","902525","55.876024","24.912162","0.013233","474243","728154","765451","43.893616","18.230272","0.016125","561648","752235","813737","38.477720","15.359241","0.017869","588623","792767","861507","32.864952","12.511852","0.020337","549963","773700","951751","24.268822","8.305788","0.023478","1721","4427","6604","1918","4636","6566","1972","4579","6312","2125","4779","6410","2117","3963","4923","DualSpot on"
"MA200-0416","57852","117","1","1.10","1.6","2023-08-14T22:44:59","120","2023/08/14","22:44:59","0","0","0.0","14","300","64","10","-584","1684","-26391","1","150","149.80","120.25","29.54","26.33","39.3","11.39","0","0.00","DUALSPOT-UV-BLUE-GREEN-RED-IR","437169","548135","910728","56.244340","25.132416","0.012830","473014","727264","765890","44.216192","18.411626","0.015565","561100","752536","815343","38.771848","15.519229","0.017263","587466","792178","862005","33.125034","12.647264","0.019446","550333","775066","954188","24.461158","8.388412","0.021769","1799","4378","6462","1988","4550","6378","2030","4495","6141","2169","4598","6098","2234","3906","4779","DualSpot on"
"MA200-0416","57853","117","1","1.10","1.6","2023-08-14T22:49:59","120","2023/08/14","22:49:59","0","0","0.0","14","300","64","10","-636","1843","-26296","1","150","150.30","119.96","30.34","26.15","39.7","11.36","89584","25.63","DUALSPOT-UV-BLUE-GREEN-RED-IR","433617","544444","906524","56.603136","25.347854","0.012602","469998","723574","763357","44.527752","18.587838","0.015264","558443","749939","813794","39.058704","15.674431","0.016782","588070","794004","865181","33.381882","12.781107","0.018935","548533","773342","952863","24.647202","8.471188","0.021759","1756","4170","6128","1925","4305","6010","1985","4246","5762","2148","4425","5838","2166","3811","4672","DualSpot on"
"MA200-0416","57854","117","1","1.10","1.6","2023-08-14T22:54:59","120","2023/08/14","22:54:59","0","0","0.0","14","300","64","9","-808","1592","-26256","1","150","149.90","120.30","29.60","25.99","40.0","11.33","89584","25.50","DUALSPOT-UV-BLUE-GREEN-RED-IR","431484","542565","905429","56.974036","25.572148","0.012736","468287","722024","763101","44.855692","18.769474","0.015219","557384","749539","814685","39.358748","15.836689","0.016950","582514","787475","859249","33.648344","12.917717","0.018947","548437","774068","954577","24.845860","8.557220","0.021609","1810","4450","6600","2020","4549","6368","2070","4551","6221","2222","4630","6130","2306","4060","4981","DualSpot on"
"MA200-0416","57855","117","1","1.10","1.6","2023-08-14T22:59:59","120","2023/08/14","22:59:59","0","0","0.0","14","300","64","9","-652","1848","-26228","1","150","150.09","120.42","29.68","25.83","40.2","11.27","89572","25.31","DUALSPOT-UV-BLUE-GREEN-RED-IR","431649","543967","910456","57.487632","25.867172","0.012308","467875","722980","766010","45.320104","19.017742","0.014746","553871","746393","813052","39.784388","16.055136","0.016206","582270","788691","862150","34.025480","13.102561","0.018121","545837","771665","952812","25.132358","8.681002","0.021287","2505","5839","8566","2859","6201","8618","2934","6111","8260","3142","6249","8194","3323","5826","7147","DualSpot on"
"MA200-0416","57856","117","1","1.10","1.6","2023-08-14T23:04:59","120","2023/08/14","23:04:59","0","0","0.0","14","300","64","7","-620","1684","-26291","1","150","149.45","120.58","28.87","25.69","40.3","11.20","89572","25.19","DUALSPOT-UV-BLUE-GREEN-RED-IR","426274","538218","903157","57.940164","26.128788","0.012434","463174","717027","761456","45.736072","19.243308","0.014998","552533","745933","814144","40.166980","16.252928","0.016450","580560","787731","862579","34.368784","13.273073","0.018520","545455","772306","954655","25.394840","8.792253","0.021303","2204","5323","7885","2557","5793","8143","2634","5688","7764","2856","5926","7858","3040","5384","6624","DualSpot on"
"MA200-0416","57857","117","1","1.10","1.6","2023-08-14T23:09:59","120","2023/08/14","23:09:59","0","0","0.0","13","300","64","7","-708","1596","-26288","1","150","149.39","120.70","28.68","25.58","40.5","11.17","89560","25.06","DUALSPOT-UV-BLUE-GREEN-RED-IR","427022","539857","907821","58.283548","26.340004","0.012756","463950","719196","765080","46.044604","19.418672","0.015343","550364","743980","813297","40.453508","16.407892","0.016863","577949","785194","860930","34.626112","13.406424","0.019011","544027","771079","953961","25.587128","8.879168","0.022671","1670","4325","6513","1894","4532","6455","1970","4485","6201","2138","4664","6259","2225","4232","5299","DualSpot on"
"MA200-0416","57858","117","1","1.10","1.6","2023-08-14T23:14:59","120","2023/08/14","23:14:59","0","0","0.0","13","300","68","6","-724","1772","-26375","2","150","149.73","116.82","32.91","25.47","40.9","11.22","89560","25.06","DUALSPOT-UV-BLUE-GREEN-RED-IR","797239","707781","908320","0.000000","0.000000","0.000000","760051","876806","763696","0.000000","0.000000","0.000000","854733","884178","817705","0.000000","0.000000","0.000000","844380","904870","867045","0.000000","0.000000","0.000000","719067","842117","956384","0.000000","0.000000","0.000000","","","","","","","","","","","","","","","","Tape advance-DualSpot on"
"MA200-0416","57859","117","1","1.10","1.6","2023-08-14T23:19:59","120","2023/08/14","23:19:59","0","0","0.0","13","300","68","5","-692","1688","-26060","2","150","150.49","117.26","33.23","25.35","41.2","11.21","89556","24.94","DUALSPOT-UV-BLUE-GREEN-RED-IR","785723","702175","903777","0.000000","0.000000","0.000000","756842","877084","765493","0.000000","0.000000","0.000000","848083","880545","815769","0.000000","0.000000","0.000000","836791","899297","862899","0.000000","0.000000","0.000000","715228","839223","953793","0.000000","0.000000","0.000000","","","","","","","","","","","","","","","","Tape advance-DualSpot on"
"MA200-0416","57860","117","1","1.10","1.6","2023-08-14T23:24:59","120","2023/08/14","23:24:59","0","0","0.0","13","300","64","3","-753","1665","-26080","2","150","149.90","116.98","32.91","25.22","41.4","11.18","89552","24.81","DUALSPOT-UV-BLUE-GREEN-RED-IR","781822","703169","907663","0.929291","0.288234","0.000000","749560","872573","763143","0.656403","0.205111","0.000000","841636","877092","813952","0.542533","0.171166","0.000000","836484","901583","866280","0.428115","0.136554","0.000000","711766","836733","951712","0.268091","0.078136","0.000000","4665","5144","4665","4159","4620","4159","3850","4317","3850","3671","4162","3671","3201","3316","3201","DualSpot on"
"MA200-0416","57861","117","1","1.10","1.6","2023-08-14T23:29:59","120","2023/08/14","23:29:59","0","0","0.0","13","300","64","3","-772","1700","-26191","2","150","149.80","117.09","32.71","25.15","41.6","11.20","89544","24.69","DUALSPOT-UV-BLUE-GREEN-RED-IR","777254","703444","910672","1.845540","0.577678","0.000000","746652","873014","765115","1.304941","0.415122","0.000000","839935","878521","816716","1.081466","0.345760","0.000000","829861","897029","863110","0.855445","0.275558","0.000000","713189","840039","956234","0.540754","0.157231","0.000000","4596","5196","4596","4106","4759","4106","3821","4431","3821","3661","4263","3661","3253","3377","3253","DualSpot on"
"MA200-0416","57862","117","1","1.10","1.6","2023-08-14T23:34:59","120","2023/08/14","23:34:59","0","0","0.0","13","300","64","1","-752","1672","-26075","2","150","149.70","117.38","32.32","25.06","41.9","11.21","89548","24.63","DUALSPOT-UV-BLUE-GREEN-RED-IR","766866","698495","906935","2.779829","0.877986","0.000000","739859","869020","763259","1.978098","0.629562","0.000000","833896","875576","815431","1.643019","0.523066","0.000000","829581","899524","866712","1.304457","0.416803","0.000000","709735","837712","954350","0.830804","0.237936","0.000000","4675","5458","4675","4251","4919","4251","3971","4555","3971","3837","4385","3837","3451","3488","3451","DualSpot on"
"MA200-0416","57863","117","1","1.10","1.6","2023-08-14T23:39:59","120","2023/08/14","23:39:59","0","0","0.0","13","300","64","1","-492","1816","-26316","2","150","149.34","117.00","32.34","24.99","42.1","11.21","0","0.00","DUALSPOT-UV-BLUE-GREEN-RED-IR","757655","694383","904257","3.694635","1.172903","0.053079","737997","870792","766491","2.645703","0.844067","0.000000","827352","872009","813541","2.204710","0.700456","0.000000","822910","895034","863617","1.756945","0.558459","0.000000","706299","835410","952528","1.125894","0.321968","0.000000","4592","5357","5712","4229","4917","4229","3985","4554","3985","3880","4395","3880","3523","3630","3523","DualSpot on"
"MA200-0416","57864","117","1","1.10","1.6","2023-08-14T23:44:59","120","2023/08/14","23:44:59","0","0","0.0","14","300","64","0","-704","1740","-26363","2","150","149.76","117.50","32.26","24.91","42.2","11.18","0","0.00","DUALSPOT-UV-BLUE-GREEN-RED-IR","754706","695587","908409","4.543941","1.457040","0.053555","731232","866492","764256","3.277759","1.052618","0.069894","826029","873793","816622","2.738934","0.874567","0.000000","816820","891027","860943","2.189223","0.698792","0.000000","703053","833235","950846","1.406492","0.403131","0.000000","4245","5173","5610","3987","4792","5172","3774","4480","3774","3690","4364","3690","3335","3514","3335","DualSpot on"
"MA200-0416","57865","117","1","1.10","1.6","2023-08-14T23:49:59","120","2023/08/14","23:49:59","0","0","0.0","12","300","64","0","-638","1746","-26288","2","150","149.35","117.68","31.67","24.85","42.2","11.14","89552","24.38","DUALSPOT-UV-BLUE-GREEN-RED-IR","746816","692406","907001","5.438112","1.758930","0.050248","725488","863496","763352","3.947818","1.274746","0.064574","821190","872013","816452","3.307664","1.060003","0.071739","818763","895970","867032","2.652090","0.847995","0.000000","704534","836838","955795","1.716714","0.491840","0.000000","4463","5598","6141","4221","5199","5665","4012","4860","5260","3946","4726","3946","3682","3912","3682","DualSpot on"
"MA200-0416","57866","117","1","1.10","1.6","2023-08-14T23:54:59","120","2023/08/14","23:54:59","0","0","0.0","12","300","64","0","-696","1811","-26452","2","150","150.49","117.31","33.18","24.78","42.3","11.10","89548","24.31","DUALSPOT-UV-BLUE-GREEN-RED-IR","742622","692451","909832","6.314934","2.063705","0.040190","722745","864010","765511","4.608787","1.500982","0.051561","813727","867298","813583","3.870040","1.250112","0.057836","809876","888967","861564","3.112444","1.000875","0.065635","699529","832677","951903","2.025451","0.583539","0.000000","4390","5395","5883","4176","5054","5478","3980","4756","5127","3937","4622","4947","3676","3860","3676","DualSpot on"
"MA200-0416","57867","117","1","1.10","1.6","2023-08-14T23:59:59","120","2023/08/14","23:59:59","0","0","0.0","12","300","64","0","-660","1756","-26228","2","150","149.33","117.30","32.02","24.72","42.5","11.10","89556","24.25","DUALSPOT-UV-BLUE-GREEN-RED-IR","737704","691574","911313","7.140157","2.352245","0.041338","718665","862664","765950","5.232756","1.712566","0.050579","810151","866565","814351","4.403092","1.426703","0.054518","806417","887757","861607","3.546229","1.141590","0.061279","697851","832407","952397","2.314594","0.666236","0.000000","4132","5292","5862","3943","4898","5362","3772","4578","4964","3710","4408","4740","3443","3607","3443","DualSpot on"
"MA200-0416","57868","117","1","1.10","1.6","2023-08-15T00:04:59","120","2023/08/15","00:04:59","0","0","0.0","12","300","64","0","-620","1884","-26356","2","150","149.83","117.74","32.09","24.68","42.7","11.15","89548","24.19","DUALSPOT-UV-BLUE-GREEN-RED-IR","729561","687360","908243","7.916246","2.627699","0.039351","712748","858874","764132","5.821161","1.916480","0.049505","809446","868698","817730","4.903883","1.595890","0.053445","808031","891945","866852","3.953892","1.276058","0.059919","695589","831315","951894","2.587658","0.745757","0.000000","3871","5041","5623","3704","4710","5204","3531","4377","4785","3473","4204","4552","3239","3461","3239","DualSpot on"
"MA200-0416","57869","117","1","1.10","1.6","2023-08-15T00:09:59","120","2023/08/15","00:09:59","0","0","0.0","12","300","64","0","-600","1803","-26347","2","150","149.45","118.06","31.39","24.64","42.9","11.20","89536","24.19","DUALSPOT-UV-BLUE-GREEN-RED-IR","723494","684908","907390","8.659481","2.892645","0.039096","707573","855813","762886","6.385788","2.109259","0.046662","805288","866969","817441","5.381964","1.756817","0.052621","804855","890815","866821","4.342375","1.401168","0.054770","693749","830647","951833","2.845897","0.818742","0.000000","3697","4958","5590","3545","4553","5050","3362","4256","4690","3301","3999","4331","3055","3248","3055","DualSpot on"
"MA200-0416","57870","117","1","1.10","1.6","2023-08-15T00:14:59","120","2023/08/15","00:14:59","0","0","0.0","12","300","64","0","-620","2048","-26324","2","150","150.01","118.46","31.55","24.61","43.1","11.25","89532","24.19","DUALSPOT-UV-BLUE-GREEN-RED-IR","717665","682850","907249","9.449921","3.176525","0.036438","699195","848946","758314","6.978051","2.315587","0.045235","801062","865295","817217","5.884508","1.925528","0.047454","800542","888465","865677","4.751243","1.534748","0.052823","691286","829339","951082","3.120117","0.896387","0.026129","3919","5285","5977","3706","4848","5415","3522","4440","4886","3462","4248","4623","3233","3438","3520","DualSpot on"
"MA200-0416","57871","117","1","1.10","1.6","2023-08-15T00:19:59","120","2023/08/15","00:19:59","0","0","0.0","12","300","64","0","-744","1664","-26268","2","150","150.29","118.93","31.36","24.58","43.4","11.30","0","0.00","DUALSPOT-UV-BLUE-GREEN-RED-IR","709594","678683","904352","10.260893","3.470712","0.035300","702124","855880","766121","7.579499","2.525097","0.042884","795877","862583","816074","6.392902","2.098614","0.047308","795903","885788","864245","5.163550","1.671737","0.053798","692199","832062","954980","3.397995","0.977897","0.040146","4005","5510","6279","3748","4952","5554","3548","4582","5087","3478","4382","4815","3263","3631","3779","DualSpot on"
"MA200-0416","57872","117","1","1.10","1.6","2023-08-15T00:24:59","120","2023/08/15","00:24:59","0","0","0.0","12","300","64","0","-716","1603","-26116","2","150","149.97","118.75","31.22","24.55","43.6","11.34","0","0.00","DUALSPOT-UV-BLUE-GREEN-RED-IR","709585","682113","911574","11.061848","3.761383","0.033054","698032","854179","766209","8.178176","2.735895","0.041294","791505","860720","815700","6.898894","2.271545","0.044795","791539","883313","863027","5.575002","1.807177","0.048731","689813","830834","954322","3.674614","1.058694","0.036718","3961","5468","6245","3737","5005","5643","3537","4598","5119","3476","4352","4772","3254","3615","3761","DualSpot on"
"MA200-0416","57873","117","1","1.10","1.6","2023-08-15T00:29:59","120","2023/08/15","00:29:59","0","0","0.0","12","300","64","0","-648","1880","-26144","2","150","149.50","118.76","30.74","24.53","43.7","11.38","89524","24.06","DUALSPOT-UV-BLUE-GREEN-RED-IR","703143","679291","910471","11.848406","4.053722","0.033639","693094","851345","765262","8.764073","2.944016","0.040997","787419","859054","815528","7.396064","2.442080","0.044194","788314","882114","863005","5.979568","1.940703","0.048409","688036","830297","954484","3.947448","1.137197","0.034347","3890","5586","6468","3657","5019","5708","3475","4606","5163","3417","4358","4810","3209","3567","3712","DualSpot on"
"MA200-0416","57874","117","1","1.10","1.6","2023-08-15T00:34:59","120","2023/08/15","00:34:59","0","0","0.0","11","300","64","0","-676","1916","-26384","2","150","150.04","118.81","31.22","24.51","44.0","11.45","89516","24.06","DUALSPOT-UV-BLUE-GREEN-RED-IR","695240","674884","907183","12.615541","4.341625","0.031309","687533","847646","763491","9.341403","3.150624","0.037807","782128","856036","814029","7.884962","2.612692","0.041738","787974","884084","866094","6.378545","2.073890","0.044840","684237","827282","951747","4.216873","1.216939","0.035756","3792","5416","6268","3602","4905","5568","3416","4536","5092","3368","4279","4718","3167","3567","3730","DualSpot on"
"MA200-0416","57875","117","1","1.10","1.6","2023-08-15T00:39:59","120","2023/08/15","00:39:59","0","0","0.0","11","300","64","0","-560","2011","-26275","2","150","150.03","119.21","30.82","24.50","44.1","11.47","89516","24.00","DUALSPOT-UV-BLUE-GREEN-RED-IR","691969","674802","909659","13.360783","4.626858","0.031713","685257","847815","765204","9.897751","3.354060","0.038937","779263","855524","814902","8.359057","2.778995","0.041684","780997","878483","861736","6.766493","2.205640","0.046943","683705","828183","953559","4.480739","1.294938","0.037482","3671","5436","6371","3459","4893","5629","3301","4480","5067","3264","4289","4784","3092","3535","3716","DualSpot on"
"MA200-0416","57876","117","1","1.10","1.6","2023-08-15T00:44:59","120","2023/08/15","00:44:59","0","0","0.0","10","300","64","0","-656","1796","-26375","2","150","150.28","119.31","30.97","24.49","44.1","11.47","89516","24.00","DUALSPOT-UV-BLUE-GREEN-RED-IR","684585","670584","906436","14.079918","4.898586","0.029218","679436","843582","762865","10.445380","3.548735","0.034358","774127","852450","813290","8.826982","2.938664","0.036310","780982","880775","865045","7.151450","2.331203","0.038561","680369","825697","951377","4.742889","1.369986","0.026664","3540","5153","6014","3402","4660","5307","3255","4280","4791","3236","4067","4469","3069","3385","3513","DualSpot on"
"MA200-0416","57877","117","1","1.10","1.6","2023-08-15T00:49:59","120","2023/08/15","00:49:59","0","0","0.0","10","300","64","0","-592","1892","-26208","2","150","149.33","118.71","30.63","24.47","44.2","11.49","0","0.00","DUALSPOT-UV-BLUE-GREEN-RED-IR","680656","669372","907008","14.717089","5.144977","0.029489","676720","842794","763512","10.933843","3.729855","0.036475","771547","851917","813971","9.244854","3.088712","0.040060","779545","881122","866419","7.493460","2.447819","0.043126","679486","825965","952393","4.979004","1.442933","0.043677","3152","4725","5570","3050","4383","5074","2922","4067","4641","2890","3819","4270","2778","3327","3550","DualSpot on"
"MA200-0416","57878","117","1","1.10","1.6","2023-08-15T00:54:59","120","2023/08/15","00:54:59","0","0","0.0","10","300","64","0","-604","1848","-26116","2","150","149.96","119.13","30.83","24.45","44.3","11.50","0","0.00","DUALSPOT-UV-BLUE-GREEN-RED-IR","676111","667264","906306","15.311552","5.378731","0.029042","673288","840898","763124","11.391918","3.900474","0.035156","768284","850462","813749","9.638137","3.229904","0.038190","776561","879591","865896","7.819883","2.561891","0.043809","677872","825258","952213","5.201130","1.508343","0.031273","2930","4453","5277","2850","4102","4754","2740","3802","4337","2748","3712","4181","2604","2963","3110","DualSpot on"
"MA200-0416","57879","117","1","1.10","1.6","2023-08-15T00:59:59","120","2023/08/15","00:59:59","0","0","0.0","10","300","64","0","-661","1826","-26569","2","150","149.32","118.99","30.32","24.44","44.4","11.54","0","0.00","DUALSPOT-UV-BLUE-GREEN-RED-IR","666822","660228","898562","15.841488","5.589973","0.029402","670218","839272","762832","11.805669","4.056382","0.035720","769563","853813","818030","9.995930","3.360366","0.039374","773902","878291","865491","8.114681","2.663338","0.042241","679631","828578","956616","5.404888","1.570711","0.040864","2615","4091","4896","2577","3811","4457","2496","3571","4116","2485","3356","3781","2392","2873","3070","DualSpot on"
"MA200-0416","57880","117","1","1.10","1.6","2023-08-15T01:04:59","120","2023/08/15","01:04:59","0","0","0.0","10","300","64","0","-616","1972","-26236","2","150","149.46","119.00","30.46","24.40","44.6","11.55","0","0.00","DUALSPOT-UV-BLUE-GREEN-RED-IR","667734","663109","904314","16.344498","5.789102","0.028045","670947","842217","766649","12.202117","4.205167","0.034064","766245","851996","817272","10.336417","3.483998","0.037441","770819","876386","864488","8.397516","2.763557","0.043369","677886","827589","956079","5.600654","1.630803","0.039169","2482","3839","4583","2469","3620","4226","2375","3369","3875","2384","3300","3750","2298","2755","2943","DualSpot on"
"MA200-0416","57881","117","1","1.10","1.6","2023-08-15T01:09:59","120","2023/08/15","01:09:59","0","0","0.0","11","300","64","0","-584","2024","-26303","2","150","149.43","119.18","30.25","24.38","44.7","11.56","89504","23.88","DUALSPOT-UV-BLUE-GREEN-RED-IR","663974","661370","903782","16.847396","5.991968","0.028347","667816","840349","766106","12.596631","4.357528","0.035209","763713","851007","817366","10.676486","3.609687","0.038201","768538","875437","864391","8.681138","2.863842","0.042571","676680","827237","956256","5.796924","1.690632","0.038098","2478","3938","4744","2454","3733","4409","2369","3449","4000","2387","3325","3787","2300","2762","2952","DualSpot on"
"MA200-0416","57882","117","1","1.10","1.6","2023-08-15T01:14:59","120","2023/08/15","01:14:59","0","0","0.0","11","300","64","0","-588","1948","-26203","2","150","149.45","119.29","30.15","24.35","44.7","11.55","89500","23.88","DUALSPOT-UV-BLUE-GREEN-RED-IR","664765","664458","910078","17.418642","6.221411","0.027450","664332","838277","765532","13.043423","4.528522","0.033775","760344","849317","816945","11.065885","3.754854","0.037788","765296","873532","863560","9.004769","2.979111","0.042131","674717","826148","955638","6.025432","1.762778","0.043211","2812","4469","5389","2776","4203","4962","2710","3996","4657","2721","3835","4385","2675","3342","3617","DualSpot on"
"MA200-0416","57883","117","1","1.10","1.6","2023-08-15T01:19:59","120","2023/08/15","01:19:59","0","0","0.0","11","300","64","0","-652","1927","-26260","2","150","149.70","119.61","30.09","24.32","44.7","11.54","89500","23.81","DUALSPOT-UV-BLUE-GREEN-RED-IR","660254","662276","909366","18.022328","6.468271","0.027404","661065","836606","765415","13.521255","4.714793","0.033850","756520","847235","816217","11.482871","3.910857","0.037006","760944","870544","861636","9.358142","3.106117","0.041773","672134","824448","954415","6.277836","1.840526","0.038402","2964","4819","5857","2961","4589","5461","2894","4304","5033","2964","4234","4866","2947","3609","3884","DualSpot on"
