"Serial number","Datum ID","Session ID","Data format version","Firmware version","App version","Date / time local","Timezone offset (mins)","Date local (yyyy/MM/dd)","Time local (hh:mm:ss)","GPS lat (ddmm.mmmmm)","GPS long (dddmm.mmmmm)","GPS speed (km/h)","GPS sat count","Timebase (s)","Status","Battery remaining (%)","Accel X","Accel Y","Accel Z","Tape position","Flow setpoint (mL/min)","Flow total (mL/min)","Flow1 (mL/min)","Flow2 (mL/min)","Sample temp (C)","Sample RH (%)","Sample dewpoint (C)","Internal pressure (Pa)","Internal temp (C)","Optical config","UV Sen1","UV Sen2","UV Ref","UV ATN1","UV ATN2","UV K","Blue Sen1","Blue Sen2","Blue Ref","Blue ATN1","Blue ATN2","Blue K","Green Sen1","Green Sen2","Green Ref","Green ATN1","Green ATN2","Green K","Red Sen1","Red Sen2","Red Ref","Red ATN1","Red ATN2","Red K","IR Sen1","IR Sen2","IR Ref","IR ATN1","IR ATN2","IR K","UV BC1","UV BC2","UV BCc","Blue BC1","Blue BC2","Blue BCc","Green BC1","Green BC2","Green BCc","Red BC1","Red BC2","Red BCc","IR BC1","IR BC2","IR BCc","Readable status"
"MA200-0416","32693","96","1","1.10","1.4","2023-05-31T13:24:30","120","2023/05/31","13:24:30","-15.795770943164825","35.002972999354824","0.1","14","30","66","70","-24716","-2309","-5645","15","150","149.96","112.93","37.03","33.17","0.0","-203.51","90428","31.50","DUALSPOT-UV-BLUE-GREEN-RED-IR","870873","754816","939836","0.000000","0.000000","0.000000","816510","934144","783298","0.000000","0.000000","0.000000","889298","913841","814662","0.000000","0.000000","0.000000","909064","970570","897312","0.000000","0.000000","0.000000","729049","844904","942902","0.000000","0.000000","0.000000","","","","","","","","","","","","","","","","Start up"
"MA200-0416","32694","96","1","1.10","1.4","2023-05-31T13:25:00","120","2023/05/31","13:25:00","-15.795779287815094","35.00298066646792","0.1","14","30","66","70","-24680","-5932","-404","15","150","149.40","113.04","36.36","33.07","26.5","11.28","90428","31.69","DUALSPOT-UV-BLUE-GREEN-RED-IR","838595","727625","906528","0.000000","0.000000","0.000000","792815","907444","761283","0.000000","0.000000","0.000000","887588","912452","813732","0.000000","0.000000","0.000000","873091","932489","862455","0.000000","0.000000","0.000000","736190","853482","952711","0.000000","0.000000","0.000000","","","","","","","","","","","","","","","","Start up"
"MA200-0416","32695","96","1","1.10","1.4","2023-05-31T13:25:30","120","2023/05/31","13:25:30","-15.7957643866539","35.0029801663477","0.0","14","30","66","70","-14595","1676","18304","15","150","149.40","112.71","36.69","32.94","26.6","11.23","90428","31.69","DUALSPOT-UV-BLUE-GREEN-RED-IR","835606","725386","903960","0.000000","0.000000","0.000000","795205","910448","763973","0.000000","0.000000","0.000000","890700","915798","816909","0.000000","0.000000","0.000000","871913","931358","861543","0.000000","0.000000","0.000000","735960","853245","952536","0.000000","0.000000","0.000000","","","","","","","","","","","","","","","","Start up"
"MA200-0416","32696","96","1","1.10","1.4","2023-05-31T13:26:00","120","2023/05/31","13:26:00","-15.795771777629852","35.00297633279115","0.1","14","30","66","70","-24220","-2812","232","15","150","149.51","113.17","36.34","32.86","26.7","11.22","90432","31.69","DUALSPOT-UV-BLUE-GREEN-RED-IR","838067","729834","910836","0.000000","0.000000","0.000000","792009","908949","763600","0.000000","0.000000","0.000000","887335","914186","816291","0.000000","0.000000","0.000000","875248","936385","866962","0.000000","0.000000","0.000000","734278","852221","951867","0.000000","0.000000","0.000000","","","","","","","","","","","","","","","","Start up"
"MA200-0416","32697","96","1","1.10","1.4","2023-05-31T13:26:30","120","2023/05/31","13:26:30","-15.795769333839417","35.00297916634008","0.0","14","30","66","70","-25016","-1352","1104","15","150","149.67","113.17","36.50","32.77","26.8","11.23","90424","31.63","DUALSPOT-UV-BLUE-GREEN-RED-IR","833327","727282","908559","0.000000","0.000000","0.000000","788682","906347","761860","0.000000","0.000000","0.000000","885695","913509","816034","0.000000","0.000000","0.000000","873625","935438","866375","0.000000","0.000000","0.000000","733765","851987","951817","0.000000","0.000000","0.000000","","","","","","","","","","","","","","","","Start up"
"MA200-0416","32698","96","1","1.10","1.4","2023-05-31T13:27:00","120","2023/05/31","13:27:00","-15.795773565769196","35.00296766636893","0.0","14","30","64","70","-24940","-1416","1016","15","150","150.36","113.09","37.27","32.70","27.0","11.26","90428","31.69","DUALSPOT-UV-BLUE-GREEN-RED-IR","825084","725023","908407","0.000000","0.000000","0.000000","788678","909910","766089","0.000000","0.000000","0.000000","882278","912638","816332","0.000000","0.000000","0.000000","870307","933961","865856","0.000000","0.000000","0.000000","732549","851786","952120","0.000000","0.000000","0.000000","","","","","","","","","","","","","","","",""
"MA200-0416","32699","96","1","1.10","1.4","2023-05-31T13:27:30","120","2023/05/31","13:27:30","-15.795776009559631","35.00297616631724","0.0","15","30","64","69","-24962","-1270","758","15","150","150.49","113.96","36.53","32.63","27.2","11.28","90424","31.63","DUALSPOT-UV-BLUE-GREEN-RED-IR","822092","722598","905478","0.054706","0.016651","0.000000","782047","902375","759891","0.040972","0.016099","0.000000","879789","910192","814248","0.035345","0.015944","0.000000","866346","929806","862130","0.028181","0.014352","0.000000","734908","854546","955213","0.011783","0.005583","0.000000","2819","2677","2819","2665","3267","2665","2574","3624","2574","2480","3942","2480","1444","2135","1444",""
"MA200-0416","32700","96","1","1.10","1.4","2023-05-31T13:28:00","120","2023/05/31","13:28:00","-15.795784533023834","35.002965999534354","0.0","15","30","64","70","-24964","-1252","1344","15","150","150.62","113.25","37.38","32.57","27.3","11.30","90424","31.63","DUALSPOT-UV-BLUE-GREEN-RED-IR","821706","723051","906578","0.209184","0.067844","0.000000","785975","907624","764627","0.148588","0.054048","0.000000","880379","911323","815523","0.118827","0.046170","0.000000","867788","931726","864128","0.091463","0.040411","0.000000","731988","851363","951794","0.045194","0.016976","0.000000","8012","8044","8012","7044","7526","7044","6120","6713","6120","5606","6994","5606","4121","4257","4121",""
"MA200-0416","32701","96","1","1.10","1.4","2023-05-31T13:28:30","120","2023/05/31","13:28:30","-15.795790672302246","35.00296483305283","0.0","15","30","64","70","-24964","-1344","996","15","150","149.83","112.97","36.86","32.49","27.4","11.30","90424","31.56","DUALSPOT-UV-BLUE-GREEN-RED-IR","819755","721575","904883","0.268032","0.088214","0.000000","784966","906628","763896","0.190806","0.071876","0.000000","879297","910355","814766","0.154024","0.062454","0.000000","865059","928876","861578","0.119674","0.055199","0.000000","731344","850628","951028","0.057083","0.021948","0.000000","3059","3245","3059","2770","3585","2770","2586","3667","2586","2505","4024","2505","1470","1884","1470",""
"MA200-0416","32702","96","1","1.10","1.4","2023-05-31T13:29:00","120","2023/05/31","13:29:00","-15.79578572511673","35.00298116635531","0.0","14","30","64","69","-24868","-1328","980","15","150","149.94","113.46","36.48","32.43","27.5","11.28","90428","31.50","DUALSPOT-UV-BLUE-GREEN-RED-IR","823833","725544","910158","0.347281","0.116174","0.000000","782855","904462","762182","0.233531","0.088220","0.000000","881036","912350","816658","0.186139","0.076884","0.000000","870257","934561","867000","0.143688","0.069618","0.000000","733831","853566","954351","0.065444","0.027146","0.000000","4102","4502","4102","2791","3321","2791","2349","3284","2349","2123","3965","2123","1029","1990","1029",""
"MA200-0416","32703","96","1","1.10","1.4","2023-05-31T13:29:30","120","2023/05/31","13:29:30","-15.795774579048157","35.002981999423355","0.0","14","30","64","69","-24948","-1324","780","15","150","149.70","113.49","36.21","32.35","27.6","11.28","90424","31.44","DUALSPOT-UV-BLUE-GREEN-RED-IR","820729","723321","907595","0.455841","0.149581","0.000000","780633","902171","760426","0.291240","0.107992","0.000000","880766","912267","816691","0.228202","0.091893","0.000000","869133","933507","866140","0.175261","0.082111","0.000000","733860","853671","954535","0.079721","0.031744","0.000000","5618","5418","5618","3769","4047","3769","3077","3441","3077","2791","3461","2791","1757","1773","1757",""
"MA200-0416","32704","96","1","1.10","1.4","2023-05-31T13:30:00","120","2023/05/31","13:30:00","-15.795785188674927","35.00297583290376","0.0","14","30","64","69","-24907","-1269","661","15","150","150.14","113.71","36.43","32.29","27.7","11.32","90428","31.38","DUALSPOT-UV-BLUE-GREEN-RED-IR","819699","722668","906956","0.505272","0.166128","0.000000","779844","901486","759922","0.324970","0.120836","0.000000","879124","910686","815412","0.256449","0.104582","0.000000","866741","931048","863934","0.197786","0.094103","0.000000","732603","852251","952970","0.089662","0.036315","0.000000","2553","2667","2553","2199","2613","2199","2062","2891","2062","1987","3302","1987","1221","1752","1221",""
"MA200-0416","32705","96","1","1.10","1.4","2023-05-31T13:30:30","120","2023/05/31","13:30:30","-15.795783877372742","35.00296333339065","0.0","14","30","64","69","-25026","-1442","957","15","150","149.85","112.91","36.95","32.23","27.9","11.34","90428","31.31","DUALSPOT-UV-BLUE-GREEN-RED-IR","816188","720610","904892","0.705275","0.226509","0.000000","782482","905148","763246","0.424015","0.151222","0.000000","878074","910086","815063","0.330645","0.127870","0.000000","865240","929810","862977","0.254219","0.113797","0.000000","732038","851800","952578","0.120260","0.045739","0.000000","10404","9599","10404","6503","6096","6503","5455","5233","5455","5014","5347","5014","3785","3562","3785",""
"MA200-0416","32706","96","1","1.10","1.4","2023-05-31T13:31:00","120","2023/05/31","13:31:00","-15.795781433582306","35.00296299974434","0.1","14","30","64","69","-25023","-1357","807","15","150","150.08","113.59","36.49","32.16","27.9","11.31","90428","31.31","DUALSPOT-UV-BLUE-GREEN-RED-IR","814364","719426","903680","0.762868","0.244205","0.000000","781293","904080","762534","0.464242","0.167148","0.000000","877518","909737","814871","0.359839","0.140297","0.000000","869184","934160","867137","0.276833","0.125592","0.000000","731775","851527","952321","0.131305","0.050926","0.000000","2978","2848","2978","2625","3235","2625","2133","2827","2133","1997","3243","1997","1358","1985","1358",""
"MA200-0416","32707","96","1","1.10","1.4","2023-05-31T13:31:30","120","2023/05/31","13:31:30","-15.795776009559631","35.0029689995572","0.0","14","30","64","69","-24956","-1228","967","15","150","150.05","113.13","36.92","32.12","28.0","11.31","90424","31.25","DUALSPOT-UV-BLUE-GREEN-RED-IR","817089","722792","908421","0.991890","0.311555","0.000000","778284","901173","760248","0.567543","0.196552","0.000000","875126","907676","813182","0.439018","0.164818","0.000000","867804","933004","866227","0.335598","0.144612","0.000000","730460","850215","950898","0.163763","0.059206","0.000000","11890","10714","11890","6769","5903","6769","5810","5513","5810","5211","5168","5211","4007","3132","4007",""
"MA200-0416","32708","96","1","1.10","1.4","2023-05-31T13:32:00","120","2023/05/31","13:32:00","-15.795778572559357","35.00296933273785","0.0","14","30","64","69","-24980","-1348","916","15","150","149.53","113.13","36.40","32.05","28.1","11.29","90420","31.19","DUALSPOT-UV-BLUE-GREEN-RED-IR","816306","722328","907927","1.031710","0.324155","0.000000","782682","906461","764784","0.599461","0.208669","0.000000","878264","911061","816326","0.464207","0.176108","0.000000","865553","930697","864156","0.356829","0.155031","0.000000","733714","854051","955242","0.171989","0.062699","0.000000","2067","2033","2067","2091","2467","2091","1848","2575","1848","1882","2871","1882","1015","1340","1015",""
"MA200-0416","32709","96","1","1.10","1.4","2023-05-31T13:32:30","120","2023/05/31","13:32:30","-15.79577910900116","35.00297816609964","0.0","14","30","64","69","-24960","-1368","1024","15","150","149.94","113.38","36.56","32.00","28.1","11.27","90424","31.19","DUALSPOT-UV-BLUE-GREEN-RED-IR","814893","721274","906769","1.076479","0.339965","0.000000","781406","905119","763774","0.631791","0.221031","0.000000","874270","907041","812796","0.490623","0.187272","0.000000","865250","930460","864024","0.376772","0.164681","0.000000","734269","854740","956030","0.181674","0.067072","0.000000","2319","2539","2319","2113","2506","2113","1934","2535","1934","1764","2648","1764","1193","1671","1193",""
"MA200-0416","32710","96","1","1.10","1.4","2023-05-31T13:33:00","120","2023/05/31","13:33:00","-15.795778274536133","35.002966499654576","0.0","14","30","64","69","-24997","-1372","975","15","150","149.83","113.13","36.70","31.96","28.2","11.27","90424","31.13","DUALSPOT-UV-BLUE-GREEN-RED-IR","811778","718722","903678","1.118468","0.354143","0.000000","780146","903856","762776","0.663310","0.234329","0.000000","875823","908828","814462","0.515651","0.196737","0.000000","861186","926183","860133","0.396209","0.173967","0.000000","731909","852045","953069","0.190036","0.070153","0.000000","2180","2268","2180","2065","2685","2065","1836","2141","1836","1723","2538","1723","1032","1172","1032",""
"MA200-0416","32711","96","1","1.10","1.4","2023-05-31T13:33:30","120","2023/05/31","13:33:30","-15.79578024148941","35.0029608332552","0.0","14","30","64","69","-25036","-1260","967","15","150","149.65","113.73","35.92","31.92","28.3","11.27","90424","31.13","DUALSPOT-UV-BLUE-GREEN-RED-IR","811960","719091","904309","1.166035","0.371320","0.000000","778797","902502","761724","0.696808","0.246238","0.000000","876468","909616","815310","0.543916","0.207591","0.000000","862613","927832","861738","0.418591","0.183552","0.000000","733043","853408","954634","0.200689","0.073526","0.000000","2456","2808","2456","2183","2457","2183","2063","2508","2063","1974","2676","1974","1308","1311","1308",""
"MA200-0416","32712","96","1","1.10","1.4","2023-05-31T13:34:00","120","2023/05/31","13:34:00","-15.795781910419464","35.00295633310452","0.0","14","30","64","69","-24912","-1264","1428","15","150","150.24","113.66","36.58","31.86","28.3","11.25","90416","31.06","DUALSPOT-UV-BLUE-GREEN-RED-IR","810429","718007","903100","1.215607","0.388685","0.000000","778580","902412","761785","0.728893","0.258361","0.000000","875625","908902","814761","0.569957","0.220281","0.000000","866994","932658","866276","0.438261","0.193023","0.000000","732238","852511","953634","0.209333","0.077700","0.000000","2561","2788","2561","2092","2456","2092","1902","2880","1902","1736","2597","1736","1062","1594","1062",""
"MA200-0416","32713","96","1","1.10","1.4","2023-05-31T13:34:30","120","2023/05/31","13:34:30","-15.795775473117828","35.002947999862954","0.0","14","30","64","69","-24968","-1248","1352","15","150","149.80","113.71","36.09","31.81","28.3","11.22","90420","31.00","DUALSPOT-UV-BLUE-GREEN-RED-IR","815309","722983","909722","1.338931","0.428167","0.000000","776737","900578","760382","0.782096","0.277780","0.000000","874171","907609","813678","0.605559","0.232279","0.000000","865167","930815","864681","0.462764","0.204723","0.000000","731222","851392","952465","0.220167","0.082714","0.000000","6370","6426","6370","3468","3989","3468","2599","2760","2599","2161","3252","2161","1330","1940","1330",""
"MA200-0416","32714","96","1","1.10","1.4","2023-05-31T13:35:00","120","2023/05/31","13:35:00","-15.795778155326843","35.00295616639778","0.0","14","30","64","69","-24940","-1304","884","15","150","150.23","113.49","36.74","31.75","28.4","11.21","90420","30.94","DUALSPOT-UV-BLUE-GREEN-RED-IR","812640","721091","907634","1.447588","0.461935","0.000000","779958","904609","763867","0.832748","0.294225","0.000000","877492","911218","817038","0.641942","0.246685","0.000000","863234","928843","862954","0.487345","0.215637","0.000000","730385","850479","951472","0.231832","0.086634","0.000000","5623","5398","5623","3308","3318","3308","2661","3255","2661","2173","2980","2173","1435","1490","1435",""
"MA200-0416","32715","96","1","1.10","1.4","2023-05-31T13:35:30","120","2023/05/31","13:35:30","-15.795776128768921","35.00295183318667","0.0","14","30","64","68","-24932","-1268","880","15","150","150.36","113.43","36.93","31.70","28.5","11.21","90424","30.94","DUALSPOT-UV-BLUE-GREEN-RED-IR","810460","719475","905861","1.518346","0.486022","0.000000","777821","902382","762123","0.872284","0.308101","0.000000","876834","910737","816689","0.671494","0.257355","0.000000","862386","928080","862329","0.510305","0.224619","0.000000","730115","850238","951216","0.243028","0.089582","0.000000","3663","3830","3663","2583","2785","2583","2162","2398","2162","2030","2439","2030","1378","1114","1378",""
"MA200-0416","32716","96","1","1.10","1.4","2023-05-31T13:36:00","120","2023/05/31","13:36:00","-15.795766949653625","35.002959666308016","0.0","14","30","64","68","-24796","-1296","988","15","150","150.49","113.37","37.13","31.66","28.6","11.24","90424","30.88","DUALSPOT-UV-BLUE-GREEN-RED-IR","808568","718268","904569","1.600112","0.510650","0.000000","776859","901543","761546","0.917947","0.323480","0.000000","875609","909662","815826","0.704789","0.269311","0.000000","867237","933417","867390","0.534260","0.234115","0.000000","729459","849534","950477","0.253604","0.092462","0.000000","4236","3896","4236","2986","3070","2986","2438","2673","2438","2120","2566","2120","1303","1083","1303",""
"MA200-0416","32717","96","1","1.10","1.4","2023-05-31T13:36:30","120","2023/05/31","13:36:30","-15.795753479003906","35.00297266617417","0.0","14","30","64","68","-25032","-1388","1040","15","150","149.73","113.59","36.14","31.61","28.8","11.28","90424","30.81","DUALSPOT-UV-BLUE-GREEN-RED-IR","806983","717203","903452","1.684191","0.538085","0.000000","776141","900920","761131","0.962400","0.338863","0.000000","874869","909063","815405","0.737845","0.281650","0.000000","865354","931520","865701","0.557225","0.244313","0.000000","733029","853769","955273","0.265069","0.097824","0.000000","4347","4458","4347","2901","3155","2901","2416","2834","2416","2028","2830","2028","1410","2072","1410",""
"MA200-0416","32718","96","1","1.10","1.4","2023-05-31T13:37:00","120","2023/05/31","13:37:00","-15.795769453048706","35.00296533317305","0.0","14","30","64","68","-24875","-1295","770","15","150","149.97","113.25","36.72","31.57","28.8","11.28","90428","30.81","DUALSPOT-UV-BLUE-GREEN-RED-IR","810702","720783","908124","1.741200","0.559108","0.000000","777525","902760","762791","0.999319","0.351846","0.000000","872881","907154","813783","0.767540","0.293135","0.000000","862354","928405","862889","0.580756","0.254410","0.000000","731650","852149","953500","0.275754","0.102840","0.000000","2956","3362","2956","2416","2621","2416","2176","2596","2176","2084","2758","2084","1317","1908","1317",""
"MA200-0416","32719","96","1","1.10","1.4","2023-05-31T13:37:30","120","2023/05/31","13:37:30","-15.795765459537506","35.00295133306645","0.1","14","30","64","68","-25052","-1512","1044","15","150","149.53","113.21","36.31","31.53","28.9","11.31","90428","30.75","DUALSPOT-UV-BLUE-GREEN-RED-IR","811165","721543","909299","1.806464","0.581144","0.000000","778293","903922","763884","1.039207","0.367540","0.000000","873355","907863","814523","0.799519","0.305397","0.000000","862269","928472","863010","0.603148","0.264298","0.000000","732082","852760","954197","0.285560","0.105866","0.000000","3386","3564","3386","2611","3203","2611","2345","2803","2345","1984","2731","1984","1209","1164","1209",""
"MA200-0416","32720","96","1","1.10","1.4","2023-05-31T13:38:00","120","2023/05/31","13:38:00","-15.79576712846756","35.00294733326882","0.0","14","30","64","68","-24908","-1276","924","15","150","149.63","113.21","36.42","31.49","29.0","11.31","90424","30.69","DUALSPOT-UV-BLUE-GREEN-RED-IR","808646","719603","907062","1.876486","0.604202","0.000000","776448","902024","762388","1.082950","0.381475","0.000000","872784","907417","814189","0.832075","0.317567","0.000000","861312","927556","862240","0.628205","0.273591","0.000000","731600","852240","953673","0.300043","0.111069","0.000000","3633","3718","3633","2864","2836","2864","2387","2774","2387","2220","2559","2220","1787","1995","1787",""
"MA200-0416","32721","96","1","1.10","1.4","2023-05-31T13:38:30","120","2023/05/31","13:38:30","-15.795766055583954","35.00295649957843","0.0","14","30","72","68","-24991","-1425","1137","15","150","149.82","113.49","36.33","31.44","29.1","11.32","90424","30.69","DUALSPOT-UV-BLUE-GREEN-RED-IR","699633","622817","785203","1.932323","0.622131","0.000000","775243","900856","761480","1.121938","0.394577","0.000000","871167","905932","812964","0.862729","0.329024","0.000000","866502","933293","867662","0.652325","0.284218","0.000000","731005","851623","953004","0.311681","0.114753","0.000000","2889","2898","2889","2546","2673","2546","2242","2617","2242","2132","2934","2132","1432","1416","1432",""
"MA200-0416","32722","96","1","1.10","1.4","2023-05-31T13:39:00","120","2023/05/31","13:39:00","-15.79577261209488","35.00296016666107","0.0","14","30","64","68","-24952","-1340","988","15","150","149.96","113.13","36.83","31.38","29.2","11.31","90420","30.63","DUALSPOT-UV-BLUE-GREEN-RED-IR","804931","716963","904125","2.012060","0.648853","0.000000","773749","899393","760399","1.167452","0.411600","0.000000","874779","909903","816627","0.898379","0.341796","0.000000","864768","931546","866157","0.679293","0.295531","0.000000","730066","850595","951921","0.323959","0.120234","0.000000","4139","4261","4139","2982","3426","2982","2616","2878","2616","2391","3081","2391","1516","2078","1516",""
"MA200-0416","32723","96","1","1.10","1.4","2023-05-31T13:39:30","120","2023/05/31","13:39:30","-15.795774400234222","35.00296499975957","0.0","14","30","64","68","-24904","-1288","924","15","150","149.99","113.05","36.93","31.34","29.3","11.30","90424","30.56","DUALSPOT-UV-BLUE-GREEN-RED-IR","810283","722063","910805","2.085979","0.673118","0.000000","777458","903922","764320","1.209086","0.426315","0.000000","873474","908704","815646","0.929504","0.353295","0.000000","862277","928975","863853","0.702053","0.305211","0.000000","729176","849627","950869","0.335094","0.123463","0.000000","3840","3858","3840","2730","2953","2730","2285","2584","2285","2019","2629","2019","1375","1221","1375",""
"MA200-0416","32724","96","1","1.10","1.4","2023-05-31T13:40:00","120","2023/05/31","13:40:00","-15.795771479606628","35.00297133275308","0.0","14","30","64","68","-24991","-1408","833","15","150","149.83","113.52","36.31","31.28","29.3","11.27","90420","30.50","DUALSPOT-UV-BLUE-GREEN-RED-IR","808243","720557","909092","2.148180","0.693962","0.000000","775258","901591","762438","1.247137","0.440090","0.000000","872533","907876","815019","0.958270","0.365656","0.000000","860243","926879","861988","0.722644","0.315105","0.000000","732707","853832","955615","0.346254","0.126397","0.000000","3218","3372","3218","2484","2812","2484","2103","2826","2103","1819","2734","1819","1373","1128","1373",""
"MA200-0416","32725","96","1","1.10","1.4","2023-05-31T13:40:30","120","2023/05/31","13:40:30","-15.795777440071106","35.00295816641301","0.1","14","30","64","68","-24915","-1342","619","15","150","149.99","113.55","36.44","31.23","29.3","11.24","90420","30.44","DUALSPOT-UV-BLUE-GREEN-RED-IR","804512","717620","905619","2.224318","0.717983","0.000000","778112","905178","765587","1.289367","0.454013","0.000000","874459","910084","817089","0.990855","0.377273","0.000000","863660","930719","865624","0.745126","0.323968","0.000000","730679","851491","953004","0.356092","0.130147","0.000000","3938","3871","3938","2757","2832","2757","2382","2646","2382","1986","2440","1986","1210","1437","1210",""
"MA200-0416","32726","96","1","1.10","1.4","2023-05-31T13:41:00","120","2023/05/31","13:41:00","-15.795778453350067","35.00296116643585","0.1","14","30","64","68","-24944","-1372","992","15","150","149.31","112.98","36.32","31.18","29.5","11.27","90416","30.38","DUALSPOT-UV-BLUE-GREEN-RED-IR","807799","721138","910424","2.342579","0.756168","0.000000","775740","902735","763654","1.342964","0.470924","0.000000","873119","908896","816136","1.028525","0.390481","0.000000","862002","929068","864171","0.772012","0.334125","0.000000","730103","850898","952395","0.369310","0.135017","0.000000","6148","6174","6148","3516","3451","3516","2768","3018","2768","2387","2805","2387","1634","1872","1634",""
"MA200-0416","32727","96","1","1.10","1.4","2023-05-31T13:41:30","120","2023/05/31","13:41:30","-15.795793235301971","35.002966332947835","0.0","14","30","64","68","-24900","-1336","863","15","150","149.73","113.85","35.88","31.13","29.6","11.30","90416","30.31","DUALSPOT-UV-BLUE-GREEN-RED-IR","806783","720618","909943","2.417348","0.780342","0.000000","775400","902586","763653","1.382511","0.485504","0.000000","872342","908294","815656","1.058662","0.400972","0.000000","860319","927363","862690","0.794266","0.343072","0.000000","729626","850416","951895","0.380908","0.138620","0.000000","3857","3957","3857","2575","3012","2575","2197","2427","2197","1961","2501","1961","1423","1402","1423",""
"MA200-0416","32728","96","1","1.10","1.4","2023-05-31T13:42:00","120","2023/05/31","13:42:00","-15.795790135860443","35.00296116643585","0.0","14","30","64","68","-24916","-1260","920","15","150","149.34","113.13","36.21","31.08","29.6","11.27","90416","30.31","DUALSPOT-UV-BLUE-GREEN-RED-IR","805111","719435","908694","2.489940","0.804351","0.000000","773801","900919","762355","1.421570","0.499975","0.000000","872650","908760","816183","1.088357","0.412321","0.000000","859793","926942","862370","0.816598","0.353401","0.000000","729527","850351","951869","0.390943","0.142582","0.000000","3768","3894","3768","2559","2962","2559","2179","2602","2179","1980","2861","1980","1239","1528","1239",""
"MA200-0416","32729","96","1","1.10","1.4","2023-05-31T13:42:30","120","2023/05/31","13:42:30","-15.79577773809433","35.0029538332019","0.0","14","30","64","67","-24940","-1220","951","15","150","149.76","113.49","36.28","31.04","29.7","11.27","90408","30.25","DUALSPOT-UV-BLUE-GREEN-RED-IR","801555","716546","905238","2.556149","0.827301","0.000000","775976","903693","764791","1.460790","0.512826","0.000000","869184","905281","813140","1.116365","0.423049","0.000000","861257","928608","863995","0.835897","0.361364","0.000000","726775","847172","948347","0.400819","0.144972","0.000000","3426","3715","3426","2561","2626","2561","2049","2455","2049","1706","2202","1706","1215","920","1215",""
"MA200-0416","32730","96","1","1.10","1.4","2023-05-31T13:43:00","120","2023/05/31","13:43:00","-15.795780777931213","35.002956999931484","0.0","14","30","64","67","-24976","-1372","1144","15","150","150.01","113.71","36.30","30.98","29.8","11.28","90412","30.19","DUALSPOT-UV-BLUE-GREEN-RED-IR","801330","716570","905391","2.604125","0.843338","0.000000","775507","903329","764572","1.491868","0.524753","0.000000","870023","906321","814166","1.144123","0.434321","0.000000","862392","929932","865294","0.855331","0.369751","0.000000","732148","853495","955457","0.409080","0.149349","0.000000","2478","2595","2478","2026","2435","2026","2026","2578","2026","1714","2318","1714","1014","1684","1014",""
"MA200-0416","32731","96","1","1.10","1.4","2023-05-31T13:43:30","120","2023/05/31","13:43:30","-15.795791983604431","35.00297916634008","0.0","14","30","64","67","-24916","-1400","1228","15","150","149.96","113.68","36.28","30.94","29.9","11.31","90404","30.13","DUALSPOT-UV-BLUE-GREEN-RED-IR","800317","715965","904836","2.666731","0.864248","0.000000","775242","903222","764565","1.528745","0.537664","0.000000","873165","909784","817337","1.170694","0.444037","0.000000","861269","928804","864336","0.876635","0.379019","0.000000","731645","852976","954910","0.420230","0.153084","0.000000","3234","3385","3234","2404","2638","2404","1940","2223","1940","1880","2563","1880","1370","1438","1370",""
"MA200-0416","32732","96","1","1.10","1.4","2023-05-31T13:44:00","120","2023/05/31","13:44:00","-15.79577261209488","35.00296266656369","0.0","14","30","72","67","-24844","-1340","680","15","150","150.21","114.13","36.09","30.90","30.0","11.30","90408","30.13","DUALSPOT-UV-BLUE-GREEN-RED-IR","797774","714261","903034","2.772456","0.898136","0.000000","773839","901917","763580","1.577287","0.552780","0.000000","868036","904609","812793","1.203727","0.454801","0.000000","745744","804368","748596","0.901210","0.388383","0.000000","731380","852712","954632","0.431854","0.157007","0.000000","5441","5515","5441","3153","3105","3153","2403","2476","2403","2160","2603","2160","1422","1518","1422",""
"MA200-0416","32733","96","1","1.10","1.4","2023-05-31T13:44:30","120","2023/05/31","13:44:30","-15.795773148536682","35.00295999995433","0.0","14","30","64","67","-25016","-1304","804","15","150","149.90","113.33","36.57","30.86","30.1","11.34","90408","30.13","DUALSPOT-UV-BLUE-GREEN-RED-IR","797275","714118","903021","2.848318","0.922819","0.000000","772881","901004","762929","1.617956","0.567913","0.000000","867815","904538","812834","1.235181","0.466406","0.000000","859710","927388","863161","0.923518","0.398349","0.000000","731007","852367","954279","0.440572","0.160479","0.000000","3931","3964","3931","2660","3067","2660","2304","2634","2304","1974","2734","1974","1074","1326","1074",""
"MA200-0416","32734","96","1","1.10","1.4","2023-05-31T13:45:00","120","2023/05/31","13:45:00","-15.795770764350891","35.0029656663537","0.0","14","30","64","67","-24988","-1356","1020","15","150","149.96","113.49","36.48","30.82","30.2","11.34","90404","30.06","DUALSPOT-UV-BLUE-GREEN-RED-IR","803671","720017","910620","2.889624","0.938104","0.000000","772828","901111","763089","1.648175","0.578212","0.000000","871894","908934","816841","1.259267","0.476264","0.000000","858366","926078","862019","0.942011","0.405955","0.000000","730802","852175","954096","0.450872","0.164216","0.000000","2137","2461","2137","1974","2093","1974","1762","2243","1762","1634","2091","1634","1267","1430","1267",""
"MA200-0416","32735","96","1","1.10","1.4","2023-05-31T13:45:30","120","2023/05/31","13:45:30","-15.795768797397614","35.00297566619702","0.0","14","30","64","67","-24864","-1240","728","15","150","150.28","113.29","36.99","30.79","30.4","11.41","90404","30.06","DUALSPOT-UV-BLUE-GREEN-RED-IR","800345","717287","907259","2.931450","0.951286","0.000000","770510","898593","761031","1.677399","0.588195","0.000000","869280","906378","814602","1.281404","0.483853","0.000000","854879","922400","858657","0.959155","0.412809","0.000000","728717","849760","951418","0.458372","0.166632","0.000000","2168","2093","2168","1912","2000","1912","1622","1703","1622","1518","1859","1518","924","912","924",""
"MA200-0416","32736","96","1","1.10","1.4","2023-05-31T13:46:00","120","2023/05/31","13:46:00","-15.795766651630402","35.00296966615133","0.0","15","30","64","67","-25020","-1328","768","15","150","150.36","113.62","36.74","30.74","30.5","11.40","90400","30.06","DUALSPOT-UV-BLUE-GREEN-RED-IR","801539","718566","909062","2.982782","0.969862","0.000000","771427","899861","762202","1.711779","0.600570","0.000000","870730","908019","816190","1.309061","0.494939","0.000000","863077","931364","867056","0.979009","0.421142","0.000000","729870","851206","953064","0.469366","0.169995","0.000000","2653","2969","2653","2243","2496","2243","2020","2505","2020","1753","2275","1753","1351","1278","1351",""
"MA200-0416","32737","96","1","1.10","1.4","2023-05-31T13:46:30","120","2023/05/31","13:46:30","-15.79575526714325","35.00296499975957","0.1","15","30","64","67","-25016","-1392","1108","15","150","149.46","113.67","35.79","30.72","30.5","11.39","90400","30.00","DUALSPOT-UV-BLUE-GREEN-RED-IR","799153","716744","906939","3.045667","0.992061","0.049978","774253","903356","765277","1.747566","0.614761","0.000000","870012","907412","815724","1.336216","0.506496","0.000000","862538","930867","866672","0.999297","0.430345","0.000000","729538","850887","952729","0.479703","0.174226","0.000000","3249","3642","3832","2333","2939","2333","1983","2680","1983","1790","2579","1790","1270","1651","1270",""
"MA200-0416","32738","96","1","1.10","1.4","2023-05-31T13:47:00","120","2023/05/31","13:47:00","-15.7957883477211","35.00296449987218","0.0","15","30","64","67","-24964","-1256","1208","15","150","149.96","113.64","36.32","30.72","30.5","11.41","90404","29.94","DUALSPOT-UV-BLUE-GREEN-RED-IR","797685","715702","905835","3.103190","1.011734","0.030378","773199","902324","764537","1.784092","0.630033","0.000000","868551","906020","814577","1.364028","0.517428","0.000000","859589","927771","863909","1.019937","0.440650","0.000000","728687","849887","951673","0.490674","0.178203","0.000000","2973","3181","3282","2382","3117","2382","2031","2499","2031","1822","2846","1822","1348","1529","1348",""
"MA200-0416","32739","96","1","1.10","1.4","2023-05-31T13:47:30","120","2023/05/31","13:47:30","-15.795789659023285","35.002966166241094","0.0","15","30","64","67","-24968","-1236","996","15","150","150.09","113.84","36.25","30.64","30.6","11.37","90408","29.88","DUALSPOT-UV-BLUE-GREEN-RED-IR","795608","714108","904001","3.158726","1.031528","0.047646","771755","900817","763345","1.817953","0.641124","0.000000","867618","905215","813923","1.389116","0.526905","0.000000","857664","925834","862127","1.038269","0.446653","0.000000","732072","853886","956165","0.499004","0.181339","0.000000","2865","3207","3372","2205","2268","2205","1829","2170","1829","1615","1661","1615","1022","1208","1022",""
"MA200-0416","32740","96","1","1.10","1.4","2023-05-31T13:48:00","120","2023/05/31","13:48:00","-15.795792520046234","35.002963666571304","0.1","15","30","64","67","-24988","-1328","1000","15","150","149.90","113.56","36.33","30.61","30.7","11.40","90412","29.88","DUALSPOT-UV-BLUE-GREEN-RED-IR","801216","719382","910851","3.218537","1.051374","0.016260","770439","899548","762301","1.852405","0.651205","0.000000","870980","908874","817282","1.416331","0.536680","0.000000","856339","924488","860986","1.057874","0.455033","0.000000","731548","853351","955605","0.508638","0.184864","0.000000","3093","3208","3264","2248","2056","2248","1989","2233","1989","1732","2314","1732","1185","1355","1185",""
"MA200-0416","32741","96","1","1.10","1.4","2023-05-31T13:48:30","120","2023/05/31","13:48:30","-15.795778155326843","35.00296233315021","0.1","15","30","64","67","-24996","-1380","824","15","150","150.08","113.29","36.78","30.56","30.8","11.42","90408","29.81","DUALSPOT-UV-BLUE-GREEN-RED-IR","799612","718136","909394","3.261802","1.066257","0.024924","773833","903664","765909","1.884520","0.663780","0.000000","870375","908379","816947","1.440614","0.545609","0.000000","856596","924881","861379","1.077663","0.463300","0.000000","726983","848052","949706","0.518014","0.189057","0.000000","2243","2376","2441","2101","2534","2101","1779","2015","1779","1752","2254","1752","1156","1592","1156",""
"MA200-0416","32742","96","1","1.10","1.4","2023-05-31T13:49:00","120","2023/05/31","13:49:00","-15.79577374458313","35.0029558329843","0.1","15","30","64","67","-25040","-1328","944","15","150","150.13","113.51","36.62","30.54","31.0","11.50","90408","29.81","DUALSPOT-UV-BLUE-GREEN-RED-IR","791953","711476","901053","3.307634","1.081613","0.016412","768974","898147","761307","1.915031","0.674093","0.000000","870260","908394","817019","1.466667","0.555551","0.000000","856223","924556","861153","1.095550","0.471401","0.000000","731426","853309","955597","0.527050","0.190885","0.000000","2371","2463","2507","1992","2087","1992","1905","2254","1905","1580","2219","1580","1111","697","1111",""
"MA200-0416","32743","96","1","1.10","1.4","2023-05-31T13:49:30","120","2023/05/31","13:49:30","-15.795780599117279","35.0029689995572","0.0","15","30","64","67","-24916","-1416","880","15","150","150.01","113.84","36.17","30.52","31.2","11.57","90400","29.81","DUALSPOT-UV-BLUE-GREEN-RED-IR","800341","719219","911070","3.349609","1.095943","0.029732","769808","899352","762403","1.946950","0.684749","0.000000","870574","908872","817555","1.491487","0.563812","0.000000","856372","924852","861507","1.115035","0.479066","0.000000","727222","848465","950208","0.536361","0.195478","0.000000","2165","2326","2405","2078","2184","2078","1810","1896","1810","1717","2126","1717","1142","1773","1142",""
"MA200-0416","32744","96","1","1.10","1.4","2023-05-31T13:50:00","120","2023/05/31","13:50:00","-15.79579484462738","35.002977333031595","0.0","15","30","64","67","-25120","-1208","1368","15","150","150.49","113.45","37.05","30.51","31.3","11.62","90404","29.88","DUALSPOT-UV-BLUE-GREEN-RED-IR","793491","713316","903695","3.398398","1.113081","0.029758","770348","900167","763244","1.981747","0.698381","0.000000","870874","909377","818059","1.521283","0.575041","0.000000","856922","925549","862249","1.137282","0.487929","0.000000","727640","848972","950847","0.548728","0.199336","0.000000","2526","2717","2810","2273","2727","2273","2180","2516","2180","1967","2400","1967","1522","1454","1522",""
"MA200-0416","32745","96","1","1.10","1.4","2023-05-31T13:50:30","120","2023/05/31","13:50:30","-15.795791566371918","35.0029891661834","0.1","15","30","64","66","-24936","-1336","1344","15","150","150.42","113.67","36.75","30.49","31.4","11.64","90404","29.88","DUALSPOT-UV-BLUE-GREEN-RED-IR","793176","713240","903831","3.453452","1.134800","0.071494","770078","900086","763263","2.022439","0.713783","0.000000","866190","904657","813935","1.554137","0.587314","0.000000","856813","925557","862346","1.161346","0.498372","0.000000","727971","849470","951462","0.563266","0.206093","0.000000","2844","3470","3777","2653","3106","2653","2399","2772","2399","2123","2850","2123","1786","2568","1786",""
"MA200-0416","32746","96","1","1.10","1.4","2023-05-31T13:51:00","120","2023/05/31","13:51:00","-15.795771777629852","35.002977499505505","0.0","15","30","64","66","-24944","-1272","976","15","150","149.96","113.52","36.44","30.48","31.4","11.65","90400","29.88","DUALSPOT-UV-BLUE-GREEN-RED-IR","789988","710658","900706","3.506235","1.153532","0.038813","767740","897548","761210","2.059853","0.727050","0.000000","864888","903455","812945","1.584804","0.599330","0.000000","855183","923958","860927","1.187131","0.506949","0.000000","726831","848186","950093","0.575944","0.210700","0.000000","2730","3019","3161","2443","2699","2443","2242","2737","2242","2278","2361","2278","1560","1765","1560",""
"MA200-0416","32747","96","1","1.10","1.4","2023-05-31T13:51:30","120","2023/05/31","13:51:30","-15.795770466327667","35.00296499975957","0.0","16","30","64","66","-24896","-1296","908","15","150","150.08","113.29","36.78","30.47","31.5","11.66","90400","29.88","DUALSPOT-UV-BLUE-GREEN-RED-IR","791780","712510","903214","3.556843","1.170171","0.005238","768650","898879","762433","2.099794","0.741106","0.000000","865528","904352","813844","1.617348","0.610804","0.000000","856978","926053","862955","1.211483","0.517284","0.000000","727894","849501","951606","0.590299","0.214597","0.000000","2623","2657","2673","2613","2832","2613","2384","2589","2384","2156","2819","2156","1769","1480","1769",""
"MA200-0416","32748","96","1","1.10","1.4","2023-05-31T13:52:00","120","2023/05/31","13:52:00","-15.795781791210175","35.0029704994522","0.0","16","30","64","66","-24933","-1287","666","15","150","149.73","113.96","35.77","30.46","31.5","11.65","90404","29.88","DUALSPOT-UV-BLUE-GREEN-RED-IR","798257","718586","911076","3.612675","1.189254","0.032414","768506","898926","762590","2.139973","0.754303","0.000000","864605","903578","813221","1.650941","0.622046","0.000000","855067","924173","861263","1.238470","0.526642","0.000000","727063","848622","950684","0.605526","0.220848","0.000000","2877","3133","3259","2613","2735","2613","2447","2609","2447","2375","2624","2375","1866","2441","1866",""
"MA200-0416","32749","96","1","1.10","1.4","2023-05-31T13:52:30","120","2023/05/31","13:52:30","-15.795791983604431","35.002977499505505","0.0","16","30","64","66","-24976","-1300","971","15","150","150.16","113.37","36.79","30.44","31.5","11.65","90404","29.88","DUALSPOT-UV-BLUE-GREEN-RED-IR","794918","715979","908004","3.689666","1.212762","-0.026237","765928","896257","760463","2.193528","0.770341","0.000000","867626","906996","816407","1.693600","0.635273","0.000000","858419","927986","864926","1.271013","0.535976","0.000000","725540","847010","948902","0.627349","0.224280","0.000000","3988","3752","3636","3502","3231","3502","3124","2984","3124","2880","2545","2880","2689","1303","2689",""
"MA200-0416","32750","96","1","1.10","1.4","2023-05-31T13:53:00","120","2023/05/31","13:53:00","-15.795800745487213","35.00298233283684","0.0","16","30","64","66","-25072","-1424","1008","15","150","149.43","113.43","36.00","30.41","31.5","11.64","90404","29.81","DUALSPOT-UV-BLUE-GREEN-RED-IR","795089","716537","908986","3.775925","1.241914","0.023357","766350","897066","761277","2.247285","0.789672","0.000000","867344","906956","816532","1.735711","0.650877","0.000000","859119","928908","865896","1.304047","0.549405","0.000000","730317","852708","955350","0.647607","0.232293","0.000000","4466","4756","4898","3513","3980","3513","3082","3598","3082","2921","3742","2921","2494","3109","2494",""
"MA200-0416","32751","96","1","1.10","1.4","2023-05-31T13:53:30","120","2023/05/31","13:53:30","-15.795776963233948","35.002983999671414","0.0","16","30","64","66","-24908","-1304","916","15","150","150.14","113.75","36.39","30.39","31.6","11.64","90404","29.75","DUALSPOT-UV-BLUE-GREEN-RED-IR","793581","715554","908006","3.856859","1.268255","0.006509","765223","896098","760624","2.303671","0.808179","0.000000","866762","906646","816354","1.782178","0.665164","0.000000","857784","927715","864889","1.341528","0.562095","0.000000","729833","852249","954895","0.669252","0.238317","0.000000","4179","4251","4286","3674","3769","3674","3391","3259","3391","3305","3498","3305","2658","2312","2658",""
"MA200-0416","32752","96","1","1.10","1.4","2023-05-31T13:54:00","120","2023/05/31","13:54:00","-15.795771777629852","35.00296799954958","0.0","16","30","64","66","-24976","-1356","788","15","150","150.03","114.24","35.79","30.38","31.5","11.62","90404","29.75","DUALSPOT-UV-BLUE-GREEN-RED-IR","792555","715081","907636","3.943675","1.296291","0.011152","768601","900436","764423","2.365148","0.827413","0.000000","866031","906178","816080","1.833683","0.682599","0.000000","857759","927936","865193","1.380537","0.575101","0.000000","729670","852244","954949","0.693174","0.245182","0.000000","4463","4601","4668","3989","3984","3989","3743","4044","3743","3425","3646","3425","2925","2679","2925",""
"MA200-0416","32753","96","1","1.10","1.4","2023-05-31T13:54:30","120","2023/05/31","13:54:30","-15.795774281024933","35.00298066646792","0.0","16","30","64","66","-25092","-1328","1084","15","150","149.90","113.84","36.05","30.36","31.6","11.62","90404","29.75","DUALSPOT-UV-BLUE-GREEN-RED-IR","791208","714226","906790","4.020540","1.322528","0.025855","768152","900235","764401","2.417433","0.844215","0.000000","865347","905734","815775","1.877206","0.696510","0.000000","856180","926388","863858","1.412645","0.583851","0.000000","729080","851641","954328","0.713106","0.252101","0.000000","3965","4274","4425","3404","3454","3404","3174","3203","3174","2829","2434","2829","2445","2680","2445",""
"MA200-0416","32754","96","1","1.10","1.4","2023-05-31T13:55:00","120","2023/05/31","13:55:00","-15.79578024148941","35.00297849974595","0.0","16","30","64","66","-24980","-1432","1016","15","150","150.49","113.74","36.76","30.34","31.6","11.60","90408","29.75","DUALSPOT-UV-BLUE-GREEN-RED-IR","790165","713627","906245","4.095934","1.346296","-0.009249","767409","899653","764039","2.473914","0.862873","0.000000","864856","905511","815703","1.921022","0.710988","0.000000","855468","925863","863460","1.447892","0.596183","0.000000","728946","851590","954343","0.734748","0.257352","0.000000","3893","3798","3751","3681","3763","3681","3198","3270","3198","3109","3366","3109","2658","1995","2658",""
"MA200-0416","32755","96","1","1.10","1.4","2023-05-31T13:55:30","120","2023/05/31","13:55:30","-15.7957843542099","35.002968332963064","0.0","16","30","64","66","-24916","-1350","854","15","150","149.50","113.63","35.87","30.33","31.6","11.59","90408","29.69","DUALSPOT-UV-BLUE-GREEN-RED-IR","788891","712815","905435","4.168399","1.371440","0.030918","766289","898664","763317","2.524936","0.880670","0.000000","864274","905132","815459","1.964193","0.725984","0.000000","855379","925956","863660","1.480756","0.608027","0.000000","728471","851179","953940","0.753444","0.263951","0.000000","3745","4117","4299","3328","3678","3328","3154","3471","3154","2901","3312","2901","2298","2569","2298",""
"MA200-0416","32756","96","1","1.10","1.4","2023-05-31T13:56:00","120","2023/05/31","13:56:00","-15.795783340930939","35.00297333300114","0.0","17","30","64","66","-24908","-1348","1136","15","150","149.92","113.81","36.11","30.31","31.5","11.55","90408","29.69","DUALSPOT-UV-BLUE-GREEN-RED-IR","785414","709973","901983","4.231485","1.394489","0.043564","763691","895872","761067","2.568471","0.895834","0.000000","861620","902536","813255","1.999765","0.737941","0.000000","850949","921337","859456","1.510705","0.619041","0.000000","726327","848758","951263","0.771524","0.269309","0.000000","3255","3749","3991","2835","3113","2835","2594","2749","2594","2640","3060","2640","2219","2072","2219",""
"MA200-0416","32757","96","1","1.10","1.4","2023-05-31T13:56:30","120","2023/05/31","13:56:30","-15.795781433582306","35.00297833303921","0.1","17","30","64","66","-24916","-1258","811","15","150","149.98","113.26","36.72","30.28","31.5","11.53","90404","29.63","DUALSPOT-UV-BLUE-GREEN-RED-IR","785683","710488","902860","4.291832","1.414089","0.000582","764081","896593","761793","2.613139","0.911289","0.000000","861818","902979","813719","2.035439","0.750792","0.000000","858018","929173","866813","1.538026","0.629520","0.000000","726686","849292","951913","0.787216","0.273653","0.000000","3129","3134","3137","2923","3119","2923","2614","2905","2614","2420","2862","2420","1935","1652","1935",""
"MA200-0416","32758","96","1","1.10","1.4","2023-05-31T13:57:00","120","2023/05/31","13:57:00","-15.795775771141052","35.00295433308929","0.0","17","30","64","66","-24984","-1392","804","15","150","149.86","113.62","36.24","30.25","31.5","11.51","0","0.00","DUALSPOT-UV-BLUE-GREEN-RED-IR","790974","715617","909576","4.362356","1.436946","0.005426","767029","900337","765106","2.659714","0.926048","0.000000","860837","902161","813081","2.072316","0.761730","0.000000","856664","927865","865708","1.566776","0.637447","0.000000","726058","848683","951297","0.804550","0.279450","0.000000","3645","3704","3734","3038","3019","3038","2694","2505","2694","2538","2194","2538","2131","2234","2131",""
"MA200-0416","32759","96","1","1.10","1.4","2023-05-31T13:57:30","120","2023/05/31","13:57:30","-15.79576861858368","35.002936999779195","0.0","17","30","64","66","-24976","-1376","1220","15","150","149.72","113.59","36.13","30.23","31.5","11.49","0","0.00","DUALSPOT-UV-BLUE-GREEN-RED-IR","789008","714101","907863","4.419817","1.456390","0.019666","765686","898984","764048","2.697628","0.938266","0.000000","864255","905942","816572","2.103614","0.773036","0.000000","854906","926079","864098","1.589064","0.646579","0.000000","725125","847635","950124","0.816747","0.281735","0.000000","2971","3160","3254","2474","2506","2474","2287","2598","2287","1968","2535","1968","1500","883","1500",""
"MA200-0416","32760","96","1","1.10","1.4","2023-05-31T13:58:00","120","2023/05/31","13:58:00","-15.79576462507248","35.00293616624549","0.0","17","30","64","66","-24928","-1228","959","15","150","150.36","114.48","35.88","30.20","31.6","11.49","90400","29.50","DUALSPOT-UV-BLUE-GREEN-RED-IR","788345","713748","907535","4.471139","1.473484","0.019129","765228","898635","763834","2.732873","0.949865","0.000000","863711","905554","816334","2.133393","0.783437","0.000000","853816","925058","863201","1.611694","0.653344","0.000000","728886","852123","955204","0.829134","0.285878","0.000000","2633","2798","2879","2282","2396","2282","2159","2406","2159","1983","1891","1983","1511","1612","1511",""
"MA200-0416","32761","96","1","1.10","1.4","2023-05-31T13:58:30","120","2023/05/31","13:58:30","-15.795763790607452","35.00295783299953","0.1","17","30","72","66","-24903","-1223","930","15","150","149.70","113.80","35.89","30.17","31.6","11.44","90400","29.44","DUALSPOT-UV-BLUE-GREEN-RED-IR","786259","712184","905737","4.537904","1.497423","0.037368","763444","896807","762399","2.775442","0.965755","0.000000","862483","904467","815421","2.167236","0.795620","0.000000","852573","923852","862178","1.637354","0.664150","0.000000","631426","738198","827555","0.844446","0.292119","0.000000","3445","3917","4149","2773","3281","2773","2468","2817","2468","2262","3020","2262","1879","2428","1879",""
"MA200-0416","32762","96","1","1.10","1.4","2023-05-31T13:59:00","120","2023/05/31","13:59:00","-15.795770943164825","35.00297799962573","0.1","17","30","64","66","-25080","-1408","836","15","150","149.87","113.38","36.49","30.13","31.6","11.42","90400","29.44","DUALSPOT-UV-BLUE-GREEN-RED-IR","784898","711255","904812","4.604138","1.520694","0.026148","762509","895977","761853","2.821964","0.982015","0.000000","861751","903884","815037","2.204436","0.808394","0.000000","857145","928986","867059","1.666157","0.674456","0.000000","728081","851350","954439","0.860899","0.297356","0.000000","3431","3745","3900","3041","3303","3041","2724","2906","2724","2548","2833","2548","2027","2005","2027",""
"MA200-0416","32763","96","1","1.10","1.4","2023-05-31T13:59:30","120","2023/05/31","13:59:30","-15.795785546302795","35.00298466626555","0.1","17","30","64","65","-24900","-1384","863","15","150","150.36","113.88","36.48","30.10","31.6","11.41","90400","29.38","DUALSPOT-UV-BLUE-GREEN-RED-IR","787270","713805","908285","4.684783","1.546720","0.002388","760175","893591","759933","2.880460","1.001411","0.000000","859337","901646","813157","2.251744","0.824642","0.000000","853756","925521","863961","1.704026","0.688022","0.000000","725829","848843","951732","0.882291","0.304829","0.000000","4159","4190","4206","3807","3941","3807","3448","3698","3448","3336","3731","3336","2624","2861","2624",""
"MA200-0416","32764","96","1","1.10","1.4","2023-05-31T14:00:00","120","2023/05/31","14:00:00","-15.795787513256073","35.00296516646631","0.0","17","30","64","66","-25016","-1256","980","15","150","150.09","113.84","36.25","30.07","31.6","11.38","90396","29.38","DUALSPOT-UV-BLUE-GREEN-RED-IR","787491","714253","909023","4.742144","1.565860","0.014067","764889","899376","764967","2.923196","1.015073","0.000000","859718","902223","813764","2.285885","0.836408","0.000000","855795","927876","866206","1.730833","0.697350","0.000000","727103","850397","953478","0.897144","0.308743","0.000000","2959","3101","3171","2782","2793","2782","2489","2694","2489","2362","2581","2362","1822","1508","1822",""
"MA200-0416","32765","96","1","1.10","1.4","2023-05-31T14:00:30","120","2023/05/31","14:00:30","-15.79578584432602","35.00298299943097","0.1","17","30","64","65","-24856","-1276","724","15","150","150.16","113.72","36.44","30.04","31.6","11.36","0","0.00","DUALSPOT-UV-BLUE-GREEN-RED-IR","785979","713131","907813","4.801034","1.587577","0.038341","764010","898627","764433","2.965240","1.029830","0.000000","863270","906174","817435","2.320915","0.848841","0.000000","853752","925829","864396","1.757140","0.706708","0.000000","725964","849174","952167","0.913295","0.314130","0.000000","3041","3500","3727","2740","3002","2740","2557","2832","2557","2320","2576","2320","1983","2065","1983",""
"MA200-0416","32766","96","1","1.10","1.4","2023-05-31T14:01:00","120","2023/05/31","14:01:00","-15.795790314674377","35.00295783299953","0.0","17","30","64","65","-25204","-1464","1156","15","150","150.42","113.67","36.75","30.01","31.7","11.37","0","0.00","DUALSPOT-UV-BLUE-GREEN-RED-IR","784700","712313","906957","4.871713","1.611188","0.009692","762904","897579","763666","3.012851","1.046360","0.033690","862697","905798","817209","2.359211","0.861699","0.000000","852605","924770","863495","1.787317","0.717341","0.000000","725364","848584","951513","0.929351","0.318047","0.000000","3652","3773","3833","3105","3334","3455","2797","2904","2797","2663","2902","2663","1973","1488","1973",""
"MA200-0416","32767","96","1","1.10","1.4","2023-05-31T14:01:30","120","2023/05/31","14:01:30","-15.795782387256622","35.00295316637494","0.2","17","30","64","65","-24984","-1392","951","15","150","150.23","114.08","36.14","29.98","31.8","11.39","90392","29.25","DUALSPOT-UV-BLUE-GREEN-RED-IR","782105","710374","904701","4.948510","1.636100","0.006951","760277","894817","761467","3.062262","1.062965","0.027774","860963","904217","815887","2.398699","0.875997","0.000000","850396","922554","861520","1.815813","0.728076","0.000000","724399","847526","950415","0.944646","0.323581","0.000000","3953","4048","4094","3210","3405","3509","2873","3284","2873","2506","2979","2506","1872","2138","1872",""
"MA200-0416","32768","96","1","1.10","1.4","2023-05-31T14:02:00","120","2023/05/31","14:02:00","-15.795783340930939","35.002954832976684","0.2","17","30","64","65","-25072","-1400","1264","15","150","150.01","114.17","35.84","29.94","31.8","11.35","90392","29.25","DUALSPOT-UV-BLUE-GREEN-RED-IR","782806","711295","906115","5.018945","1.661289","0.034328","761637","896651","763102","3.106945","1.078008","0.032180","861680","905201","816850","2.433407","0.887949","0.000000","850820","923177","862172","1.843519","0.737958","0.000000","724995","848304","951306","0.961103","0.328274","0.000000","3623","4128","4377","2901","3111","3223","2523","2768","2523","2434","2766","2434","2013","1829","2013",""
"MA200-0416","32769","96","1","1.10","1.4","2023-05-31T14:02:30","120","2023/05/31","14:02:30","-15.795776009559631","35.002959499834105","0.1","17","30","64","65","-24904","-1276","1280","15","150","149.33","113.88","35.44","29.92","31.8","11.35","90392","29.25","DUALSPOT-UV-BLUE-GREEN-RED-IR","780761","709754","904387","5.090582","1.684618","0.012732","759961","894933","761771","3.151910","1.093357","0.040940","856176","899641","811931","2.468478","0.899297","0.000000","850373","922843","861943","1.870218","0.747483","0.000000","724406","847706","950728","0.977745","0.333140","0.000000","3694","3866","3950","2927","3210","3360","2556","2658","2556","2352","2696","2352","2041","1917","2041",""
"MA200-0416","32770","96","1","1.10","1.4","2023-05-31T14:03:00","120","2023/05/31","14:03:00","-15.795773148536682","35.00295199966058","0.0","17","30","64","65","-24944","-1304","963","15","150","149.99","113.96","36.02","29.89","31.9","11.35","90392","29.19","DUALSPOT-UV-BLUE-GREEN-RED-IR","784485","713459","909296","5.157222","1.708557","0.032876","758717","893731","760849","3.194840","1.107889","0.030681","858708","902453","814582","2.503216","0.912159","0.000000","853452","926337","865301","1.895970","0.756263","0.000000","727056","850898","954351","0.991827","0.337739","0.000000","3434","3903","4135","2792","2990","3096","2530","2964","2530","2267","2445","2267","1726","1783","1726",""
"MA200-0416","32771","96","1","1.10","1.4","2023-05-31T14:03:30","120","2023/05/31","14:03:30","-15.795770645141602","35.002956999931484","0.0","17","30","64","65","-25016","-1368","880","15","150","149.57","113.76","35.80","29.87","31.9","11.33","90392","29.19","DUALSPOT-UV-BLUE-GREEN-RED-IR","779756","709427","904358","5.217313","1.729267","0.023881","759740","895158","762212","3.234917","1.122301","0.055421","860031","904078","816130","2.537572","0.923544","0.000000","855061","928254","867164","1.921837","0.766616","0.000000","728572","852779","956448","1.006221","0.342416","0.000000","3102","3397","3544","2611","2984","3182","2507","2640","2507","2281","2901","2281","1767","1824","1767",""
"MA200-0416","32772","96","1","1.10","1.4","2023-05-31T14:04:00","120","2023/05/31","14:04:00","-15.795768976211548","35.00295616639778","0.2","17","30","64","65","-24792","-1188","676","15","150","149.55","113.85","35.70","29.85","31.9","11.32","90392","29.19","DUALSPOT-UV-BLUE-GREEN-RED-IR","784766","714339","910846","5.286750","1.753324","0.025633","758889","894472","761723","3.285336","1.138114","0.000063","859311","903560","815778","2.576524","0.936944","0.000000","854140","927415","866511","1.953321","0.777518","0.000000","728107","852324","956064","1.024379","0.348448","0.000000","3582","3957","4143","3283","3283","3283","2840","3115","2840","2774","3063","2774","2228","2360","2228",""
"MA200-0416","32773","96","1","1.10","1.4","2023-05-31T14:04:30","120","2023/05/31","14:04:30","-15.79576563835144","35.00296316645108","0.1","17","30","64","65","-24952","-1240","912","15","150","149.35","113.52","35.83","29.82","31.9","11.32","90388","29.13","DUALSPOT-UV-BLUE-GREEN-RED-IR","782962","713108","909537","5.373045","1.781370","0.007924","757420","893095","760715","3.344687","1.158577","0.037015","858353","902835","815257","2.625310","0.952720","0.000000","847228","920190","859820","1.992219","0.790870","0.000000","723204","846721","949818","1.047861","0.354948","0.000000","4464","4597","4663","3875","4233","4423","3567","3655","3567","3437","3738","3437","2889","2534","2889",""
"MA200-0416","32774","96","1","1.10","1.4","2023-05-31T14:05:00","120","2023/05/31","14:05:00","-15.795763432979584","35.00296449987218","0.0","17","30","64","64","-24808","-1172","844","15","150","150.03","114.08","35.95","29.80","32.0","11.32","90384","29.13","DUALSPOT-UV-BLUE-GREEN-RED-IR","782225","712757","909312","5.444809","1.806854","0.029333","761373","898049","765080","3.396407","1.176654","0.042183","858240","902933","815502","2.668136","0.969457","0.000000","853625","927269","866565","2.023447","0.802463","0.000000","727757","852175","955993","1.066001","0.361193","0.000000","3694","4164","4397","3360","3728","3922","3116","3865","3116","2746","3235","2746","2221","2427","2221",""
"MA200-0416","32775","96","1","1.10","1.4","2023-05-31T14:05:30","120","2023/05/31","14:05:30","-15.79575377702713","35.00295783299953","0.1","17","30","64","65","-24928","-1192","932","15","150","149.57","113.96","35.60","29.78","32.1","11.34","90392","29.13","DUALSPOT-UV-BLUE-GREEN-RED-IR","781140","712112","908703","5.516262","1.831512","0.024549","756324","892396","760375","3.444116","1.192236","0.018851","856901","901780","814545","2.706337","0.981581","0.000000","851757","925444","864932","2.053971","0.812715","0.000000","726730","851089","954811","1.084316","0.367585","0.000000","3682","4067","4259","3103","3244","3318","2782","2827","2782","2687","2888","2687","2244","2507","2244",""
"MA200-0416","32776","96","1","1.10","1.4","2023-05-31T14:06:00","120","2023/05/31","14:06:00","-15.795764088630676","35.00298716616817","0.0","17","30","64","65","-25012","-1160","1132","15","150","149.80","113.93","35.87","29.76","32.1","11.34","90384","29.06","DUALSPOT-UV-BLUE-GREEN-RED-IR","780083","711401","908001","5.578636","1.853828","0.030398","760216","897215","764612","3.487698","1.208395","0.061271","856365","901391","814297","2.742344","0.994903","0.000000","851280","925037","864674","2.080266","0.822877","0.000000","726560","850964","954726","1.100364","0.371944","0.000000","3215","3654","3872","2835","3339","3606","2624","3083","2624","2315","2842","2315","1967","1697","1967",""
"MA200-0416","32777","96","1","1.10","1.4","2023-05-31T14:06:30","120","2023/05/31","14:06:30","-15.795774281024933","35.0029759996105","0.0","17","30","64","65","-24856","-1244","1004","15","150","149.87","113.79","36.07","29.73","32.1","11.31","90388","29.06","DUALSPOT-UV-BLUE-GREEN-RED-IR","779202","710837","907462","5.630014","1.871280","0.017186","759343","896381","763985","3.522388","1.220506","0.038116","856183","901356","814350","2.769762","1.004231","0.000000","849975","923776","863529","2.102548","0.830888","0.000000","726206","850598","954348","1.112817","0.376759","0.000000","2651","2841","2936","2259","2488","2610","2000","2146","2000","1964","2227","1964","1528","1864","1528",""
"MA200-0416","32778","96","1","1.10","1.4","2023-05-31T14:07:00","120","2023/05/31","14:07:00","-15.795767962932587","35.00296949944459","0.0","17","30","64","65","-24820","-1256","760","15","150","149.81","114.00","35.80","29.70","32.1","11.27","90388","29.00","DUALSPOT-UV-BLUE-GREEN-RED-IR","783077","714579","912389","5.677446","1.887579","0.021757","758269","895300","763127","3.553684","1.231409","0.040269","854704","899958","813173","2.796208","1.013845","0.000000","848154","921916","861862","2.122302","0.838768","0.000000","725039","849334","952986","1.124616","0.379676","0.000000","2443","2673","2788","2035","2257","2374","1925","2229","1925","1738","2207","1738","1445","1138","1445",""
"MA200-0416","32779","96","1","1.10","1.4","2023-05-31T14:07:30","120","2023/05/31","14:07:30","-15.795763611793518","35.002981999423355","0.1","17","30","64","65","-25092","-1120","1232","15","150","149.66","114.17","35.49","29.67","32.1","11.28","90384","29.00","DUALSPOT-UV-BLUE-GREEN-RED-IR","775800","708194","904335","5.725441","1.903652","0.018128","756954","893946","762080","3.587641","1.243133","0.040372","858693","904337","817165","2.822220","1.022595","0.000000","853251","927595","867226","2.141443","0.844919","0.000000","724805","849155","952770","1.135255","0.381922","0.000000","2469","2660","2755","2204","2448","2578","1891","2046","1891","1682","1738","1682","1301","884","1301",""
"MA200-0416","32780","96","1","1.10","1.4","2023-05-31T14:08:00","120","2023/05/31","14:08:00","-15.795769810676575","35.00294483313337","0.0","17","30","64","64","-25056","-1492","1412","15","150","149.45","114.12","35.32","29.64","32.2","11.27","90384","28.94","DUALSPOT-UV-BLUE-GREEN-RED-IR","780463","712640","910230","5.778135","1.923307","0.040690","756376","893456","761745","3.621945","1.256095","0.069759","853475","898953","812398","2.849382","1.033747","0.000000","851889","926232","866034","2.164477","0.854593","0.000000","723848","848076","951605","1.147430","0.386592","0.000000","2712","3268","3545","2228","2720","2981","1976","2621","1976","2024","2747","2024","1490","1846","1490",""
"MA200-0416","32781","96","1","1.10","1.4","2023-05-31T14:08:30","120","2023/05/31","14:08:30","-15.795784056186676","35.00294499984011","0.0","17","30","64","64","-24916","-1492","1088","15","150","149.86","114.08","35.78","29.62","32.2","11.28","90380","28.94","DUALSPOT-UV-BLUE-GREEN-RED-IR","779138","711699","909147","5.826635","1.939844","0.019819","754844","891842","760459","3.653260","1.265640","-0.012403","857449","903328","816441","2.875065","1.042652","0.000000","851826","926263","866145","2.184632","0.862753","0.000000","723844","848130","951715","1.158620","0.390269","0.000000","2497","2714","2823","2034","1977","1946","1869","2066","1869","1772","2288","1772","1370","1435","1370",""
"MA200-0416","32782","96","1","1.10","1.4","2023-05-31T14:09:00","120","2023/05/31","14:09:00","-15.795776784420013","35.00293616624549","0.2","17","30","64","64","-24812","-1336","1068","15","150","149.51","113.60","35.90","29.59","32.3","11.29","90380","28.88","DUALSPOT-UV-BLUE-GREEN-RED-IR","776160","709178","906076","5.871445","1.955787","0.027045","757133","894701","762983","3.687407","1.277971","0.048636","855001","900876","814307","2.902853","1.052296","0.000000","847955","922191","862373","2.205530","0.869178","0.000000","726110","850818","954791","1.170789","0.394017","0.000000","2316","2608","2754","2228","2546","2715","2030","2230","2030","1845","1795","1845","1496","1458","1496",""
"MA200-0416","32783","96","1","1.10","1.4","2023-05-31T14:09:30","120","2023/05/31","14:09:30","-15.795762419700623","35.00294083310291","0.0","17","30","64","64","-24996","-1368","1368","15","150","149.63","113.72","35.91","29.57","32.3","11.28","90380","28.88","DUALSPOT-UV-BLUE-GREEN-RED-IR","776719","709914","907181","5.920215","1.973701","0.033240","757861","895782","763999","3.721337","1.289815","0.037358","855439","901539","814984","2.930921","1.061743","0.000000","849194","923637","863811","2.226966","0.877791","0.000000","722450","846629","950091","1.184019","0.399151","0.000000","2518","2930","3135","2211","2445","2568","2049","2184","2049","1891","2406","1891","1625","1997","1625",""
"MA200-0416","32784","96","1","1.10","1.4","2023-05-31T14:10:00","120","2023/05/31","14:10:00","-15.795762777328491","35.002941833110526","0.0","17","30","64","64","-24840","-1244","592","15","150","150.23","113.76","36.46","29.53","32.4","11.28","90380","28.81","DUALSPOT-UV-BLUE-GREEN-RED-IR","775377","708925","906094","5.972049","1.991279","0.013415","756187","894031","762620","3.759078","1.303869","0.052829","855174","901407","814946","2.961444","1.073796","0.000000","848695","923238","863526","2.249972","0.885558","0.000000","726754","851729","955904","1.196071","0.402884","0.000000","2676","2831","2909","2459","2857","3068","2227","2744","2227","2028","2137","2028","1479","1430","1479",""
"MA200-0416","32785","96","1","1.10","1.4","2023-05-31T14:10:30","120","2023/05/31","14:10:30","-15.795759439468384","35.002959333127365","0.1","17","30","64","64","-25207","-1188","1203","15","150","150.29","114.12","36.17","29.51","32.4","11.27","90376","28.81","DUALSPOT-UV-BLUE-GREEN-RED-IR","774497","708391","905548","6.025065","2.008850","0.010636","755939","893969","762667","3.797663","1.317352","0.035717","854488","900874","814567","2.993548","1.084894","0.000000","847470","922055","862495","2.276403","0.896918","0.000000","726182","851175","955324","1.212131","0.409092","0.000000","2728","2853","2915","2506","2763","2899","2335","2547","2335","2323","3151","2323","1965","2397","1965",""
"MA200-0416","32786","96","1","1.10","1.4","2023-05-31T14:11:00","120","2023/05/31","14:11:00","-15.795757949352264","35.002950000111014","0.0","17","30","64","64","-24865","-1273","1007","15","150","150.36","114.32","36.04","29.49","32.5","11.30","90376","28.81","DUALSPOT-UV-BLUE-GREEN-RED-IR","777158","711049","909140","6.079588","2.028705","0.031076","753929","891839","760950","3.838392","1.330310","0.003614","852108","898567","812576","3.028709","1.096529","0.023852","844283","918723","859482","2.302806","0.905936","0.000000","724300","849077","952988","1.229208","0.414647","0.000000","2801","3236","3453","2641","2665","2678","2553","2680","2752","2317","2510","2317","2086","2152","2086",""
"MA200-0416","32787","96","1","1.10","1.4","2023-05-31T14:11:30","120","2023/05/31","14:11:30","-15.795773267745972","35.00294299959205","0.0","17","30","64","64","-24964","-1316","792","15","150","150.24","114.00","36.24","29.47","32.5","11.29","90380","28.75","DUALSPOT-UV-BLUE-GREEN-RED-IR","772410","706952","904070","6.135840","2.048030","0.017634","754757","893056","762107","3.877814","1.343715","0.024884","853145","899911","813874","3.061485","1.107055","0.005248","845519","920268","860991","2.329446","0.914114","0.000000","725310","850340","954454","1.244268","0.417991","0.000000","2898","3132","3249","2563","2742","2837","2386","2411","2425","2344","2264","2344","1845","1289","1845",""
"MA200-0416","32788","96","1","1.10","1.4","2023-05-31T14:12:00","120","2023/05/31","14:12:00","-15.795776009559631","35.00295349978842","0.0","17","30","64","64","-25146","-1215","1415","15","150","150.41","114.41","35.99","29.44","32.5","11.27","90376","28.75","DUALSPOT-UV-BLUE-GREEN-RED-IR","777347","711759","910407","6.190603","2.066526","0.016079","753905","892280","761492","3.918720","1.356994","0.011910","856617","903754","817419","3.094673","1.118350","0.036703","851139","926550","866966","2.356591","0.924503","0.000000","724799","849826","953929","1.260454","0.423503","0.000000","2811","3018","3122","2650","2735","2780","2408","2605","2716","2380","2896","2380","1976","2139","1976",""
"MA200-0416","32789","96","1","1.10","1.4","2023-05-31T14:12:30","120","2023/05/31","14:12:30","-15.795769333839417","35.002952832961455","0.0","17","30","64","64","-24996","-1352","988","15","150","149.57","113.84","35.72","29.42","32.6","11.27","90376","28.75","DUALSPOT-UV-BLUE-GREEN-RED-IR","776275","711035","909633","6.244181","2.084625","0.016504","752596","890974","760515","3.957535","1.371818","0.063023","852074","899120","813338","3.124720","1.129943","0.084677","850883","926389","866875","2.380355","0.933831","0.000000","724902","850044","954224","1.274755","0.427517","0.000000","2764","2975","3081","2527","3076","3367","2191","2694","2979","2094","2619","2094","1754","1569","1754",""
"MA200-0416","32790","96","1","1.10","1.4","2023-05-31T14:13:00","120","2023/05/31","14:13:00","-15.79576563835144","35.00296016666107","0.1","17","30","64","64","-25052","-1248","824","15","150","150.24","113.89","36.35","29.39","32.7","11.29","90380","28.75","DUALSPOT-UV-BLUE-GREEN-RED-IR","775068","710181","908717","6.301213","2.105489","0.028574","752185","890704","760383","3.998366","1.385397","0.015079","851459","898638","813005","3.159672","1.142532","0.053005","850076","925663","866282","2.406967","0.943928","0.000000","724564","849717","953929","1.290269","0.433633","0.000000","2941","3371","3587","2657","2769","2828","2547","2875","3060","2344","2786","2344","1902","2350","1902",""
"MA200-0416","32791","96","1","1.10","1.4","2023-05-31T14:13:30","120","2023/05/31","14:13:30","-15.795759856700897","35.0029704994522","0.0","17","30","64","64","-25004","-1368","1184","15","150","149.94","114.17","35.77","29.37","32.8","11.32","90368","28.69","DUALSPOT-UV-BLUE-GREEN-RED-IR","774117","709577","908131","6.356696","2.124193","0.016118","751366","889975","759865","4.037562","1.397735","0.001776","855214","902851","816894","3.192412","1.153213","0.019030","848774","924412","865188","2.432468","0.952523","0.000000","723950","849068","953265","1.305648","0.437822","0.000000","2854","3071","3180","2545","2557","2563","2380","2479","2534","2240","2410","2240","1881","1635","1881",""
"MA200-0416","32792","96","1","1.10","1.4","2023-05-31T14:14:00","120","2023/05/31","14:14:00","-15.795769333839417","35.00297249946743","0.0","17","30","64","64","-24960","-1392","1124","15","150","149.61","113.85","35.76","29.35","32.8","11.29","90376","28.69","DUALSPOT-UV-BLUE-GREEN-RED-IR","773406","709138","907736","6.409246","2.144987","0.043830","755476","895033","764306","4.074554","1.412374","0.069874","854823","902570","816742","3.221941","1.164645","0.082903","848551","924282","865177","2.456748","0.962972","0.000000","723854","849033","953243","1.320234","0.444060","0.000000","2711","3415","3770","2408","3035","3367","2153","2654","2938","2139","2931","2139","1789","2437","1789",""
"MA200-0416","32793","96","1","1.10","1.4","2023-05-31T14:14:30","120","2023/05/31","14:14:30","-15.795772314071655","35.00296716648154","0.1","17","30","64","64","-24916","-1312","851","15","150","149.51","114.04","35.46","29.33","32.8","11.31","90372","28.63","DUALSPOT-UV-BLUE-GREEN-RED-IR","772337","708390","906952","6.458055","2.161836","0.021992","754736","894383","763839","4.109617","1.425148","0.050598","854018","901904","816212","3.251451","1.175225","0.059419","846882","922617","863640","2.479673","0.970715","0.000000","723412","848608","952826","1.334348","0.448636","0.000000","2513","2790","2929","2279","2670","2877","2148","2476","2662","2016","2190","2016","1728","1802","1728",""
"MA200-0416","32794","96","1","1.10","1.4","2023-05-31T14:15:00","120","2023/05/31","14:15:00","-15.79576462507248","35.002982166130096","0.0","17","30","64","64","-25028","-1320","824","15","150","150.17","113.93","36.25","29.31","33.0","11.35","90372","28.63","DUALSPOT-UV-BLUE-GREEN-RED-IR","771389","707728","906261","6.507757","2.177803","0.002194","753716","893398","763109","4.145815","1.437301","0.018805","853543","901589","816018","3.280860","1.184160","-0.023160","846958","922846","863938","2.503769","0.977790","0.000000","723152","848385","952634","1.347524","0.452358","0.000000","2562","2587","2599","2355","2485","2554","2143","2046","1991","2122","1958","2122","1615","1434","1615",""
"MA200-0416","32795","96","1","1.10","1.4","2023-05-31T14:15:30","120","2023/05/31","14:15:30","-15.795771479606628","35.00297649949789","0.0","17","30","64","64","-25004","-1256","928","15","150","149.90","114.48","35.42","29.29","33.0","11.35","90372","28.63","DUALSPOT-UV-BLUE-GREEN-RED-IR","770351","707028","905485","6.556770","2.195829","0.033724","752872","892587","762510","4.182509","1.450288","0.043195","853099","901279","815824","3.310144","1.194030","0.037110","846005","921925","863171","2.525756","0.987303","0.000000","722519","847737","951895","1.360824","0.457137","0.000000","2514","2989","3228","2376","2718","2900","2123","2313","2421","1926","2694","1926","1622","1884","1622",""
"MA200-0416","32796","96","1","1.10","1.4","2023-05-31T14:16:00","120","2023/05/31","14:16:00","-15.795768797397614","35.00297449948266","0.0","17","30","64","64","-25068","-1452","1340","15","150","150.09","114.04","36.05","29.27","33.0","11.33","90372","28.63","DUALSPOT-UV-BLUE-GREEN-RED-IR","769591","706534","905051","6.606243","2.214399","0.033278","753143","893089","763009","4.217828","1.462919","0.039661","852210","900502","815197","3.339451","1.206029","0.094589","845013","920985","862354","2.549171","0.996452","0.000000","722157","847381","951574","1.375724","0.462130","0.000000","2548","3025","3266","2295","2597","2757","2133","2762","3118","2059","2546","2059","1825","1934","1825",""
"MA200-0416","32797","96","1","1.10","1.4","2023-05-31T14:16:30","120","2023/05/31","14:16:30","-15.795767664909363","35.00297566619702","0.0","17","30","64","64","-24992","-1288","944","15","150","150.16","114.28","35.88","29.26","33.1","11.36","90372","28.56","DUALSPOT-UV-BLUE-GREEN-RED-IR","769285","706486","905104","6.654392","2.230842","0.017520","752984","893139","763136","4.251927","1.473362","-0.009189","852102","900575","815348","3.369552","1.216268","0.034300","844923","921009","862430","2.571838","1.003479","0.000000","722000","847295","951491","1.389709","0.465449","0.000000","2474","2691","2801","2211","2157","2128","2186","2369","2472","1989","1965","1989","1709","1292","1709",""
"MA200-0416","32798","96","1","1.10","1.4","2023-05-31T14:17:00","120","2023/05/31","14:17:00","-15.795781791210175","35.00297549972311","0.1","17","30","64","63","-24944","-1280","1432","15","150","150.56","113.84","36.71","29.23","33.2","11.39","90372","28.56","DUALSPOT-UV-BLUE-GREEN-RED-IR","768500","706005","904670","6.701612","2.247200","0.014973","752004","892185","762446","4.288213","1.485025","-0.001156","851885","900533","815366","3.396517","1.224339","-0.037293","844130","920299","861844","2.594788","1.011276","0.000000","722266","847655","951960","1.402166","0.469666","0.000000","2436","2616","2708","2362","2355","2351","1966","1825","1745","2022","2130","2022","1528","1604","1528",""
"MA200-0416","32799","96","1","1.10","1.4","2023-05-31T14:17:30","120","2023/05/31","14:17:30","-15.79577910900116","35.00297016627155","0.0","17","30","64","63","-25044","-1328","1168","15","150","150.08","113.84","36.24","29.22","33.3","11.42","90372","28.63","DUALSPOT-UV-BLUE-GREEN-RED-IR","766181","704150","902456","6.759044","2.265869","0.004547","750072","890157","760818","4.332915","1.499807","0.012901","850415","899216","814287","3.435594","1.236534","-0.009263","841842","918009","859786","2.624452","1.020580","0.000000","720958","846255","950431","1.421022","0.475289","0.000000","2963","3025","3057","2911","3023","3083","2849","2793","2762","2614","2575","2614","2313","2167","2313",""
"MA200-0416","32800","96","1","1.10","1.4","2023-05-31T14:18:00","120","2023/05/31","14:18:00","-15.795782268047333","35.00298049976118","0.0","17","30","64","64","-24924","-1464","851","15","150","149.83","114.08","35.75","29.21","33.3","11.43","90368","28.56","DUALSPOT-UV-BLUE-GREEN-RED-IR","773286","710973","911421","6.826566","2.290115","0.026377","751083","891692","762251","4.383116","1.516569","0.020762","850644","899704","814845","3.477084","1.250851","0.039265","843108","919570","861335","2.658375","1.031422","0.000000","721357","846848","951180","1.442258","0.482852","0.000000","3476","3983","4239","3262","3475","3588","3019","3325","3496","2983","3042","2983","2600","2955","2600",""
"MA200-0416","32801","96","1","1.10","1.4","2023-05-31T14:18:30","120","2023/05/31","14:18:30","-15.79579746723175","35.002986166160554","0.1","17","30","64","63","-24900","-1256","1100","15","150","149.96","114.16","35.80","29.20","33.4","11.45","90368","28.56","DUALSPOT-UV-BLUE-GREEN-RED-IR","772584","710670","911225","6.895546","2.311880","0.001328","750539","891388","762092","4.438039","1.533157","-0.013462","850758","900099","815324","3.523725","1.264149","-0.046831","842817","919534","861381","2.696439","1.042377","0.000000","721617","847308","951736","1.467046","0.487594","0.000000","3548","3570","3581","3566","3434","3365","3391","3083","2911","3345","3070","3345","3033","1850","3033",""
"MA200-0416","32802","96","1","1.10","1.4","2023-05-31T14:19:00","120","2023/05/31","14:19:00","-15.795798301696777","35.00298066646792","0.1","17","30","64","63","-25116","-1328","1004","15","150","149.83","114.52","35.31","29.19","33.4","11.46","90372","28.56","DUALSPOT-UV-BLUE-GREEN-RED-IR","771122","709692","910200","6.968492","2.335558","0.010542","749463","890426","761435","4.492350","1.549423","-0.010193","850212","899809","815188","3.568673","1.277798","-0.006778","842772","919720","861658","2.732556","1.054418","0.000000","721319","847079","951577","1.489090","0.494824","0.000000","3741","3938","4037","3515","3414","3361","3258","3209","3181","3164","3420","3164","2688","2860","2688",""
"MA200-0416","32803","96","1","1.10","1.4","2023-05-31T14:19:30","120","2023/05/31","14:19:30","-15.795787394046783","35.002975166309625","0.0","16","30","64","63","-24980","-1296","955","15","150","149.37","114.31","35.07","29.18","33.4","11.44","90368","28.56","DUALSPOT-UV-BLUE-GREEN-RED-IR","769670","708678","909181","7.042494","2.361902","0.027614","748638","889763","761017","4.548896","1.570934","0.058993","849003","898809","814409","3.615915","1.295120","0.064490","847603","925197","866946","2.771222","1.069205","0.000000","720567","846328","950783","1.514186","0.502994","0.000000","3802","4412","4720","3667","4547","5012","3431","4101","4474","3393","4230","3393","3067","3254","3067",""
"MA200-0416","32804","96","1","1.10","1.4","2023-05-31T14:20:00","120","2023/05/31","14:20:00","-15.795774281024933","35.00298149953596","0.0","16","30","64","63","-24988","-1436","1400","15","150","150.21","114.63","35.59","29.16","33.5","11.45","90372","28.50","DUALSPOT-UV-BLUE-GREEN-RED-IR","768252","707969","908654","7.164917","2.405557","0.025516","751913","894231","765060","4.635873","1.599199","0.014358","848546","898757","814554","3.685772","1.318931","0.035899","847039","924924","866852","2.825186","1.086634","0.000000","720362","846311","950873","1.547357","0.514444","0.000000","6273","7205","7676","5625","5887","6026","5059","5555","5831","4723","4913","4723","4042","4494","4042",""
"MA200-0416","32805","96","1","1.10","1.4","2023-05-31T14:20:30","120","2023/05/31","14:20:30","-15.795773446559906","35.00297833303921","0.3","16","30","64","63","-24964","-1340","816","15","150","149.83","114.00","35.83","29.14","33.5","11.46","90372","28.50","DUALSPOT-UV-BLUE-GREEN-RED-IR","767604","707906","908982","7.289963","2.451049","0.026321","751008","893669","764805","4.727003","1.630682","0.027847","847696","898287","814324","3.759450","1.342303","0.003819","846199","924352","866481","2.883048","1.105582","0.000000","719999","846080","950724","1.586134","0.527208","0.000000","6442","7457","7972","5926","6514","6824","5365","5415","5443","5092","5306","5092","4751","4976","4751",""
"MA200-0416","32806","96","1","1.10","1.4","2023-05-31T14:21:00","120","2023/05/31","14:21:00","-15.795753479003906","35.002959333127365","0.4","16","30","64","62","-24988","-1256","672","15","150","150.09","114.28","35.81","29.13","33.6","11.47","90372","28.50","DUALSPOT-UV-BLUE-GREEN-RED-IR","764519","705478","906156","7.381958","2.482845","0.018179","749285","891982","763542","4.796472","1.655036","0.031981","845327","896140","812562","3.819370","1.364374","0.056115","842682","920794","863261","2.929380","1.121771","0.000000","718052","843942","948419","1.616106","0.536988","0.000000","4728","5214","5461","4506","5041","5322","4353","5116","5540","4067","4535","4067","3663","3814","3663",""
"MA200-0416","32807","96","1","1.10","1.4","2023-05-31T14:21:30","120","2023/05/31","14:21:30","-15.795770943164825","35.00296549964696","0.3","16","30","64","62","-25084","-1428","1172","15","150","149.37","114.19","35.18","29.11","33.6","11.47","90368","28.50","DUALSPOT-UV-BLUE-GREEN-RED-IR","763164","704665","905352","7.471239","2.513193","0.018033","748302","891257","763050","4.864190","1.677024","0.015638","848758","900100","816306","3.875488","1.382500","0.018075","841423","919673","862366","2.975732","1.138138","0.000000","717304","843220","947714","1.645029","0.545308","0.000000","4592","5066","5307","4396","4633","4758","4080","4277","4387","4072","4667","4072","3538","3303","3538",""
"MA200-0416","32808","96","1","1.10","1.4","2023-05-31T14:22:00","120","2023/05/31","14:22:00","-15.795789122581482","35.00295766652562","0.0","16","30","64","63","-25032","-1332","1124","15","150","150.24","113.96","36.27","29.09","33.8","11.53","90372","28.44","DUALSPOT-UV-BLUE-GREEN-RED-IR","763506","705383","906612","7.564041","2.545654","0.017159","748427","891794","763760","4.934959","1.702022","0.029090","845345","896826","813490","3.935343","1.403331","0.032216","843628","922413","865056","3.022204","1.152443","-0.018579","722863","850010","955420","1.678365","0.555074","0.000000","4782","5256","5496","4603","5108","5375","4360","4767","4993","4091","3956","3873","4086","3761","4086",""
"MA200-0416","32809","96","1","1.10","1.4","2023-05-31T14:22:30","120","2023/05/31","14:22:30","-15.795783340930939","35.002968666143715","0.1","16","30","64","63","-25044","-1364","1328","15","150","150.16","113.80","36.36","29.07","33.9","11.55","90372","28.50","DUALSPOT-UV-BLUE-GREEN-RED-IR","762995","705321","906755","7.651218","2.573940","0.003006","747805","891470","763620","5.000689","1.722276","-0.011456","844905","896734","813548","3.991157","1.420068","-0.026377","843136","922164","864947","3.068160","1.167202","0.002717","718335","844858","949712","1.708223","0.562658","0.000000","4499","4569","4605","4281","4129","4049","4071","3821","3683","4051","4072","4085","3665","2913","3665",""
"MA200-0416","32810","96","1","1.10","1.4","2023-05-31T14:23:00","120","2023/05/31","14:23:00","-15.795782625675201","35.002961499849334","0.1","16","30","64","62","-24896","-1328","672","15","150","150.03","113.76","36.26","29.06","33.9","11.56","90372","28.44","DUALSPOT-UV-BLUE-GREEN-RED-IR","760399","703276","904362","7.728050","2.600198","0.012687","746333","890008","762490","5.057219","1.740921","0.009922","847523","899754","816407","4.037768","1.434910","-0.000420","839696","918612","861730","3.106063","1.180320","0.039128","720894","848029","953333","1.733326","0.570767","0.000000","3966","4252","4398","3683","3811","3878","3401","3397","3395","3342","3629","3805","3082","3123","3082",""
"MA200-0416","32811","96","1","1.10","1.4","2023-05-31T14:23:30","120","2023/05/31","14:23:30","-15.79581218957901","35.002968499669805","0.1","16","30","64","62","-25057","-1461","803","15","150","150.14","114.29","35.85","29.04","33.9","11.56","90372","28.44","DUALSPOT-UV-BLUE-GREEN-RED-IR","761498","704641","906296","7.799978","2.624464","0.013097","746684","890738","763274","5.108199","1.758272","0.022470","848314","900840","817527","4.079437","1.449287","0.032892","842129","921467","864519","3.138485","1.191085","0.027436","722278","849768","955344","1.752229","0.575819","0.000000","3696","3975","4116","3306","3587","3735","3026","3329","3495","2846","3012","3114","2310","1968","2310",""
"MA200-0416","32812","96","1","1.10","1.4","2023-05-31T14:24:00","120","2023/05/31","14:24:00","-15.795792818069458","35.00294716656208","0.1","16","30","64","63","-25044","-1252","1048","15","150","149.87","114.34","35.53","29.03","33.9","11.55","90376","28.44","DUALSPOT-UV-BLUE-GREEN-RED-IR","760577","704103","905860","7.869573","2.649089","0.021960","746439","890717","763376","5.154476","1.773424","0.014649","847152","899848","816722","4.117727","1.463354","0.053500","840329","919659","862872","3.167772","1.201230","0.049197","721462","848888","954411","1.771339","0.581996","0.000000","3575","4070","4322","3000","3161","3245","2780","3286","3565","2569","2864","3044","2334","2428","2334",""
"MA200-0416","32813","96","1","1.10","1.4","2023-05-31T14:24:30","120","2023/05/31","14:24:30","-15.795769333839417","35.00295816641301","0.0","16","30","64","62","-25012","-1256","1004","15","150","150.03","113.88","36.15","29.01","34.0","11.54","90376","28.44","DUALSPOT-UV-BLUE-GREEN-RED-IR","756953","701058","902191","7.940750","2.674427","0.019509","743656","887721","760921","5.203836","1.790052","0.016462","845822","898681","815728","4.157656","1.474893","-0.038712","838456","917834","861231","3.198684","1.210224","-0.048323","720402","847760","953188","1.789878","0.586875","0.000000","3670","4117","4343","3213","3410","3514","2910","2650","2507","2723","2496","2358","2274","1885","2274",""
"MA200-0416","32814","96","1","1.10","1.4","2023-05-31T14:25:00","120","2023/05/31","14:25:00","-15.795776307582855","35.00297616631724","0.0","16","30","64","63","-25012","-1268","996","15","150","150.16","114.52","35.64","28.99","34.0","11.54","90380","28.44","DUALSPOT-UV-BLUE-GREEN-RED-IR","758462","702782","904635","8.014209","2.699588","0.016431","744738","889257","762406","5.254098","1.807010","0.021608","846405","899566","816680","4.198861","1.489479","0.041801","839479","919119","862552","3.230144","1.221799","0.070159","721135","848773","954392","1.810380","0.593377","0.000000","3767","4146","4339","3253","3527","3670","2987","3397","3623","2756","3258","3563","2500","2548","2500",""
"MA200-0416","32815","96","1","1.10","1.4","2023-05-31T14:25:30","120","2023/05/31","14:25:30","-15.79576861858368","35.00298966607079","0.0","15","30","64","63","-24996","-1324","800","15","150","149.45","114.24","35.20","28.98","34.0","11.54","90376","28.38","DUALSPOT-UV-BLUE-GREEN-RED-IR","763531","707808","911305","8.081465","2.723743","0.024714","744430","889199","762468","5.301590","1.824028","0.037499","845528","898830","816153","4.237777","1.503819","0.054940","838369","918116","861705","3.261321","1.232600","0.051019","720523","848147","953763","1.829074","0.600091","0.000000","3457","4029","4320","3081","3583","3846","2828","3381","3686","2737","3077","3284","2285","2664","2285",""
"MA200-0416","32816","96","1","1.10","1.4","2023-05-31T14:26:00","120","2023/05/31","14:26:00","-15.795760810375214","35.002972832880914","0.0","15","30","64","62","-25020","-1412","1104","15","150","150.16","114.28","35.88","28.97","34.0","11.53","90380","28.38","DUALSPOT-UV-BLUE-GREEN-RED-IR","757273","702395","904619","8.168625","2.754318","0.018406","744020","889063","762477","5.362200","1.843017","-0.000578","845409","898990","816394","4.287327","1.518553","-0.020796","838205","918169","861843","3.300914","1.244336","-0.029865","720828","848671","954391","1.854625","0.606233","0.000000","4479","5005","5272","3931","3923","3919","3599","3409","3305","3475","3281","3164","3123","2391","3123",""
"MA200-0416","32817","96","1","1.10","1.4","2023-05-31T14:26:30","120","2023/05/31","14:26:30","-15.795776784420013","35.00296116643585","0.0","15","30","64","61","-25176","-1276","976","15","150","149.39","114.44","34.95","28.95","34.1","11.56","90376","28.38","DUALSPOT-UV-BLUE-GREEN-RED-IR","760274","705534","908883","8.244673","2.781221","0.023410","741440","886291","760263","5.416831","1.861894","0.030810","843882","897657","815309","4.331893","1.534080","0.041344","836394","916407","860313","3.335325","1.257484","0.086183","719518","847243","952844","1.874954","0.613820","0.000000","3903","4521","4836","3539","4004","4247","3233","3688","3938","3016","3774","4233","2481","3032","2481",""
"MA200-0416","32818","96","1","1.10","1.4","2023-05-31T14:27:00","120","2023/05/31","14:27:00","-15.795769333839417","35.002959666308016","0.0","15","30","64","62","-24980","-1328","1092","15","150","149.57","114.12","35.44","28.94","34.1","11.55","90376","28.38","DUALSPOT-UV-BLUE-GREEN-RED-IR","754977","701144","903595","8.354896","2.818971","0.016067","742357","887874","761821","5.499258","1.891386","0.034214","840216","894157","812297","4.399747","1.557577","0.034336","837810","918291","862222","3.389448","1.275062","0.020139","720393","848468","954346","1.908847","0.624800","0.000000","5672","6255","6552","5354","6168","6595","4936","5503","5814","4758","4975","5106","4148","4327","4148",""
"MA200-0416","32819","96","1","1.10","1.4","2023-05-31T14:27:30","120","2023/05/31","14:27:30","-15.795759439468384","35.00296199996956","0.0","15","30","64","62","-24980","-1252","948","15","150","150.09","114.24","35.85","28.94","34.2","11.57","90380","28.38","DUALSPOT-UV-BLUE-GREEN-RED-IR","761252","707250","911680","8.425322","2.844244","0.021124","742618","888463","762442","5.548213","1.905996","-0.014580","844044","898437","816329","4.440415","1.570010","-0.009394","837062","917661","861729","3.421888","1.285475","0.010269","719886","847999","953883","1.930805","0.631237","0.000000","3620","4140","4404","3176","3020","2939","2955","2879","2837","2848","2913","2952","2684","2507","2684",""
"MA200-0416","32820","96","1","1.10","1.4","2023-05-31T14:28:00","120","2023/05/31","14:28:00","-15.795752763748169","35.002947999862954","0.0","15","30","64","62","-24926","-1215","915","15","150","150.17","114.31","35.87","28.93","34.2","11.56","90376","28.38","DUALSPOT-UV-BLUE-GREEN-RED-IR","759501","705874","910066","8.478111","2.862903","0.018909","741400","887206","761458","5.583564","1.919532","0.045009","843901","898478","816414","4.470986","1.581156","0.044813","837039","917751","861886","3.445084","1.293909","0.058842","719970","848195","954119","1.944944","0.634695","0.000000","2712","3055","3230","2292","2797","3062","2220","2580","2776","2035","2359","2553","1727","1346","1727",""
"MA200-0416","32821","96","1","1.10","1.4","2023-05-31T14:28:30","120","2023/05/31","14:28:30","-15.795757949352264","35.002948166336864","0.0","15","30","64","62","-24968","-1380","1028","15","150","150.03","114.60","35.43","28.92","34.2","11.55","90380","28.38","DUALSPOT-UV-BLUE-GREEN-RED-IR","758792","705418","909679","8.528812","2.881261","0.024086","740913","886863","761259","5.620777","1.932472","0.028427","843383","898130","816217","4.500723","1.591390","0.033103","836808","917605","861824","3.467733","1.301902","0.053253","719686","847899","953861","1.959287","0.640891","0.000000","2598","3043","3270","2407","2707","2865","2154","2398","2531","1982","2263","2431","1748","2443","1748",""
"MA200-0416","32822","96","1","1.10","1.4","2023-05-31T14:29:00","120","2023/05/31","14:29:00","-15.795778453350067","35.002957499818876","0.0","15","30","64","61","-25052","-1480","1444","15","150","149.73","114.25","35.48","28.90","34.2","11.53","90376","28.38","DUALSPOT-UV-BLUE-GREEN-RED-IR","758650","705541","909960","8.581043","2.898264","0.007925","741173","887336","761795","5.656975","1.945198","0.029624","842541","897384","815606","4.529679","1.601767","0.042503","841896","923338","867284","3.491235","1.310247","0.053502","719131","847350","953295","1.973947","0.644043","0.000000","2685","2814","2881","2348","2659","2821","2104","2428","2605","2063","2359","2537","1792","1241","1792",""
"MA200-0416","32823","96","1","1.10","1.4","2023-05-31T14:29:30","120","2023/05/31","14:29:30","-15.795787692070007","35.00295149977319","0.0","15","30","64","62","-24900","-1442","1265","15","150","149.67","114.31","35.36","28.90","34.2","11.53","90376","28.38","DUALSPOT-UV-BLUE-GREEN-RED-IR","758386","705562","910197","8.639881","2.919738","0.024718","740051","886247","760916","5.695123","1.957483","0.010322","842572","897584","815849","4.558790","1.609939","-0.036644","835843","916883","861240","3.514251","1.316231","-0.097443","719452","847831","953813","1.989061","0.647931","0.000000","3023","3566","3844","2474","2575","2628","2114","1918","1811","2020","1697","1504","1847","1535","1847",""
"MA200-0416","32824","96","1","1.10","1.4","2023-05-31T14:30:00","120","2023/05/31","14:30:00","-15.795791864395142","35.002948333043605","0.0","15","30","64","61","-25000","-1420","940","15","150","150.49","114.25","36.24","28.90","34.2","11.55","90380","28.38","DUALSPOT-UV-BLUE-GREEN-RED-IR","757246","704769","909355","8.691570","2.939209","0.025407","740046","886418","761171","5.729570","1.970445","0.038625","842044","897219","815634","4.587787","1.621563","0.063153","841172","922839","866969","3.537234","1.326292","0.106914","718902","847260","953246","2.002414","0.653056","0.000000","2657","3155","3410","2235","2651","2870","2107","2662","2966","2018","2785","3245","1632","1975","1632",""
"MA200-0416","32825","96","1","1.10","1.4","2023-05-31T14:30:30","120","2023/05/31","14:30:30","-15.795793652534485","35.002945999847725","0.0","15","30","64","61","-25024","-1324","932","15","150","149.76","114.24","35.52","28.90","34.3","11.59","90376","28.38","DUALSPOT-UV-BLUE-GREEN-RED-IR","757123","705020","909926","8.761427","2.963560","0.017649","739848","886489","761336","5.771400","1.983875","0.008172","842245","897645","816089","4.621929","1.632327","0.004561","835843","917185","861696","3.563628","1.333683","-0.053006","719488","848031","954187","2.018409","0.658447","0.000000","3591","4026","4248","2714","2802","2848","2481","2515","2534","2317","2087","1949","1955","2120","1955",""
"MA200-0416","32826","96","1","1.10","1.4","2023-05-31T14:31:00","120","2023/05/31","14:31:00","-15.795790314674377","35.00294783315621","0.0","15","30","64","61","-24944","-1300","880","15","150","149.83","114.48","35.35","28.90","34.3","11.62","90372","28.38","DUALSPOT-UV-BLUE-GREEN-RED-IR","746750","695668","898077","8.842733","2.991607","0.017007","740692","887723","762535","5.821372","2.000284","0.015127","842975","898656","817144","4.660588","1.645034","0.019448","835809","917317","861913","3.593593","1.344454","0.057782","720032","848750","955057","2.038425","0.664565","0.000000","4171","4660","4910","3235","3441","3548","2803","2984","3083","2626","3056","3314","2442","2417","2442",""
"MA200-0416","32827","96","1","1.10","1.4","2023-05-31T14:31:30","120","2023/05/31","14:31:30","-15.795778274536133","35.002966499654576","0.0","15","30","64","61","-24996","-1280","980","15","150","150.16","114.48","35.68","28.90","34.4","11.63","90376","28.38","DUALSPOT-UV-BLUE-GREEN-RED-IR","755483","704482","909966","8.960434","3.032720","0.017220","738987","886201","761405","5.886202","2.019430","-0.014764","840785","896687","815467","4.710281","1.660037","-0.010809","833781","915414","860247","3.631966","1.355260","-0.050086","718325","846962","953089","2.063095","0.671325","0.000000","6038","6767","7140","4198","3977","3862","3603","3490","3429","3362","3038","2845","3010","2646","3010",""
"MA200-0416","32828","96","1","1.10","1.4","2023-05-31T14:32:00","120","2023/05/31","14:32:00","-15.795769095420837","35.00296483305283","0.0","15","30","64","61","-25104","-1376","984","15","150","149.92","114.46","35.46","28.92","34.4","11.66","90372","28.44","DUALSPOT-UV-BLUE-GREEN-RED-IR","751223","700858","905467","9.065718","3.068554","0.014295","740425","888183","763226","5.944771","2.039230","0.020492","841923","898153","816906","4.759079","1.674116","-0.024951","836085","918091","862833","3.670218","1.366841","-0.010286","719693","848686","955091","2.087450","0.677683","0.000000","5402","5934","6207","3793","4139","4319","3539","3296","3163","3353","3276","3231","2972","2504","2972",""
"MA200-0416","32829","96","1","1.10","1.4","2023-05-31T14:32:30","120","2023/05/31","14:32:30","-15.795764803886414","35.00296066654846","0.1","15","30","64","61","-24933","-1312","1037","15","150","149.92","114.84","35.08","28.92","34.5","11.68","90376","28.44","DUALSPOT-UV-BLUE-GREEN-RED-IR","751464","701409","906381","9.134432","3.091642","0.014360","740454","888558","763656","5.993047","2.053810","-0.002949","842392","898888","817668","4.798132","1.686013","-0.000903","836492","918773","863557","3.701433","1.375835","-0.026865","719914","849103","955638","2.108099","0.682956","0.000000","3514","3865","4045","3116","3080","3062","2823","2815","2811","2727","2572","2480","2511","2099","2511",""
"MA200-0416","32830","96","1","1.10","1.4","2023-05-31T14:33:00","120","2023/05/31","14:33:00","-15.795770645141602","35.002948166336864","0.0","15","30","64","61","-25044","-1376","1004","15","150","149.96","114.40","35.56","28.92","34.5","11.69","90372","28.44","DUALSPOT-UV-BLUE-GREEN-RED-IR","750970","701259","906399","9.203579","3.115198","0.013753","740409","888737","763948","6.040436","2.070463","0.027418","841818","898484","817441","4.836625","1.699674","0.037072","836661","919135","863978","3.731625","1.385563","0.014689","719723","848991","955556","2.129003","0.689517","0.000000","3550","3890","4064","3070","3471","3680","2793","3189","3403","2647","2744","2801","2552","2577","2552",""
"MA200-0416","32831","96","1","1.10","1.4","2023-05-31T14:33:30","120","2023/05/31","14:33:30","-15.795775771141052","35.00294899963774","0.0","15","30","64","61","-24884","-1260","920","15","150","150.03","113.96","36.07","28.94","34.5","11.73","90368","28.50","DUALSPOT-UV-BLUE-GREEN-RED-IR","751041","701628","907159","9.272186","3.139824","0.018191","739700","888194","763567","6.086063","2.085626","0.011639","837664","894297","813718","4.874367","1.711476","-0.003841","837254","919982","864854","3.759671","1.394742","0.013708","716188","844906","951021","2.145904","0.695675","0.000000","3536","4010","4253","2968","3116","3194","2749","2716","2698","2469","2553","2603","2071","2385","2071",""
"MA200-0416","32832","96","1","1.10","1.4","2023-05-31T14:34:00","120","2023/05/31","14:34:00","-15.79577261209488","35.00294749974273","0.1","15","30","64","61","-25048","-1216","936","15","150","150.36","114.40","35.96","28.94","34.6","11.74","90372","28.50","DUALSPOT-UV-BLUE-GREEN-RED-IR","750724","701653","907374","9.341661","3.163969","0.014746","740081","888913","764329","6.134900","2.101040","0.001019","837444","894306","813785","4.913712","1.723474","-0.009804","836810","919680","864657","3.791295","1.403873","-0.039143","715828","844599","950712","2.166139","0.700760","0.000000","3567","3943","4136","3164","3177","3184","2855","2770","2724","2773","2547","2415","2470","1975","2470",""
"MA200-0416","32833","96","1","1.10","1.4","2023-05-31T14:34:30","120","2023/05/31","14:34:30","-15.795773148536682","35.00293983286247","0.1","15","30","64","61","-25080","-1324","1016","15","150","150.56","114.28","36.28","28.95","34.7","11.81","0","0.00","DUALSPOT-UV-BLUE-GREEN-RED-IR","750326","702054","908413","9.507345","3.221704","0.013549","735003","883574","760067","6.260030","2.143938","0.017322","837314","894837","814553","5.019039","1.759070","0.018034","836748","920183","865397","3.877810","1.432788","0.019942","715833","844970","951321","2.227363","0.719547","0.000000","8515","9348","9774","8117","8766","9104","7651","8146","8413","7595","7996","8231","7483","7234","7483",""
"MA200-0416","32834","96","1","1.10","1.4","2023-05-31T14:35:00","120","2023/05/31","14:35:00","-15.795767366886139","35.00294983293861","0.0","15","30","64","61","-25004","-1408","867","15","150","149.76","114.40","35.36","28.97","34.8","11.86","0","0.00","DUALSPOT-UV-BLUE-GREEN-RED-IR","749671","701814","908368","9.591696","3.250953","0.016213","739597","889461","765269","6.321864","2.163684","0.007575","836572","894339","814255","5.070281","1.774818","-0.001782","837066","920778","866041","3.917636","1.443725","-0.054797","715685","844957","951364","2.254310","0.727104","0.000000","4330","4858","5128","4006","4139","4208","3718","3697","3685","3492","3102","2875","3290","2985","3290",""
"MA200-0416","32835","96","1","1.10","1.4","2023-05-31T14:35:30","120","2023/05/31","14:35:30","-15.79576325416565","35.00295999995433","0.0","15","30","64","61","-24748","-1312","-128","15","150","149.76","114.52","35.24","28.99","34.9","11.91","90368","28.56","DUALSPOT-UV-BLUE-GREEN-RED-IR","748450","701043","907641","9.673624","3.279396","0.016773","733607","882617","759527","6.380380","2.182085","0.005007","835967","893990","814048","5.119592","1.789743","-0.005096","835967","919832","865252","3.958256","1.456368","0.004434","715073","844425","950836","2.283022","0.736124","0.000000","4202","4739","5015","3788","3870","3913","3574","3515","3483","3558","3598","3622","3502","3575","3502",""
"MA200-0416","32836","96","1","1.10","1.4","2023-05-31T14:36:00","120","2023/05/31","14:36:00","-15.79576712846756","35.002966166241094","0.0","15","30","64","61","-24968","-1316","1068","15","150","149.87","114.04","35.82","29.00","35.0","11.96","90368","28.56","DUALSPOT-UV-BLUE-GREEN-RED-IR","745160","698265","904288","9.745010","3.305402","0.019979","735404","885075","761769","6.432509","2.199096","0.008673","837311","895680","815737","5.163473","1.803667","0.002969","832744","916467","862190","3.992326","1.468199","0.035820","716775","846558","953310","2.305843","0.743601","0.000000","3676","4264","4565","3388","3520","3588","3194","3226","3244","2997","3313","3497","2795","2915","2795",""
"MA200-0416","32837","96","1","1.10","1.4","2023-05-31T14:36:30","120","2023/05/31","14:36:30","-15.79577374458313","35.00296749966219","0.0","15","30","64","61","-25011","-1288","1242","15","150","150.29","114.44","35.85","29.02","35.0","11.99","90372","28.63","DUALSPOT-UV-BLUE-GREEN-RED-IR","744509","698107","904346","9.833994","3.335031","0.008825","735174","885261","762120","6.504248","2.222414","0.008279","837168","895955","816162","5.226022","1.823926","0.009450","833363","917529","863318","4.043916","1.482218","-0.065483","717023","847097","954057","2.342424","0.753388","0.000000","4567","4853","5001","4647","4821","4911","4537","4691","4773","4522","3922","3575","4465","3813","4465",""
"MA200-0416","32838","96","1","1.10","1.4","2023-05-31T14:37:00","120","2023/05/31","14:37:00","-15.79577499628067","35.00296049984172","0.0","15","30","64","60","-24856","-1248","992","15","150","149.67","113.93","35.74","29.03","34.9","11.97","90368","28.63","DUALSPOT-UV-BLUE-GREEN-RED-IR","742871","697108","903395","9.947451","3.375112","0.016102","734257","884710","761912","6.597556","2.253456","0.012735","835517","894701","815218","5.306512","1.848966","-0.002461","830387","914663","860794","4.111335","1.502883","-0.009156","715311","845356","952225","2.392887","0.768023","0.000000","5849","6586","6965","6071","6438","6628","5865","5816","5790","5937","5800","5721","6187","5719","6187",""
"MA200-0416","32839","96","1","1.10","1.4","2023-05-31T14:37:30","120","2023/05/31","14:37:30","-15.795770287513733","35.00295566651039","0.0","15","30","64","60","-25000","-1192","1024","15","150","149.51","114.20","35.30","29.05","34.9","11.99","90372","28.69","DUALSPOT-UV-BLUE-GREEN-RED-IR","742738","697430","904183","10.056507","3.413354","0.016802","733951","884833","762168","6.680788","2.280492","0.010709","835132","894712","815384","5.379188","1.871807","0.004619","830452","915086","861353","4.172371","1.521682","-0.001393","715346","845648","952658","2.436565","0.780606","0.000000","5609","6362","6749","5402","5677","5819","5283","5371","5418","5362","5342","5331","5342","4978","5342",""
"MA200-0416","32840","96","1","1.10","1.4","2023-05-31T14:38:00","120","2023/05/31","14:38:00","-15.795773923397064","35.00295466626994","0.0","15","30","64","61","-25288","-1420","1980","15","150","149.54","114.80","34.74","29.06","34.8","11.96","90372","28.69","DUALSPOT-UV-BLUE-GREEN-RED-IR","744356","699311","906825","10.131727","3.439190","0.016736","735244","886678","763906","6.734958","2.297807","0.011667","836124","896055","816706","5.425805","1.886213","0.005782","832497","917615","863805","4.209729","1.532101","-0.033435","716392","847049","954297","2.463304","0.787494","0.000000","3848","4367","4634","3498","3694","3796","3371","3442","3480","3264","3008","2862","3253","2769","3253",""
"MA200-0416","32841","96","1","1.10","1.4","2023-05-31T14:38:30","120","2023/05/31","14:38:30","-15.795773565769196","35.00296666636132","0.0","15","30","64","60","-25046","-1288","976","15","150","149.93","114.44","35.49","29.07","34.7","11.94","90376","28.69","DUALSPOT-UV-BLUE-GREEN-RED-IR","743712","699029","906711","10.205217","3.463871","0.010946","734830","886521","763911","6.786875","2.314609","0.009172","835525","895661","816490","5.467588","1.899099","-0.001529","832041","917340","863665","4.244380","1.542872","0.000885","716064","846857","954150","2.487934","0.795459","0.000000","3771","4085","4246","3363","3510","3586","3031","3014","3006","3037","3045","3049","3006","3135","3006",""
"MA200-0416","32842","96","1","1.10","1.4","2023-05-31T14:39:00","120","2023/05/31","14:39:00","-15.795783340930939","35.0029689995572","0.0","15","30","64","60","-24964","-1292","932","15","150","149.95","113.95","36.00","29.07","34.7","11.91","90372","28.69","DUALSPOT-UV-BLUE-GREEN-RED-IR","740992","696821","904016","10.274963","3.487236","0.008154","732887","884487","762282","6.840568","2.333265","0.019232","834279","894568","815606","5.512798","1.914495","0.019353","829535","914830","861367","4.280194","1.553201","-0.036957","714812","845508","952685","2.513887","0.801342","0.000000","3595","3812","3923","3493","3841","4022","3294","3550","3687","3153","2878","2722","3181","2282","3181",""
"MA200-0416","32843","96","1","1.10","1.4","2023-05-31T14:39:30","120","2023/05/31","14:39:30","-15.795783877372742","35.00297483289614","0.0","15","30","64","61","-25056","-1304","1392","15","150","149.76","114.56","35.20","29.08","34.7","11.93","90372","28.69","DUALSPOT-UV-BLUE-GREEN-RED-IR","740310","697592","905894","10.538078","3.568163","0.000124","732832","885551","763598","7.000913","2.377695","-0.024992","833828","895019","816299","5.635393","1.947862","-0.037567","831090","917195","863819","4.372720","1.577985","-0.057487","715427","846626","954081","2.572765","0.817285","0.000000","13490","13501","13507","10376","9355","8831","8884","7868","7332","8103","7062","6475","7179","6326","7179",""
"MA200-0416","32844","96","1","1.10","1.4","2023-05-31T14:40:00","120","2023/05/31","14:40:00","-15.79577761888504","35.00295866653323","0.0","15","30","64","60","-25000","-1420","1024","15","150","149.76","114.52","35.24","29.09","34.7","11.94","90376","28.69","DUALSPOT-UV-BLUE-GREEN-RED-IR","739955","697622","906190","10.654104","3.607320","0.011962","732542","885568","763733","7.078392","2.401716","0.001554","833640","895114","816529","5.699504","1.965892","-0.026583","830400","916686","863436","4.422337","1.591610","-0.045741","715031","846330","953897","2.608205","0.827215","0.000000","5950","6525","6820","5015","5052","5071","4647","4247","4036","4346","3878","3615","4323","3935","4323",""
"MA200-0416","32845","96","1","1.10","1.4","2023-05-31T14:40:30","120","2023/05/31","14:40:30","-15.795768976211548","35.0029628330376","0.0","15","30","64","60","-24966","-1216","941","15","150","149.40","114.21","35.19","29.09","34.7","11.93","90368","28.69","DUALSPOT-UV-BLUE-GREEN-RED-IR","738087","696214","904536","10.724194","3.632104","0.017020","730751","883681","762238","7.131932","2.421075","0.029179","832293","893909","815539","5.742955","1.980025","0.013622","828038","914313","861311","4.457012","1.602482","0.006007","713814","845033","952478","2.633068","0.833826","0.000000","3604","4136","4409","3475","4078","4388","3158","3334","3426","3045","3099","3129","3041","2624","3041",""
"MA200-0416","32846","96","1","1.10","1.4","2023-05-31T14:41:00","120","2023/05/31","14:41:00","-15.795775473117828","35.00297016627155","0.0","15","30","64","60","-24968","-1384","1100","15","150","149.96","114.80","35.16","29.11","34.6","11.92","90372","28.69","DUALSPOT-UV-BLUE-GREEN-RED-IR","739430","697723","906731","10.785490","3.654846","0.022446","731611","884968","763480","7.177787","2.435356","0.003443","829088","890693","812696","5.782026","1.991594","-0.009269","831177","917975","864881","4.490223","1.612335","-0.011524","715058","846659","954366","2.656257","0.840436","0.000000","3136","3798","4137","2961","3010","3036","2825","2731","2681","2902","2810","2759","2821","2625","2821",""
"MA200-0416","32847","96","1","1.10","1.4","2023-05-31T14:41:30","120","2023/05/31","14:41:30","-15.795778274536133","35.00298149953596","0.0","15","30","64","60","-25057","-1226","1030","15","150","150.66","114.98","35.68","29.12","34.7","11.94","90372","28.75","DUALSPOT-UV-BLUE-GREEN-RED-IR","739299","697872","907098","10.846943","3.675714","0.011503","731692","885383","763927","7.222753","2.449327","0.000249","829134","890959","813038","5.820173","2.003914","0.010049","831334","918416","865330","4.520417","1.620352","-0.064269","715364","847151","954960","2.675094","0.845878","0.000000","3139","3435","3586","2899","2902","2904","2754","2866","2925","2634","2254","2041","2288","2130","2288",""
"MA200-0416","32848","96","1","1.10","1.4","2023-05-31T14:42:00","120","2023/05/31","14:42:00","-15.795785546302795","35.00298149953596","0.0","15","30","64","60","-25023","-1276","950","15","150","149.83","114.32","35.51","29.12","34.6","11.93","90372","28.75","DUALSPOT-UV-BLUE-GREEN-RED-IR","739904","698664","908349","10.901085","3.696033","0.021976","732160","886181","764736","7.262985","2.463895","0.027604","833177","895535","817282","5.853105","2.014160","0.000414","830988","918139","865123","4.546165","1.628368","0.000809","715538","847476","955380","2.696153","0.851093","0.000000","2781","3360","3658","2608","3041","3263","2391","2395","2397","2259","2264","2267","2573","2051","2573",""
"MA200-0416","32849","96","1","1.10","1.4","2023-05-31T14:42:30","120","2023/05/31","14:42:30","-15.795781791210175","35.00296499975957","0.0","15","30","64","60","-24964","-1364","1084","15","150","149.70","114.52","35.18","29.13","34.6","11.91","90376","28.75","DUALSPOT-UV-BLUE-GREEN-RED-IR","738233","697288","906679","10.949459","3.714227","0.023152","730561","884431","763308","7.296258","2.474414","0.005815","832502","894984","816860","5.883503","2.024824","0.030253","829728","916888","864032","4.569313","1.636081","0.025505","710135","841151","948280","2.712068","0.855555","0.000000","2481","3037","3323","2153","2216","2249","2203","2516","2680","2027","2199","2295","1941","1771","1941",""
"MA200-0416","32850","96","1","1.10","1.4","2023-05-31T14:43:00","120","2023/05/31","14:43:00","-15.795778453350067","35.002971166046336","0.0","15","30","64","60","-25060","-1288","1020","15","150","150.23","114.52","35.71","29.13","34.5","11.90","90376","28.75","DUALSPOT-UV-BLUE-GREEN-RED-IR","739269","698469","908397","10.997623","3.730827","0.012502","727489","880912","760361","7.333777","2.486526","0.006914","828590","890961","813231","5.911756","2.032393","-0.046190","830565","917958","865095","4.593199","1.642376","-0.069163","714859","846888","954791","2.729438","0.860219","0.000000","2470","2730","2864","2428","2514","2558","2048","1759","1608","2092","1768","1588","2118","1824","2118",""
"MA200-0416","32851","96","1","1.10","1.4","2023-05-31T14:43:30","120","2023/05/31","14:43:30","-15.795772433280945","35.00297383288853","0.0","15","30","64","60","-24948","-1208","992","15","150","150.28","114.63","35.66","29.13","34.5","11.88","90376","28.75","DUALSPOT-UV-BLUE-GREEN-RED-IR","738962","698429","908483","11.043890","3.747274","0.016093","731717","886271","765059","7.368656","2.497417","0.000760","828491","891037","813399","5.941409","2.042097","0.012356","830189","917692","864899","4.615849","1.649332","-0.004363","715245","847397","955430","2.744882","0.865688","0.000000","2370","2709","2883","2255","2264","2268","2147","2259","2317","1982","1957","1943","1882","2142","1882",""
"MA200-0416","32852","96","1","1.10","1.4","2023-05-31T14:44:00","120","2023/05/31","14:44:00","-15.795777142047882","35.002970832865685","0.0","15","30","64","60","-25204","-1408","1124","15","150","149.76","115.24","34.53","29.13","34.5","11.87","90376","28.75","DUALSPOT-UV-BLUE-GREEN-RED-IR","738332","698062","908192","11.097786","3.765854","0.016717","730895","885459","764458","7.405405","2.509552","0.018063","832499","895564","817620","5.972517","2.051758","0.008830","830965","918721","865938","4.639933","1.656282","-0.013129","714898","847098","955118","2.759636","0.869304","0.000000","2747","3160","3372","2364","2605","2729","2241","2323","2365","2096","2019","1976","1788","1463","1788",""
"MA200-0416","32853","96","1","1.10","1.4","2023-05-31T14:44:30","120","2023/05/31","14:44:30","-15.795776009559631","35.00296116643585","0.0","15","30","64","60","-24956","-1252","900","15","150","150.14","114.71","35.43","29.13","34.4","11.84","90376","28.69","DUALSPOT-UV-BLUE-GREEN-RED-IR","735862","695918","905507","11.141605","3.782140","0.021118","729151","883533","762875","7.438239","2.521175","0.024322","830157","893182","815515","5.999106","2.060747","0.020943","827460","914968","862449","4.659661","1.662266","-0.006174","712967","844880","952663","2.773168","0.872598","0.000000","2243","2699","2934","2121","2431","2590","1924","2105","2200","1725","1694","1677","1648","1298","1648",""
"MA200-0416","32854","96","1","1.10","1.4","2023-05-31T14:45:00","120","2023/05/31","14:45:00","-15.79577374458313","35.002965999534354","0.0","15","30","64","60","-24868","-1272","955","15","150","149.96","115.00","34.97","29.12","34.3","11.80","90372","28.69","DUALSPOT-UV-BLUE-GREEN-RED-IR","736083","696301","906140","11.181675","3.797207","0.023589","729887","884594","763872","7.467666","2.531452","0.024561","830748","893960","816280","6.022507","2.068680","0.024754","828561","916290","863742","4.678647","1.668315","0.014818","713537","845632","953568","2.785324","0.877088","0.000000","2046","2530","2779","1896","2178","2323","1689","1883","1985","1656","1735","1779","1476","1793","1476",""
"MA200-0416","32855","96","1","1.10","1.4","2023-05-31T14:45:30","120","2023/05/31","14:45:30","-15.795776307582855","35.00297349970788","0.0","15","30","64","60","-25016","-1184","863","15","150","150.28","114.92","35.36","29.11","34.3","11.75","90376","28.63","DUALSPOT-UV-BLUE-GREEN-RED-IR","735473","695942","905820","11.225721","3.811651","0.008053","729098","883849","763315","7.498735","2.541376","0.007240","830524","893860","816276","6.047755","2.075535","-0.036116","827331","915070","862624","4.699589","1.674645","-0.006039","713607","845797","953789","2.799083","0.880299","0.000000","2251","2399","2474","2004","2080","2119","1824","1609","1497","1828","1795","1777","1672","1268","1672",""
"MA200-0416","32856","96","1","1.10","1.4","2023-05-31T14:46:00","120","2023/05/31","14:46:00","-15.795782625675201","35.00296783307567","0.0","15","30","64","60","-24908","-1196","951","15","150","150.05","114.72","35.32","29.11","34.2","11.74","90376","28.63","DUALSPOT-UV-BLUE-GREEN-RED-IR","732359","693136","902306","11.263664","3.826887","0.028001","726117","880382","760412","7.528279","2.552086","0.028116","828541","891873","814503","6.072813","2.084595","0.034536","825066","912644","860419","4.718507","1.681524","0.046487","711837","843765","951529","2.812233","0.884736","0.000000","1942","2533","2837","1909","2247","2421","1813","2129","2294","1654","1953","2119","1601","1754","1601",""
"MA200-0416","32857","96","1","1.10","1.4","2023-05-31T14:46:30","120","2023/05/31","14:46:30","-15.795775294303894","35.00297149945982","0.1","15","30","64","60","-24916","-1348","1000","15","150","149.32","115.37","33.94","29.08","34.2","11.70","90376","28.56","DUALSPOT-UV-BLUE-GREEN-RED-IR","738906","699479","910722","11.303194","3.841331","0.023730","726939","881570","761497","7.557206","2.562303","0.030789","829131","892661","815292","6.095952","2.091521","0.004214","826164","913991","861720","4.737369","1.687276","0.011333","712198","844266","952111","2.824615","0.887464","0.000000","2012","2499","2750","1858","2231","2422","1665","1693","1708","1640","1700","1733","1499","1122","1499",""
"MA200-0416","32858","96","1","1.10","1.4","2023-05-31T14:47:00","120","2023/05/31","14:47:00","-15.795770645141602","35.00297416630201","0.1","15","30","64","60","-25032","-1268","1112","15","150","150.35","115.34","35.02","29.07","34.1","11.67","90372","28.56","DUALSPOT-UV-BLUE-GREEN-RED-IR","737948","698775","909901","11.342049","3.855690","0.021827","726360","881058","761140","7.586843","2.572107","0.015741","828601","892233","815002","6.121689","2.102011","0.055997","830557","918972","866516","4.757601","1.694744","0.052771","711465","843499","951269","2.837207","0.891873","0.000000","1978","2408","2629","1904","2075","2163","1852","2487","2819","1759","2139","2349","1525","1758","1525",""
"MA200-0416","32859","96","1","1.10","1.4","2023-05-31T14:47:30","120","2023/05/31","14:47:30","-15.795774400234222","35.0029628330376","0.0","15","30","64","60","-25052","-1292","988","15","150","149.90","114.80","35.10","29.05","34.1","11.65","90372","28.56","DUALSPOT-UV-BLUE-GREEN-RED-IR","736282","697374","908198","11.380945","3.867548","-0.000386","725350","879960","760263","7.614763","2.581358","0.014755","827418","891103","813992","6.143773","2.108413","-0.013940","830359","918867","866436","4.773235","1.699083","-0.035008","711236","843261","951053","2.849008","0.895129","0.000000","1990","1984","1981","1803","1953","2031","1597","1514","1471","1366","1240","1170","1436","1295","1436",""
"MA200-0416","32860","96","1","1.10","1.4","2023-05-31T14:48:00","120","2023/05/31","14:48:00","-15.795773565769196","35.00295849982649","0.0","15","30","64","60","-24964","-1296","640","15","150","150.36","115.00","35.36","29.04","34.1","11.64","90372","28.50","DUALSPOT-UV-BLUE-GREEN-RED-IR","735792","697108","908009","11.422022","3.883600","0.025473","729881","885664","765264","7.644417","2.591920","0.025273","826737","890510","813532","6.168580","2.116632","0.017083","828667","917120","864847","4.792591","1.705598","0.026709","710455","842424","950120","2.861166","0.899429","0.000000","2098","2666","2958","1911","2214","2369","1791","1929","2001","1688","1848","1936","1476","1698","1476",""
"MA200-0416","32861","96","1","1.10","1.4","2023-05-31T14:48:30","120","2023/05/31","14:48:30","-15.79576313495636","35.002952499780804","0.2","15","30","64","60","-25028","-1420","963","15","150","149.96","114.68","35.28","29.04","34.2","11.66","90376","28.50","DUALSPOT-UV-BLUE-GREEN-RED-IR","735388","696912","907890","11.469044","3.899631","0.012270","729045","884859","764659","7.679404","2.602184","-0.009869","826765","890708","813797","6.197065","2.125644","0.006663","828299","916878","864714","4.817091","1.713073","-0.002756","714619","847462","955872","2.875974","0.902537","0.000000","2408","2668","2802","2261","2156","2102","2062","2120","2151","2143","2125","2115","1803","1230","1803",""
