"Serial number","Datum ID","Session ID","Data format version","Firmware version","App version","Date / time local","Timezone offset (mins)","Date local (yyyy/MM/dd)","Time local (hh:mm:ss)","GPS lat (ddmm.mmmmm)","GPS long (dddmm.mmmmm)","GPS speed (km/h)","GPS sat count","Timebase (s)","Status","Battery remaining (%)","Accel X","Accel Y","Accel Z","Tape position","Flow setpoint (mL/min)","Flow total (mL/min)","Flow1 (mL/min)","Flow2 (mL/min)","Sample temp (C)","Sample RH (%)","Sample dewpoint (C)","Internal pressure (Pa)","Internal temp (C)","Optical config","UV Sen1","UV Sen2","UV Ref","UV ATN1","UV ATN2","UV K","Blue Sen1","Blue Sen2","Blue Ref","Blue ATN1","Blue ATN2","Blue K","Green Sen1","Green Sen2","Green Ref","Green ATN1","Green ATN2","Green K","Red Sen1","Red Sen2","Red Ref","Red ATN1","Red ATN2","Red K","IR Sen1","IR Sen2","IR Ref","IR ATN1","IR ATN2","IR K","UV BC1","UV BC2","UV BCc","Blue BC1","Blue BC2","Blue BCc","Green BC1","Green BC2","Green BCc","Red BC1","Red BC2","Red BCc","IR BC1","IR BC2","IR BCc","Readable status"
"MA200-0416","28606","86","1","1.10","1.4","2023-05-26T15:01:31","120","2023/05/26","15:01:31","-15.795593321323395","35.00274433288723","0.8","13","30","66","21","-4096","3576","-24788","4","150","147.51","114.18","33.33","28.99","34.9","11.93","90228","28.56","DUALSPOT-UV-BLUE-GREEN-RED-IR","882752","764193","940590","0.000000","0.000000","0.000000","806653","923927","766446","0.000000","0.000000","0.000000","898949","924587","816082","0.000000","0.000000","0.000000","880120","940248","862419","0.000000","0.000000","0.000000","747006","862653","954244","0.000000","0.000000","0.000000","","","","","","","","","","","","","","","","Start up"
"MA200-0416","28607","86","1","1.10","1.4","2023-05-26T15:02:01","120","2023/05/26","15:02:01","-15.795763611793518","35.00296916603111","0.4","13","30","66","21","-6540","5740","-23772","4","150","149.73","117.00","32.73","29.00","35.9","12.37","90236","28.88","DUALSPOT-UV-BLUE-GREEN-RED-IR","850784","737172","907548","0.000000","0.000000","0.000000","803375","920702","763929","0.000000","0.000000","0.000000","898303","924376","816028","0.000000","0.000000","0.000000","881633","942218","864340","0.000000","0.000000","0.000000","746734","862589","954204","0.000000","0.000000","0.000000","","","","","","","","","","","","","","","","Start up"
"MA200-0416","28608","86","1","1.10","1.4","2023-05-26T15:02:31","120","2023/05/26","15:02:31","-15.795789122581482","35.00296949944459","0.1","13","30","66","21","1719","8556","-24700","4","150","149.63","116.83","32.81","29.01","36.6","12.68","90228","29.06","DUALSPOT-UV-BLUE-GREEN-RED-IR","847270","734695","904804","0.000000","0.000000","0.000000","801838","919361","762966","0.000000","0.000000","0.000000","896634","922991","814933","0.000000","0.000000","0.000000","881176","942025","864300","0.000000","0.000000","0.000000","745533","861391","952980","0.000000","0.000000","0.000000","","","","","","","","","","","","","","","","Start up"
"MA200-0416","28609","86","1","1.10","1.4","2023-05-26T15:03:01","120","2023/05/26","15:03:01","-15.795787990093231","35.002964166458696","0.0","13","30","66","21","-7040","-5160","-25160","4","150","150.63","117.59","33.04","29.03","36.8","12.77","90232","29.13","DUALSPOT-UV-BLUE-GREEN-RED-IR","845627","733882","904040","0.000000","0.000000","0.000000","801652","919630","763340","0.000000","0.000000","0.000000","894969","921670","813861","0.000000","0.000000","0.000000","877470","938363","861039","0.000000","0.000000","0.000000","743704","859448","950908","0.000000","0.000000","0.000000","","","","","","","","","","","","","","","","Start up"
"MA200-0416","28610","86","1","1.10","1.4","2023-05-26T15:03:31","120","2023/05/26","15:03:31","-15.795796155929565","35.002941666636616","0.0","13","30","66","20","-6952","-4952","-25280","4","150","150.29","117.14","33.15","29.06","36.9","12.87","90232","29.25","DUALSPOT-UV-BLUE-GREEN-RED-IR","843855","732942","903124","0.000000","0.000000","0.000000","800310","918578","762595","0.000000","0.000000","0.000000","894881","921915","814210","0.000000","0.000000","0.000000","878292","939537","862177","0.000000","0.000000","0.000000","743719","859674","951261","0.000000","0.000000","0.000000","","","","","","","","","","","","","","","","Start up"
"MA200-0416","28611","86","1","1.10","1.4","2023-05-26T15:04:01","120","2023/05/26","15:04:01","-15.795803844928741","35.00293666636571","0.0","13","30","64","21","-6873","-5150","-24407","4","150","150.36","117.10","33.25","29.11","37.2","12.99","90232","29.25","DUALSPOT-UV-BLUE-GREEN-RED-IR","845727","735115","906105","0.000000","0.000000","0.000000","801280","920144","763991","0.000000","0.000000","0.000000","895613","923042","815275","0.000000","0.000000","0.000000","879857","941492","864043","0.000000","0.000000","0.000000","744665","860944","952703","0.000000","0.000000","0.000000","","","","","","","","","","","","","","","",""
"MA200-0416","28612","86","1","1.10","1.4","2023-05-26T15:04:31","120","2023/05/26","15:04:31","-15.795803487300873","35.00294666667469","0.0","13","30","64","21","-6956","-5072","-24720","4","150","149.45","116.91","32.54","29.14","37.3","13.07","90232","29.25","DUALSPOT-UV-BLUE-GREEN-RED-IR","843725","733972","904888","0.107548","0.029096","0.000000","800631","919836","763841","0.066381","0.018495","0.000000","893596","921368","813886","0.050718","0.012302","0.000000","877855","939623","862396","0.037348","0.009017","0.000000","743239","859460","951123","0.027759","0.007321","0.000000","5403","5252","5403","4209","4213","4209","3601","3138","3601","3205","2780","3205","3317","3143","3317",""
"MA200-0416","28613","86","1","1.10","1.4","2023-05-26T15:05:01","120","2023/05/26","15:05:01","-15.795803666114807","35.00295416638255","0.0","13","30","64","20","-6788","-5000","-24648","4","150","150.14","116.92","33.23","29.16","37.4","13.13","90232","29.19","DUALSPOT-UV-BLUE-GREEN-RED-IR","848061","738293","910479","0.210351","0.055555","0.000000","797715","916875","761535","0.127917","0.034368","0.000000","896723","924889","817125","0.099236","0.025803","0.000000","873587","935330","858536","0.075435","0.019627","0.000000","745857","862679","954727","0.055234","0.013061","0.000000","5164","4677","5164","3901","3541","3901","3445","3373","3445","3268","3203","3268","3282","2413","3282",""
"MA200-0416","28614","86","1","1.10","1.4","2023-05-26T15:05:31","120","2023/05/26","15:05:31","-15.79580569267273","35.00294049968943","0.0","13","30","64","20","-6860","-5248","-24692","4","150","150.35","116.88","33.48","29.16","37.5","13.17","90228","29.19","DUALSPOT-UV-BLUE-GREEN-RED-IR","847592","738470","910981","0.317141","0.082902","0.000000","796912","916431","761315","0.193792","0.052732","0.000000","896526","925020","817339","0.151670","0.040114","0.000000","874875","936933","860112","0.113320","0.029867","0.000000","746139","863196","955359","0.083435","0.019735","0.000000","5366","4798","5366","4178","4066","4178","3724","3549","3724","3252","3068","3252","3370","2785","3370",""
"MA200-0416","28615","86","1","1.10","1.4","2023-05-26T15:06:01","120","2023/05/26","15:06:01","-15.795803666114807","35.00293749966659","0.0","13","30","64","20","-6892","-5224","-24672","4","150","149.70","116.98","32.71","29.17","37.6","13.23","90232","29.13","DUALSPOT-UV-BLUE-GREEN-RED-IR","845848","737524","910079","0.425263","0.111845","0.000000","796065","915843","760994","0.260853","0.070953","0.000000","896022","924850","817321","0.202567","0.054615","0.000000","880832","943589","866339","0.153583","0.041484","0.000000","745109","862186","954318","0.108943","0.025435","0.000000","5428","5196","5428","4249","4129","4249","3612","3680","3612","3452","3563","3452","3046","2434","3046",""
"MA200-0416","28616","86","1","1.10","1.4","2023-05-26T15:06:31","120","2023/05/26","15:06:31","-15.79579746723175","35.002948166336864","0.0","13","30","64","20","-6860","-5196","-24704","4","150","150.22","117.12","33.10","29.18","37.7","13.26","90232","29.13","DUALSPOT-UV-BLUE-GREEN-RED-IR","842036","734824","906978","0.536070","0.141557","0.000000","798875","919575","764187","0.328713","0.090307","0.000000","893964","923092","815868","0.257033","0.070107","0.000000","879859","942815","865721","0.193566","0.053446","0.000000","744651","861818","953985","0.136903","0.031744","0.000000","5557","5272","5557","4295","4334","4295","3860","3885","3860","3425","3625","3425","3334","2662","3334",""
"MA200-0416","28617","86","1","1.10","1.4","2023-05-26T15:07:01","120","2023/05/26","15:07:01","-15.795796036720276","35.00295549980365","0.0","13","30","64","20","-6936","-5320","-25136","4","150","149.26","116.69","32.58","29.18","37.7","13.29","90232","29.13","DUALSPOT-UV-BLUE-GREEN-RED-IR","838479","732263","904045","0.637683","0.166824","0.000000","795943","916615","761878","0.392073","0.106382","0.000000","891713","921086","814245","0.307941","0.084669","0.000000","876491","939461","862707","0.231122","0.063758","0.000000","742484","859496","951440","0.161630","0.036271","0.000000","5114","4555","5114","4025","3658","4025","3622","3711","3622","3229","3175","3229","2960","1941","2960",""
"MA200-0416","28618","86","1","1.10","1.4","2023-05-26T15:07:31","120","2023/05/26","15:07:31","-15.795814633369446","35.00295766652562","0.0","13","30","64","20","-6828","-5188","-24772","4","150","149.67","117.01","32.66","29.18","37.8","13.31","90232","29.13","DUALSPOT-UV-BLUE-GREEN-RED-IR","839211","733473","905804","0.741200","0.194759","0.000000","796975","918241","763373","0.457102","0.125581","0.000000","891497","921217","814478","0.358343","0.098318","0.000000","876658","939915","863242","0.271952","0.075852","0.000000","742672","859872","951941","0.185617","0.041877","0.000000","5196","5023","5196","4119","4357","4119","3576","3469","3576","3500","3714","3500","2863","2397","2863",""
"MA200-0416","28619","86","1","1.10","1.4","2023-05-26T15:08:01","120","2023/05/26","15:08:01","-15.795811533927917","35.00296449987218","0.1","13","30","64","20","-6840","-5220","-25332","4","150","149.40","117.66","31.74","29.17","37.8","13.31","90232","29.13","DUALSPOT-UV-BLUE-GREEN-RED-IR","836875","731980","904215","0.845275","0.222114","0.000000","795278","916730","762239","0.524860","0.143802","0.000000","891108","921152","814551","0.411987","0.114440","0.000000","876167","939663","863117","0.313526","0.088870","0.000000","742506","859847","951945","0.213550","0.049161","0.000000","5195","5062","5195","4269","4255","4269","3785","4217","3785","3545","4114","3545","3316","3205","3316",""
"MA200-0416","28620","86","1","1.10","1.4","2023-05-26T15:08:31","120","2023/05/26","15:08:31","-15.795814454555511","35.002979499520734","0.0","13","30","64","20","-6764","-5156","-24884","4","150","149.91","117.24","32.67","29.17","37.9","13.35","90236","29.06","DUALSPOT-UV-BLUE-GREEN-RED-IR","836929","732574","905157","0.944430","0.246593","0.000000","794828","916642","762287","0.588142","0.160713","0.000000","890959","921347","814810","0.462115","0.126821","0.000000","875368","939089","862685","0.351792","0.098531","0.000000","742380","859877","952050","0.236141","0.053874","0.000000","4967","4400","4967","4001","3837","4001","3549","3146","3549","3274","2967","3274","2691","2015","2691",""
"MA200-0416","28621","86","1","1.10","1.4","2023-05-26T15:09:01","120","2023/05/26","15:09:01","-15.795807778835297","35.00296483305283","0.0","13","30","64","20","-6620","-5180","-24928","4","150","149.70","116.96","32.75","29.16","38.0","13.38","90236","29.06","DUALSPOT-UV-BLUE-GREEN-RED-IR","835216","731647","904206","1.044434","0.271120","0.000000","793648","915731","761650","0.650888","0.175029","0.000000","890330","921058","814671","0.513071","0.140387","0.000000","874786","938745","862445","0.390404","0.108611","0.000000","741890","859481","951680","0.260326","0.060447","0.000000","5022","4399","5022","3977","3240","3977","3617","3439","3617","3312","3087","3312","2888","2803","2888",""
"MA200-0416","28622","86","1","1.10","1.4","2023-05-26T15:09:31","120","2023/05/26","15:09:31","-15.795801162719727","35.00296983262524","0.0","13","30","64","20","-6836","-5128","-24992","4","150","150.24","116.97","33.27","29.16","38.0","13.39","90240","29.06","DUALSPOT-UV-BLUE-GREEN-RED-IR","833906","731181","903926","1.163176","0.302515","0.000000","793310","915896","761985","0.731653","0.197774","0.000000","888761","919896","813773","0.578278","0.158762","0.000000","873045","937202","861170","0.440198","0.123154","0.000000","740935","858580","950745","0.292518","0.067429","0.000000","5962","5542","5962","5118","5068","5118","4628","4585","4628","4270","4385","4270","3844","2931","3844",""
"MA200-0416","28623","86","1","1.10","1.4","2023-05-26T15:10:01","120","2023/05/26","15:10:01","-15.795806527137756","35.00294949952513","0.0","13","30","64","19","-6908","-5120","-24880","4","150","149.96","117.02","32.94","29.15","38.1","13.41","90236","29.06","DUALSPOT-UV-BLUE-GREEN-RED-IR","837425","734924","908903","1.293676","0.335563","0.000000","795129","918583","764363","0.819528","0.220626","0.000000","891416","923110","816803","0.651294","0.177288","0.000000","876611","941432","865174","0.497818","0.137567","0.000000","739026","856580","948585","0.328359","0.076090","0.000000","6549","5893","6549","5566","5143","5566","5180","4669","5180","4939","4390","4939","4278","3673","4278",""
"MA200-0416","28624","86","1","1.10","1.4","2023-05-26T15:10:31","120","2023/05/26","15:10:31","-15.795813977718353","35.00293233292177","0.0","13","30","64","20","-6708","-4960","-25320","4","150","150.16","117.10","33.06","29.15","38.2","13.44","90240","29.00","DUALSPOT-UV-BLUE-GREEN-RED-IR","830780","729781","902788","1.417715","0.367908","0.000000","796001","920136","765865","0.904435","0.243486","0.000000","886998","918981","813283","0.717652","0.195343","0.000000","877465","942696","866468","0.549691","0.152480","0.000000","739734","857606","949829","0.361736","0.086295","0.000000","6221","5747","6221","5375","5126","5375","4704","4534","4704","4444","4526","4444","3981","4312","3981",""
"MA200-0416","28625","86","1","1.10","1.4","2023-05-26T15:11:01","120","2023/05/26","15:11:01","-15.795802474021912","35.002932999515906","0.0","13","30","64","19","-6843","-5264","-24800","4","150","149.90","117.38","32.51","29.13","38.2","13.42","90244","29.06","DUALSPOT-UV-BLUE-GREEN-RED-IR","836771","735667","910385","1.537303","0.399915","0.000000","794398","918823","764925","0.984090","0.264377","0.000000","891006","923552","817474","0.782603","0.214249","0.000000","877644","943213","867060","0.601351","0.167220","0.000000","739642","857727","950059","0.395032","0.094718","0.000000","5983","5782","5983","5030","4763","5030","4593","4827","4593","4415","4548","4415","3962","3619","3962",""
"MA200-0416","28626","86","1","1.10","1.4","2023-05-26T15:11:31","120","2023/05/26","15:11:31","-15.795797646045685","35.002941332990304","0.0","13","30","64","19","-6787","-5183","-24641","4","150","149.73","117.25","32.48","29.13","38.2","13.42","90244","29.00","DUALSPOT-UV-BLUE-GREEN-RED-IR","835667","735249","910082","1.637888","0.425672","0.000000","794204","919036","765230","1.049387","0.283134","0.000000","889764","922646","816755","0.834059","0.227863","0.000000","876177","941930","865942","0.640594","0.178640","0.000000","743624","862517","955408","0.420358","0.100397","0.000000","5038","4658","5038","4128","4281","4128","3643","3480","3643","3357","3527","3357","3017","2442","3017",""
"MA200-0416","28627","86","1","1.10","1.4","2023-05-26T15:12:01","120","2023/05/26","15:12:01","-15.795795202255249","35.00294316629879","0.0","13","30","64","19","-6668","-5136","-24960","4","150","149.57","116.91","32.66","29.12","38.2","13.41","90248","29.00","DUALSPOT-UV-BLUE-GREEN-RED-IR","834494","734699","909622","1.732050","0.449697","0.000000","793454","918554","764962","1.109111","0.298667","0.000000","884799","917783","812571","0.881607","0.239789","0.000000","875556","941477","865638","0.678592","0.188040","0.000000","743528","862545","955504","0.443012","0.105559","0.000000","4730","4320","4730","3787","3525","3787","3376","3031","3376","3260","2887","3260","2706","2208","2706",""
"MA200-0416","28628","86","1","1.10","1.4","2023-05-26T15:12:31","120","2023/05/26","15:12:31","-15.795793354511261","35.002948333043605","0.0","13","30","64","19","-6679","-5020","-25080","4","150","149.66","117.17","32.49","29.12","38.2","13.41","90244","29.00","DUALSPOT-UV-BLUE-GREEN-RED-IR","833974","734716","909848","1.819827","0.473400","0.000000","792482","917814","764421","1.166707","0.314188","0.000000","889897","923395","817651","0.927186","0.253129","0.000000","875587","941771","865973","0.711995","0.197332","0.000000","743649","862831","955837","0.463739","0.111013","0.000000","4400","4284","4400","3644","3541","3644","3229","3408","3229","2860","2869","2860","2471","2344","2471",""
"MA200-0416","28629","86","1","1.10","1.4","2023-05-26T15:13:01","120","2023/05/26","15:13:01","-15.795786023139954","35.00294499984011","0.0","13","30","64","19","-6800","-5236","-25352","4","150","149.90","117.14","32.75","29.11","38.2","13.40","90244","29.00","DUALSPOT-UV-BLUE-GREEN-RED-IR","832209","733642","908737","1.908995","0.496200","0.000000","791644","917231","764069","1.222914","0.329017","0.000000","888786","922523","816982","0.971115","0.264877","0.000000","874352","940667","865058","0.746929","0.206810","0.000000","743057","862262","955257","0.484994","0.115900","0.000000","4470","4088","4470","3556","3356","3556","3113","2978","3113","2991","2903","2991","2534","2084","2534",""
"MA200-0416","28630","86","1","1.10","1.4","2023-05-26T15:13:31","120","2023/05/26","15:13:31","-15.795806527137756","35.002932832809165","0.0","13","30","64","19","-6792","-5104","-24804","4","150","149.40","116.88","32.52","29.11","38.1","13.39","90248","29.00","DUALSPOT-UV-BLUE-GREEN-RED-IR","831504","733505","908785","1.995689","0.518981","0.000000","791505","917404","764317","1.276153","0.343902","0.000000","888340","922352","816927","1.014078","0.276077","0.000000","873539","940011","864565","0.778752","0.216436","0.000000","742727","862001","955038","0.504396","0.119822","0.000000","4356","4114","4356","3376","3392","3376","3051","2859","3051","2731","2969","2731","2318","1684","2318",""
"MA200-0416","28631","86","1","1.10","1.4","2023-05-26T15:14:01","120","2023/05/26","15:14:01","-15.795803189277649","35.00295083317906","0.0","13","30","64","19","-6792","-5184","-25116","4","150","149.85","116.85","33.01","29.09","38.1","13.35","90248","29.00","DUALSPOT-UV-BLUE-GREEN-RED-IR","828834","731626","906617","2.079224","0.540414","0.000000","789716","915704","763024","1.327711","0.357355","0.000000","886601","920796","815629","1.054567","0.287789","0.000000","871379","937904","862662","0.809812","0.224065","0.000000","741369","860545","953450","0.524768","0.125634","0.000000","4199","3813","4199","3271","3021","3271","2876","2945","2876","2666","2318","2666","2435","2459","2435",""
"MA200-0416","28632","86","1","1.10","1.4","2023-05-26T15:14:31","120","2023/05/26","15:14:31","-15.79580283164978","35.00297133275308","0.0","13","30","64","19","-6752","-5304","-24972","4","150","149.90","117.26","32.63","29.08","38.0","13.33","90248","29.00","DUALSPOT-UV-BLUE-GREEN-RED-IR","829223","732400","907809","2.165375","0.563402","0.000000","790133","916540","763814","1.380849","0.371337","0.000000","886792","921294","816179","1.096028","0.297850","0.000000","873176","940015","864707","0.840753","0.232988","0.000000","742331","861788","954891","0.543458","0.129953","0.000000","4315","4137","4315","3359","3176","3359","2935","2559","2935","2647","2743","2647","2226","1848","2226",""
"MA200-0416","28633","86","1","1.10","1.4","2023-05-26T15:15:01","120","2023/05/26","15:15:01","-15.795788824558258","35.00296099972911","0.0","13","30","64","19","-6792","-5332","-24400","4","150","149.45","117.02","32.42","29.07","38.0","13.32","90248","29.00","DUALSPOT-UV-BLUE-GREEN-RED-IR","829714","733317","909139","2.251456","0.585760","0.000000","789978","916706","764061","1.433819","0.384201","0.000000","887509","922321","817134","1.136529","0.308115","0.000000","873485","940595","865284","0.870460","0.240575","0.000000","742854","862493","955713","0.561676","0.134192","0.000000","4320","4050","4320","3355","2941","3355","2873","2628","2873","2546","2347","2546","2174","1826","2174",""
"MA200-0416","28634","86","1","1.10","1.4","2023-05-26T15:15:31","120","2023/05/26","15:15:31","-15.79577910900116","35.002954832976684","0.0","13","30","64","19","-6740","-5280","-25288","4","150","150.21","117.21","33.00","29.06","38.0","13.28","90248","28.94","DUALSPOT-UV-BLUE-GREEN-RED-IR","827816","732103","907830","2.335179","0.606098","0.000000","789463","916436","763923","1.484144","0.396675","0.000000","886378","921408","816438","1.176059","0.318730","0.000000","871774","938976","863860","0.901657","0.247966","0.000000","741966","861632","954771","0.578620","0.138102","0.000000","4195","3619","4195","3182","2801","3182","2799","2670","2799","2670","2246","2670","2019","1655","2019",""
"MA200-0416","28635","86","1","1.10","1.4","2023-05-26T15:16:01","120","2023/05/26","15:16:01","-15.795781433582306","35.002956833224744","0.0","13","30","64","18","-6772","-5240","-25252","4","150","149.70","117.02","32.67","29.06","38.0","13.28","90248","28.94","DUALSPOT-UV-BLUE-GREEN-RED-IR","824857","729891","905302","2.416750","0.627504","0.000000","787137","914089","762074","1.535165","0.410522","0.000000","884195","919387","814705","1.215314","0.328421","0.000000","869428","936628","861757","0.931251","0.256102","0.000000","740258","859735","952716","0.597450","0.142211","0.000000","4094","3848","4094","3232","3141","3232","2784","2462","2784","2537","2498","2537","2247","1756","2247",""
"MA200-0416","28636","86","1","1.10","1.4","2023-05-26T15:16:31","120","2023/05/26","15:16:31","-15.79577648639679","35.0029621666763","0.0","13","30","64","19","-6820","-5312","-24988","4","150","149.90","116.95","32.95","29.05","37.9","13.26","90244","28.94","DUALSPOT-UV-BLUE-GREEN-RED-IR","825907","731267","907176","2.496278","0.647272","0.000000","788150","915612","763458","1.583630","0.424940","0.000000","885603","921109","816338","1.254147","0.339610","0.000000","871193","938734","863763","0.960308","0.264083","0.000000","741724","861548","954800","0.615596","0.147614","0.000000","3994","3523","3994","3072","3243","3072","2756","2819","2756","2492","2430","2492","2167","2290","2167",""
"MA200-0416","28637","86","1","1.10","1.4","2023-05-26T15:17:01","120","2023/05/26","15:17:01","-15.795774400234222","35.00295549980365","0.0","13","30","64","18","-6669","-5065","-24865","4","150","149.63","116.87","32.77","29.04","37.9","13.23","90244","28.94","DUALSPOT-UV-BLUE-GREEN-RED-IR","825570","731415","907572","2.578779","0.670936","0.000000","787695","915373","763369","1.635206","0.438434","0.000000","885013","920785","816126","1.293826","0.349783","0.000000","870677","938379","863510","0.989407","0.271432","0.000000","741068","860893","954092","0.632114","0.150520","0.000000","4146","4242","4146","3271","3053","3271","2818","2577","2818","2498","2250","2498","1974","1238","1974",""
"MA200-0416","28638","86","1","1.10","1.4","2023-05-26T15:17:31","120","2023/05/26","15:17:31","-15.795778155326843","35.002952999668196","0.0","13","30","64","18","-6824","-5216","-25048","4","150","149.67","117.12","32.55","29.04","37.9","13.23","90248","28.94","DUALSPOT-UV-BLUE-GREEN-RED-IR","822297","728956","904709","2.661216","0.692369","0.000000","784860","912468","761022","1.685375","0.450963","0.000000","883054","919018","814651","1.333236","0.359929","0.000000","868909","936683","862038","1.019352","0.279992","0.000000","739967","859764","952865","0.651756","0.155343","0.000000","4134","3867","4134","3175","2853","3175","2793","2587","2793","2565","2638","2565","2342","2069","2342",""
"MA200-0416","28639","86","1","1.10","1.4","2023-05-26T15:18:01","120","2023/05/26","15:18:01","-15.79578012228012","35.002943833125755","0.0","13","30","64","18","-6688","-5180","-24748","4","150","149.40","117.29","32.11","29.03","37.9","13.22","90244","28.94","DUALSPOT-UV-BLUE-GREEN-RED-IR","823066","730146","906429","2.756810","0.718515","0.000000","786384","914591","762902","1.741660","0.466012","0.000000","884290","920611","816143","1.377534","0.371492","0.000000","869856","937931","863258","1.054453","0.289189","0.000000","740970","861068","954341","0.669887","0.159333","0.000000","4786","4783","4786","3557","3474","3557","3135","2990","3135","3002","2873","3002","2159","1736","2159",""
"MA200-0416","28640","86","1","1.10","1.4","2023-05-26T15:18:31","120","2023/05/26","15:18:31","-15.795772135257721","35.00294033321552","0.1","12","30","64","18","-6752","-5180","-24940","4","150","150.37","117.50","32.87","29.03","37.9","13.22","90248","28.94","DUALSPOT-UV-BLUE-GREEN-RED-IR","821955","730247","907105","2.851797","0.744148","0.000000","785055","914232","762992","1.804006","0.483119","0.000000","883031","919942","815811","1.422846","0.384611","0.000000","868565","936934","862504","1.085734","0.298571","0.000000","740191","860467","953838","0.691631","0.165476","0.000000","4748","4580","4748","3933","3858","3933","3201","3313","3201","2670","2863","2670","2585","2611","2585",""
"MA200-0416","28641","86","1","1.10","1.4","2023-05-26T15:19:01","120","2023/05/26","15:19:01","-15.795767784118652","35.002950666705146","0.1","12","30","64","18","-6700","-5144","-25008","4","150","149.46","117.04","32.42","29.02","37.9","13.23","90248","28.94","DUALSPOT-UV-BLUE-GREEN-RED-IR","780979","718238","903963","7.627762","2.060426","-0.000900","753165","902380","761167","5.734703","1.556278","-0.003493","851213","909239","813799","4.825276","1.303756","-0.007257","842368","927714","860453","3.877352","1.042663","-0.014016","724798","854640","952054","2.592594","0.654712","0.000000","239672","238479","238038","248962","245399","244073","241345","235386","233180","239292","230274","226957","226885","210813","226885",""
"MA200-0416","28642","86","1","1.10","1.4","2023-05-26T15:19:31","120","2023/05/26","15:19:31","-15.795757114887238","35.002943499945104","0.0","12","30","64","18","-6728","-5200","-25028","4","150","149.87","117.34","32.53","29.02","38.0","13.27","90248","28.94","DUALSPOT-UV-BLUE-GREEN-RED-IR","781724","720445","907449","8.007151","2.165723","0.000175","753636","904479","763407","6.040711","1.639230","-0.005224","851953","911419","816176","5.089492","1.372039","-0.020133","843242","929867","862792","4.094628","1.098185","-0.029282","725785","856568","954481","2.741808","0.691685","0.000000","18991","19011","19018","19333","18902","18742","18695","17425","16957","18578","17122","16589","17764","15876","17764",""
"MA200-0416","28643","86","1","1.10","1.4","2023-05-26T15:20:01","120","2023/05/26","15:20:01","-15.795763790607452","35.002966166241094","0.1","12","30","64","18","-5432","-6432","-24920","4","150","150.01","117.50","32.50","29.01","38.2","13.33","90244","28.94","DUALSPOT-UV-BLUE-GREEN-RED-IR","780043","719698","906878","8.149184","2.203518","-0.006757","752639","903955","763141","6.142257","1.663572","-0.036474","850254","910168","815207","5.172903","1.391983","-0.044062","842790","929797","862861","4.162541","1.113772","-0.072806","724978","855886","953766","2.786222","0.700450","0.000000","7099","6829","6729","6406","5551","5234","5893","5093","4799","5798","4810","4450","5280","3767","5280",""
"MA200-0416","28644","86","1","1.10","1.4","2023-05-26T15:20:31","120","2023/05/26","15:20:31","-15.79578024148941","35.002968832850456","0.0","13","30","64","18","-5665","-6534","-25007","4","150","149.43","116.93","32.50","29.02","38.4","13.41","90244","28.94","DUALSPOT-UV-BLUE-GREEN-RED-IR","763755","716229","907634","9.534288","2.555942","-0.013693","744230","901481","762784","6.855996","1.809335","-0.082140","844773","910234","816414","5.718369","1.489127","-0.165146","838414","929847","863780","4.588810","1.182508","-0.283687","722776","856317","954789","3.059158","0.738504","-0.625978","69575","63694","61541","45250","33250","28947","38728","24817","19918","36574","21219","15889","32607","16357","11186",""
"MA200-0416","28645","86","1","1.10","1.4","2023-05-26T15:21:01","120","2023/05/26","15:21:01","-15.795775651931763","35.00296316645108","0.1","13","30","64","18","-5608","-6560","-25116","4","150","149.87","116.92","32.95","29.03","38.4","13.44","90240","28.94","DUALSPOT-UV-BLUE-GREEN-RED-IR","751922","712398","906403","11.802898","3.178690","-0.003116","739603","900329","762863","7.860547","2.030815","-0.052841","839432","908087","815330","6.481892","1.636970","-0.111085","834075","928240","862941","5.213792","1.290488","-0.203005","719926","855145","953901","3.499162","0.800969","-0.515981","113967","111012","109924","63694","49831","45002","54217","37252","31520","53629","32879","26053","52572","26483","18738",""
"MA200-0416","28646","86","1","1.10","1.4","2023-05-26T15:21:31","120","2023/05/26","15:21:31","-15.795783340930939","35.002979666227475","0.0","13","30","64","18","-5800","-6447","-25276","4","150","149.94","117.00","32.93","29.03","38.5","13.48","90244","28.94","DUALSPOT-UV-BLUE-GREEN-RED-IR","752031","712537","906692","11.822929","3.191412","0.053494","739367","900273","762931","7.907424","2.045942","0.020856","839621","908588","815874","6.527800","1.650691","0.011695","833639","928014","862799","5.252967","1.300507","-0.026314","720096","855518","954358","3.529548","0.807672","-0.110437","1005","2268","2735","2970","3404","3556","3257","3458","3526","3359","3052","2951","3627","2843","2610",""
"MA200-0416","28647","86","1","1.10","1.4","2023-05-26T15:22:01","120","2023/05/26","15:22:01","-15.795792400836945","35.002968832850456","0.0","13","30","64","18","-5676","-6396","-25138","4","150","149.33","117.42","31.90","29.03","38.5","13.48","90244","28.94","DUALSPOT-UV-BLUE-GREEN-RED-IR","751438","712086","906316","11.860207","3.212562","0.050489","738980","900018","762883","7.952440","2.065296","0.055368","838860","907959","815450","6.566430","1.666367","0.060631","833286","927770","862718","5.285345","1.314687","0.084928","719400","854722","953678","3.552616","0.821569","0.172530","1864","3893","4647","2842","4497","5077","2731","4079","4538","2766","4459","5019","2744","6085","7089",""
"MA200-0416","28648","86","1","1.10","1.4","2023-05-26T15:22:31","120","2023/05/26","15:22:31","-15.795791327953339","35.002948832931","0.0","13","30","64","17","-5524","-6436","-25092","4","150","149.76","117.34","32.42","29.03","38.5","13.47","90244","28.88","DUALSPOT-UV-BLUE-GREEN-RED-IR","751211","712070","906470","11.904369","3.231969","0.037608","738549","899762","762786","7.997182","2.081932","0.039833","838807","908131","815703","6.603832","1.680577","0.050684","833190","927840","862869","5.316351","1.326310","0.060605","719817","855361","954425","3.574779","0.831373","0.122856","2210","3515","4002","2826","3803","4147","2646","3638","3977","2650","3596","3911","2638","4224","4704",""
"MA200-0416","28649","86","1","1.10","1.4","2023-05-26T15:23:01","120","2023/05/26","15:23:01","-15.795786559581757","35.002948499750346","0.0","13","30","64","18","-5472","-6348","-25300","4","150","150.35","117.21","33.14","29.03","38.5","13.48","90244","28.88","DUALSPOT-UV-BLUE-GREEN-RED-IR","750384","711637","906145","11.976482","3.255493","0.014547","737890","899287","762485","8.049555","2.096523","-0.002520","838318","907894","815580","6.645882","1.691729","-0.013667","832290","927087","862212","5.348885","1.334321","-0.038875","718940","854472","953499","3.596809","0.836546","-0.078779","3613","4168","4376","3312","3263","3246","2978","2793","2730","2784","2425","2305","2625","2180","2045",""
"MA200-0416","28650","86","1","1.10","1.4","2023-05-26T15:23:31","120","2023/05/26","15:23:31","-15.795776307582855","35.002952499780804","0.0","13","30","64","17","-5776","-6460","-24740","4","150","149.09","117.50","31.58","29.02","38.5","13.48","90244","28.88","DUALSPOT-UV-BLUE-GREEN-RED-IR","748122","709752","903900","12.031742","3.273784","0.020050","736136","897444","761012","8.094303","2.110458","0.021815","836672","906325","814254","6.683374","1.703906","0.032687","829925","924640","860022","5.378799","1.343912","0.038003","717706","853132","952030","3.617273","0.842148","0.006471","2762","3401","3640","2823","3270","3428","2649","3200","3389","2554","3046","3210","2432","2477","2491",""
"MA200-0416","28651","86","1","1.10","1.4","2023-05-26T15:24:01","120","2023/05/26","15:24:01","-15.795776963233948","35.00294933305122","0.0","13","30","64","17","-5656","-6547","-24088","4","150","149.53","117.00","32.52","29.02","38.5","13.47","90240","28.88","DUALSPOT-UV-BLUE-GREEN-RED-IR","748884","710737","905297","12.083935","3.291092","0.017344","736863","898568","762114","8.137529","2.124918","0.026524","837297","907238","815168","6.718565","1.714122","0.008380","832497","927666","862907","5.406399","1.351470","-0.003741","719105","854860","954044","3.635917","0.846631","-0.058806","2620","3125","3314","2738","3295","3492","2497","2608","2646","2366","2331","2319","2226","1925","1833",""
"MA200-0416","28652","86","1","1.10","1.4","2023-05-26T15:24:31","120","2023/05/26","15:24:31","-15.795775294303894","35.002945833140984","0.0","13","30","64","17","-5528","-6384","-25180","4","150","149.53","116.77","32.75","29.02","38.5","13.47","90244","28.88","DUALSPOT-UV-BLUE-GREEN-RED-IR","746289","708563","902675","12.140249","3.306989","0.000729","734800","896353","760313","8.183180","2.136320","-0.021257","835980","906054","814202","6.756694","1.724899","0.001509","830047","925160","860671","5.437603","1.359593","-0.019467","717705","853344","952380","3.655279","0.853255","0.060966","2832","2850","2857","2898","2580","2468","2710","2731","2738","2680","2488","2424","2316","2825","2980",""
"MA200-0416","28653","86","1","1.10","1.4","2023-05-26T15:25:01","120","2023/05/26","15:25:01","-15.795779943466187","35.00294099980965","0.0","13","30","64","17","-5804","-6504","-24752","4","150","150.09","117.38","32.71","29.02","38.5","13.45","90244","28.88","DUALSPOT-UV-BLUE-GREEN-RED-IR","747615","710103","904809","12.199320","3.327526","0.020816","735954","898049","761852","8.228678","2.150821","0.019795","836365","906747","814883","6.794162","1.735252","-0.001689","831044","926467","861951","5.466765","1.366758","-0.034289","718173","854058","953202","3.674881","0.856129","-0.439696","2955","3687","3961","2873","3286","3432","2650","2627","2619","2492","2197","2098","2332","1227","891",""
"MA200-0416","28654","86","1","1.10","1.4","2023-05-26T15:25:31","120","2023/05/26","15:25:31","-15.795777976512909","35.00293999980204","0.0","13","30","64","17","-5768","-6579","-25436","4","150","150.36","117.34","33.02","29.01","38.5","13.44","90244","28.88","DUALSPOT-UV-BLUE-GREEN-RED-IR","747915","710691","905710","12.259710","3.344978","0.002931","735492","897809","761716","8.275161","2.163322","-0.007686","836569","907181","815372","6.832248","1.745438","-0.010419","831186","926831","862370","5.496689","1.374941","-0.007052","718436","854507","953776","3.696048","0.861372","-0.050084","3022","3104","3135","2936","2806","2760","2694","2561","2515","2558","2486","2463","2519","2218","2126",""
"MA200-0416","28655","86","1","1.10","1.4","2023-05-26T15:26:01","120","2023/05/26","15:26:01","-15.79578572511673","35.002946166554466","0.0","13","30","64","17","-5696","-6556","-25104","4","150","149.33","117.54","31.78","29.01","38.5","13.44","90240","28.88","DUALSPOT-UV-BLUE-GREEN-RED-IR","747888","710946","906232","12.320848","3.364368","0.015593","731153","892770","757568","8.319367","2.176494","0.014578","836516","907383","815618","6.868935","1.756460","0.018895","830276","925979","861625","5.524989","1.383614","0.027313","718172","854295","953585","3.713930","0.866242","0.002528","3055","3583","3781","2788","3072","3172","2591","2878","2977","2415","2737","2844","2125","2140","2145",""
"MA200-0416","28656","86","1","1.10","1.4","2023-05-26T15:26:31","120","2023/05/26","15:26:31","-15.795789361000061","35.00295833335258","0.1","13","30","64","16","-5760","-6588","-24780","4","150","149.80","117.59","32.21","29.01","38.5","13.45","90240","28.88","DUALSPOT-UV-BLUE-GREEN-RED-IR","744744","708279","902989","12.384539","3.383997","0.011846","733613","896099","760485","8.365508","2.189130","-0.000055","834729","905693","814198","6.907655","1.767147","0.001444","828210","923902","859773","5.555946","1.392179","0.002368","716435","852386","951489","3.734651","0.871418","-0.034846","3181","3578","3728","2908","2908","2907","2733","2754","2761","2641","2667","2676","2461","2244","2178",""
"MA200-0416","28657","86","1","1.10","1.4","2023-05-26T15:27:01","120","2023/05/26","15:27:01","-15.79578983783722","35.002973166061565","0.0","13","30","64","17","-5560","-6472","-25660","4","150","150.18","117.75","32.43","29.01","38.5","13.47","90240","28.88","DUALSPOT-UV-BLUE-GREEN-RED-IR","746082","709841","905179","12.447006","3.403165","0.010919","734714","897718","761984","8.411832","2.202266","0.004600","835375","906615","815147","6.944824","1.777315","-0.001296","829888","925989","861783","5.586231","1.400733","0.005897","717534","853757","953084","3.753084","0.876116","-0.028616","3115","3472","3606","2916","3003","3033","2620","2603","2597","2580","2646","2668","2186","2024","1974",""
"MA200-0416","28658","86","1","1.10","1.4","2023-05-26T15:27:31","120","2023/05/26","15:27:31","-15.795791327953339","35.00297816609964","0.0","13","30","64","17","-5525","-6558","-25761","4","150","150.28","116.79","33.49","29.01","38.6","13.48","90244","28.88","DUALSPOT-UV-BLUE-GREEN-RED-IR","745314","709433","904825","12.508257","3.421545","0.004806","734195","897391","761772","8.456346","2.215309","0.003393","834802","906275","814900","6.982661","1.788229","0.001133","829028","925225","861125","5.614520","1.408683","-0.004829","717127","853400","952701","3.771305","0.880732","-0.047550","3080","3223","3277","2825","2887","2908","2689","2705","2711","2430","2382","2365","2179","1925","1847",""
"MA200-0416","28659","86","1","1.10","1.4","2023-05-26T15:28:01","120","2023/05/26","15:28:01","-15.795781075954437","35.00295899971388","0.0","13","30","64","17","-5732","-6584","-24688","4","150","149.45","117.30","32.14","29.00","38.6","13.47","90240","28.88","DUALSPOT-UV-BLUE-GREEN-RED-IR","744172","708639","903975","12.571093","3.440746","0.010890","733290","896551","761196","8.502365","2.229684","0.018763","834133","905787","814551","7.019276","1.798570","0.005658","829619","926050","861976","5.643461","1.415830","-0.026907","717425","853902","953348","3.791549","0.886362","0.005008","3146","3508","3645","2908","3315","3460","2591","2671","2698","2475","2230","2148","2410","2446","2457",""
"MA200-0416","28660","86","1","1.10","1.4","2023-05-26T15:28:31","120","2023/05/26","15:28:31","-15.79578322172165","35.002966166241094","0.0","13","30","64","17","-5744","-6420","-24756","4","150","150.08","117.42","32.66","29.00","38.6","13.47","90240","28.88","DUALSPOT-UV-BLUE-GREEN-RED-IR","744780","709530","905296","12.634737","3.459697","0.007017","733201","896720","761416","8.547489","2.242231","-0.000043","834950","906885","815619","7.055712","1.809710","0.016696","829392","926009","861984","5.673463","1.424157","-0.000502","717720","854387","953915","3.811542","0.890368","-0.150595","3183","3408","3493","2848","2848","2847","2576","2832","2920","2563","2558","2556","2378","1713","1511",""
"MA200-0416","28661","86","1","1.10","1.4","2023-05-26T15:29:01","120","2023/05/26","15:29:01","-15.79578983783722","35.00296433316544","0.0","13","30","64","16","-5712","-6504","-25300","4","150","149.91","117.33","32.58","28.99","38.6","13.47","90240","28.88","DUALSPOT-UV-BLUE-GREEN-RED-IR","741587","706801","901970","12.695248","3.477102","0.003695","735752","900138","764427","8.593080","2.254881","-0.000139","832752","904735","813773","7.091725","1.818377","-0.030824","826705","923182","859445","5.700797","1.432263","0.014584","715856","852283","951589","3.828886","0.894615","-0.047665","3029","3137","3178","2880","2878","2877","2548","2208","2091","2337","2496","2549","2065","1820","1746",""
"MA200-0416","28662","86","1","1.10","1.4","2023-05-26T15:29:31","120","2023/05/26","15:29:31","-15.795787394046783","35.0029759996105","0.0","13","30","64","16","-5740","-6568","-24504","4","150","149.56","117.63","31.93","28.99","38.7","13.50","90236","28.81","DUALSPOT-UV-BLUE-GREEN-RED-IR","742716","708197","903931","12.759926","3.498720","0.018940","732310","896229","761205","8.637637","2.268880","0.020375","833038","905303","814332","7.128537","1.828778","0.007307","827417","924191","860441","5.729143","1.439392","-0.019009","716125","852720","952118","3.845972","0.898433","-0.077906","3229","3976","4258","2808","3250","3407","2598","2704","2741","2417","2239","2180","2029","1670","1561",""
"MA200-0416","28663","86","1","1.10","1.4","2023-05-26T15:30:01","120","2023/05/26","15:30:01","-15.795783340930939","35.002977499505505","0.1","13","30","64","17","-5532","-6496","-24128","4","150","150.36","117.14","33.21","28.98","38.7","13.50","90236","28.88","DUALSPOT-UV-BLUE-GREEN-RED-IR","742485","708299","904228","12.824375","3.518198","0.006490","731990","896074","761184","8.684260","2.282674","0.006410","832976","905476","814616","7.166953","1.839864","0.003270","833769","931461","867292","5.757992","1.447611","0.001122","716424","853169","952654","3.866167","0.902760","-0.121053","3231","3444","3524","2950","3078","3124","2722","2771","2787","2470","2482","2486","2408","1819","1640",""
"MA200-0416","28664","86","1","1.10","1.4","2023-05-26T15:30:31","120","2023/05/26","15:30:31","-15.795781433582306","35.0029628330376","0.1","13","30","64","16","-5804","-6540","-24812","4","150","150.28","117.46","32.82","28.97","38.7","13.49","90236","28.81","DUALSPOT-UV-BLUE-GREEN-RED-IR","741723","707916","903985","12.896574","3.539827","0.007007","736300","901708","766091","8.732406","2.296764","0.006902","832446","905153","814419","7.204575","1.850587","0.003632","833047","930870","866827","5.788500","1.455080","-0.034288","715937","852743","952256","3.887111","0.909016","0.021232","3610","3870","3968","3038","3182","3233","2659","2712","2730","2605","2282","2174","2490","2662","2715",""
"MA200-0416","28665","86","1","1.10","1.4","2023-05-26T15:31:01","120","2023/05/26","15:31:01","-15.795781791210175","35.00297033297829","0.0","13","30","64","16","-5484","-6432","-24804","4","150","149.46","117.42","32.04","28.97","38.7","13.48","90236","28.88","DUALSPOT-UV-BLUE-GREEN-RED-IR","738763","705447","901017","12.969166","3.563511","0.016372","733808","898992","763879","8.782784","2.312715","0.020341","831311","904182","813623","7.245398","1.863450","0.023765","831400","929219","865360","5.819315","1.465982","0.048764","715087","851845","951297","3.907039","0.913981","-0.032828","3631","4341","4610","3180","3690","3872","2886","3332","3486","2632","3413","3676","2370","2164","2101",""
"MA200-0416","28666","86","1","1.10","1.4","2023-05-26T15:31:31","120","2023/05/26","15:31:31","-15.795780777931213","35.00295799970627","0.0","13","30","64","16","-5920","-6600","-24528","4","150","149.51","117.26","32.24","28.95","38.6","13.46","90236","28.81","DUALSPOT-UV-BLUE-GREEN-RED-IR","740370","707336","903615","13.041136","3.584249","0.004762","734699","900404","765181","8.831982","2.325941","-0.003535","831963","905127","814569","7.284224","1.874446","0.005347","832730","930927","867013","5.850089","1.473951","-0.014433","715874","852934","952532","3.926550","0.918375","-0.078772","3604","3777","3843","3110","3040","3016","2748","2831","2860","2633","2479","2428","2324","1903","1775",""
"MA200-0416","28667","86","1","1.10","1.4","2023-05-26T15:32:01","120","2023/05/26","15:32:01","-15.795773565769196","35.00294083310291","0.0","14","30","64","16","-5848","-6564","-25756","4","150","149.83","117.74","32.09","28.94","38.7","13.48","90236","28.81","DUALSPOT-UV-BLUE-GREEN-RED-IR","746097","713214","911339","13.117050","3.607109","0.009633","734398","900346","765250","8.882186","2.339101","-0.006151","830826","904163","813825","7.326937","1.885891","-0.003182","831329","929577","865842","5.882264","1.481813","-0.027272","715362","852454","952024","3.946832","0.922502","-0.125137","3787","4184","4334","3161","3040","2997","3011","2960","2943","2741","2458","2362","2406","1796","1610",""
"MA200-0416","28668","86","1","1.10","1.4","2023-05-26T15:32:31","120","2023/05/26","15:32:31","-15.795774281024933","35.00294333323836","0.0","14","30","64","16","-5892","-6538","-25173","4","150","149.96","117.38","32.58","28.93","38.8","13.49","90236","28.81","DUALSPOT-UV-BLUE-GREEN-RED-IR","744514","712009","909999","13.185661","3.628725","0.011916","733791","899867","764942","8.929221","2.354206","0.019683","830024","903502","813312","7.364494","1.896745","0.007160","830783","929176","865506","5.911394","1.489960","0.001732","714638","851703","951256","3.966859","0.927375","-0.048337","3433","3897","4073","2970","3436","3603","2656","2766","2804","2489","2509","2515","2383","2089","1999",""
"MA200-0416","28669","86","1","1.10","1.4","2023-05-26T15:33:01","120","2023/05/26","15:33:01","-15.795785188674927","35.00295649957843","0.1","14","30","64","16","-5696","-6552","-24596","4","150","150.33","117.40","32.92","28.92","38.8","13.50","90236","28.81","DUALSPOT-UV-BLUE-GREEN-RED-IR","743909","711836","909951","13.256546","3.649067","0.002349","732834","899070","764372","8.979188","2.366603","-0.020662","829612","903339","813234","7.403655","1.908016","0.004617","830273","928824","865265","5.943141","1.498895","0.000804","714455","851602","951196","3.986992","0.932289","-0.051129","3546","3628","3660","3155","2791","2661","2769","2841","2867","2712","2722","2725","2395","2084","1989",""
"MA200-0416","28670","86","1","1.10","1.4","2023-05-26T15:33:31","120","2023/05/26","15:33:31","-15.79578685760498","35.00298983277753","0.1","14","30","64","16","-5512","-6428","-24696","4","150","150.09","116.98","33.11","28.91","38.9","13.53","90232","28.81","DUALSPOT-UV-BLUE-GREEN-RED-IR","744325","712592","911147","13.333836","3.672065","0.004966","733174","899781","765074","9.029963","2.381736","0.007443","834148","908584","818058","7.446099","1.919353","-0.011008","830143","928886","865406","5.975670","1.507777","-0.008298","714149","851393","950989","4.006851","0.938159","0.013708","3880","4079","4155","3217","3388","3449","3012","2842","2784","2789","2691","2657","2371","2477","2509",""
"MA200-0416","28671","86","1","1.10","1.4","2023-05-26T15:34:01","120","2023/05/26","15:34:01","-15.795781075954437","35.00300783314742","0.0","14","30","64","16","-5665","-6446","-24573","4","150","150.69","117.34","33.35","28.90","38.9","13.53","90236","28.81","DUALSPOT-UV-BLUE-GREEN-RED-IR","743278","711965","910553","13.411327","3.694826","0.003299","732561","899343","764851","9.082271","2.397264","0.006291","829170","903427","813501","7.487345","1.930636","-0.007091","829557","928424","865087","6.007039","1.517206","0.011939","714018","851366","951049","4.027906","0.942675","-0.116978","3878","4008","4058","3304","3451","3504","2918","2809","2771","2682","2836","2889","2506","1891","1703",""
"MA200-0416","28672","86","1","1.10","1.4","2023-05-26T15:34:31","120","2023/05/26","15:34:31","-15.795780956745148","35.00296249985695","0.0","14","30","64","16","-5688","-6540","-26008","4","150","149.45","117.26","32.18","28.90","39.0","13.56","90232","28.75","DUALSPOT-UV-BLUE-GREEN-RED-IR","742679","711795","910508","13.488235","3.716701","0.003547","732111","899171","764791","9.134319","2.410944","-0.006684","828559","903007","813235","7.528401","1.942194","0.004454","829407","928453","865152","6.038568","1.524281","-0.053432","713949","851412","951090","4.048336","0.946495","-0.175992","3852","3992","4045","3290","3151","3101","2906","2981","3007","2697","2205","2039","2433","1657","1421",""
"MA200-0416","28673","86","1","1.10","1.4","2023-05-26T15:35:01","120","2023/05/26","15:35:01","-15.795781910419464","35.00295999995433","0.0","14","30","64","16","-5508","-6404","-25184","4","150","150.01","116.84","33.17","28.90","39.0","13.57","90232","28.75","DUALSPOT-UV-BLUE-GREEN-RED-IR","741957","711475","910340","13.564487","3.740215","0.007837","731793","899100","764849","9.186780","2.425861","0.000228","828517","903232","813520","7.571209","1.954150","-0.002958","828859","928100","864891","6.069783","1.532989","-0.003922","714052","851672","951464","4.067144","0.950983","-0.064661","3833","4163","4289","3328","3333","3335","3041","2992","2975","2680","2633","2618","2248","1890","1780",""
"MA200-0416","28674","86","1","1.10","1.4","2023-05-26T15:35:31","120","2023/05/26","15:35:31","-15.795779824256897","35.00297633279115","0.0","14","30","64","16","-5608","-6424","-25568","4","150","150.29","117.38","32.91","28.90","39.1","13.61","90236","28.81","DUALSPOT-UV-BLUE-GREEN-RED-IR","741670","711555","910641","13.641077","3.762491","0.003599","731287","898821","764707","9.237387","2.439994","-0.000573","827817","902725","813148","7.610965","1.964289","-0.018215","828748","928194","865047","6.104492","1.542944","0.004872","713667","851370","951149","4.089683","0.956591","-0.042069","3832","3975","4030","3196","3183","3179","2811","2557","2469","2966","3034","3057","2682","2380","2288",""
"MA200-0416","28675","86","1","1.10","1.4","2023-05-26T15:36:01","120","2023/05/26","15:36:01","-15.795782387256622","35.00296816625632","0.0","14","30","64","15","-5583","-6533","-24979","4","150","149.51","117.02","32.48","28.89","39.2","13.64","90232","28.75","DUALSPOT-UV-BLUE-GREEN-RED-IR","740666","710981","910078","13.714163","3.784444","0.007438","731229","899069","765011","9.285961","2.453077","-0.004519","827625","902737","813231","7.649875","1.974749","-0.005789","828613","928228","865159","6.132878","1.549762","-0.035793","713571","851349","951188","4.108656","0.961610","-0.015856","3668","3969","4084","3077","2985","2953","2760","2673","2643","2433","2106","1995","2264","2158","2126",""
"MA200-0416","28676","86","1","1.10","1.4","2023-05-26T15:36:31","120","2023/05/26","15:36:31","-15.795779824256897","35.0029656663537","0.1","14","30","64","15","-5592","-6488","-25860","4","150","149.54","117.24","32.31","28.89","39.3","13.65","90232","28.81","DUALSPOT-UV-BLUE-GREEN-RED-IR","785319","754320","965771","13.799219","3.808267","0.001596","730046","898017","764239","9.345691","2.469385","-0.001367","886735","967649","871799","7.699758","1.987332","-0.016739","888524","995672","928073","6.171681","1.558941","-0.037884","764921","912824","1019941","4.133449","0.966767","-0.113970","4261","4330","4357","3776","3741","3729","3532","3233","3129","3320","2850","2691","2954","2229","2008",""
"MA200-0416","28677","86","1","1.10","1.4","2023-05-26T15:37:01","120","2023/05/26","15:37:01","-15.795779943466187","35.002968499669805","0.0","14","30","64","15","-5632","-6568","-24580","4","150","150.10","117.44","32.66","28.88","39.3","13.67","90232","28.81","DUALSPOT-UV-BLUE-GREEN-RED-IR","739422","710595","910005","13.872774","3.830017","0.005796","729932","898171","764500","9.395516","2.483137","-0.001096","826803","902486","813208","7.740361","1.999122","0.007267","828444","928527","865590","6.202913","1.568114","0.011269","713439","851526","951492","4.154554","0.971668","-0.066040","3678","3911","4000","3145","3121","3113","2870","2997","3041","2668","2817","2868","2510","2096","1969",""
"MA200-0416","28678","86","1","1.10","1.4","2023-05-26T15:37:31","120","2023/05/26","15:37:31","-15.795781433582306","35.00296433316544","0.1","14","30","64","15","-5648","-6556","-25140","4","150","149.64","117.30","32.34","28.88","39.3","13.67","90236","28.81","DUALSPOT-UV-BLUE-GREEN-RED-IR","708307","696868","901752","16.267349","4.560928","0.007964","721382","895690","764701","10.265454","2.704692","-0.011252","820999","901673","813972","8.314676","2.130192","-0.036242","824452","928470","866653","6.635210","1.659703","-0.067332","711181","851717","952394","4.448393","1.023789","-0.194017","119908","132751","137754","54981","50788","49288","40650","33648","31237","36975","28413","25557","34995","22514","18783",""
"MA200-0416","28679","86","1","1.10","1.4","2023-05-26T15:38:01","120","2023/05/26","15:38:01","-15.79577910900116","35.002968332963064","0.0","15","30","64","15","-5729","-6550","-25041","4","150","149.95","117.61","32.33","28.88","39.3","13.64","90232","28.81","DUALSPOT-UV-BLUE-GREEN-RED-IR","683132","692394","908571","21.477340","6.216421","0.008372","710265","890677","763336","11.926725","3.157026","-0.001111","812736","898234","812677","9.361292","2.396864","-0.011662","816346","923736","863582","7.416406","1.846575","-0.028199","706727","849380","950717","5.003641","1.138974","-0.093090","260190","300724","317235","104713","103706","103344","73881","68471","66609","66639","57983","55113","65950","49763","44993",""
"MA200-0416","28680","86","1","1.10","1.4","2023-05-26T15:38:31","120","2023/05/26","15:38:31","-15.795776963233948","35.002963666571304","0.1","15","30","64","15","-5676","-6479","-24716","4","150","150.16","117.22","32.94","28.88","39.2","13.62","90232","28.81","DUALSPOT-UV-BLUE-GREEN-RED-IR","677286","687460","902790","21.871008","6.348602","0.009855","711222","892537","765178","12.078882","3.202665","0.006967","813674","899754","814236","9.464963","2.426994","0.004668","818012","926018","865834","7.497174","1.869469","0.001554","707546","850646","952233","5.064026","1.154652","-0.021540","19725","23571","25144","9622","10272","10506","7342","7594","7681","6912","6973","6994","7196","6649","6488",""
"MA200-0416","28681","86","1","1.10","1.4","2023-05-26T15:39:01","120","2023/05/26","15:39:01","-15.795760691165924","35.00294866645709","0.1","14","30","64","15","-5648","-6575","-25280","4","150","150.18","116.94","33.24","28.87","39.3","13.63","90232","28.81","DUALSPOT-UV-BLUE-GREEN-RED-IR","681606","691740","908425","21.859982","6.349762","0.094889","708879","889741","762863","12.112589","3.214986","0.023130","816234","902742","817019","9.495778","2.436721","0.013631","816288","924174","864229","7.522096","1.877790","0.025091","706249","849153","950609","5.081558","1.159671","0.001807","-553","204","515","2136","2747","2968","2187","2429","2513","2138","2511","2635","2094","2109","2113",""
"MA200-0416","28682","86","1","1.10","1.4","2023-05-26T15:39:31","120","2023/05/26","15:39:31","-15.795757293701172","35.00294916634448","0.1","14","30","64","14","-5688","-6615","-24852","4","150","149.80","117.29","32.50","28.87","39.2","13.62","90236","28.81","DUALSPOT-UV-BLUE-GREEN-RED-IR","682162","692119","908857","21.826222","6.344175","-0.060227","709375","890459","763580","12.136838","3.225334","0.034910","815915","902543","816906","9.519323","2.446229","0.040011","815450","923347","863484","7.542392","1.884717","0.031258","705881","848819","950265","5.094881","1.163141","-0.016634","-1690","-1009","-730","1532","2359","2659","1666","2428","2691","1736","2137","2271","1586","1491","1462",""
"MA200-0416","28683","86","1","1.10","1.4","2023-05-26T15:40:01","120","2023/05/26","15:40:01","-15.795762956142426","35.002956833224744","0.1","14","30","64","15","-5640","-6524","-25224","4","150","150.09","117.14","32.95","28.87","39.2","13.61","90232","28.81","DUALSPOT-UV-BLUE-GREEN-RED-IR","683234","693004","910008","21.795302","6.339901","-0.116324","709909","891314","764370","12.160645","3.235210","0.032304","812669","899035","813798","9.540760","2.454937","0.039224","817825","926169","866186","7.561025","1.892966","0.057349","707355","850629","952342","5.106691","1.167638","0.061582","-1550","-761","-438","1506","2221","2481","1519","2194","2427","1595","2511","2817","1408","1906","2054",""
"MA200-0416","28684","86","1","1.10","1.4","2023-05-26T15:40:31","120","2023/05/26","15:40:31","-15.795766055583954","35.002961666556075","0.0","15","30","72","15","-5637","-6616","-24562","4","150","150.36","117.10","33.25","28.86","39.2","13.59","90232","28.81","DUALSPOT-UV-BLUE-GREEN-RED-IR","592829","601192","789393","21.770990","6.334778","-0.026261","710350","891957","764997","12.183942","3.242982","0.015791","812403","898889","813738","9.566358","2.462864","0.011359","817137","925461","865596","7.579283","1.898652","0.015087","706903","850176","951874","5.118114","1.171415","0.034302","-1219","-904","-775","1474","1732","1826","1814","1979","2035","1564","1715","1766","1362","1586","1652",""
"MA200-0416","28685","86","1","1.10","1.4","2023-05-26T15:41:01","120","2023/05/26","15:41:01","-15.795767664909363","35.002963999984786","0.1","15","30","64","15","-5724","-6528","-24588","4","150","149.73","116.89","32.84","28.86","39.1","13.57","90232","28.81","DUALSPOT-UV-BLUE-GREEN-RED-IR","677982","687518","902713","21.756344","6.332554","-0.084673","710254","892019","765112","12.211031","3.253223","0.026227","812104","898713","813624","9.588389","2.470720","0.027762","816712","925120","865316","7.599198","1.905494","0.030184","706742","850035","951776","5.129129","1.174406","-0.008859","-735","-397","-258","1718","2311","2527","1564","1986","2132","1709","2090","2218","1316","1272","1259",""
"MA200-0416","28686","86","1","1.10","1.4","2023-05-26T15:41:31","120","2023/05/26","15:41:31","-15.795769333839417","35.00296949944459","0.0","15","30","64","15","-5440","-6488","-24692","4","150","149.66","117.42","32.24","28.85","39.2","13.58","90228","28.75","DUALSPOT-UV-BLUE-GREEN-RED-IR","683559","693087","910059","21.748800","6.331318","-0.060683","708907","890461","763820","12.235933","3.260934","0.012137","811609","898292","813319","9.612184","2.477169","-0.001846","816924","925456","865690","7.616819","1.910435","0.003616","706562","849888","951572","5.140848","1.178316","0.042447","-377","-225","-162","1572","1773","1846","1682","1660","1653","1505","1537","1548","1394","1694","1783",""
"MA200-0416","28687","86","1","1.10","1.4","2023-05-26T15:42:01","120","2023/05/26","15:42:01","-15.79577761888504","35.002946333028376","0.0","15","30","64","15","-5608","-6575","-24084","4","150","149.39","116.71","32.68","28.85","39.2","13.59","90232","28.81","DUALSPOT-UV-BLUE-GREEN-RED-IR","683939","693479","910597","21.747262","6.331770","0.070284","709433","891314","764629","12.263759","3.269565","0.010443","811948","898829","813856","9.635959","2.485680","0.028322","816325","924897","865194","7.635251","1.915800","0.006535","706388","849751","951499","5.153850","1.181759","-0.014660","-77","81","146","1767","1957","2027","1691","2162","2326","1584","1646","1667","1556","1472","1447",""
"MA200-0416","28688","86","1","1.10","1.4","2023-05-26T15:42:31","120","2023/05/26","15:42:31","-15.795775771141052","35.00295183318667","0.0","15","30","64","15","-5536","-6515","-25619","4","150","149.73","117.16","32.57","28.85","39.3","13.62","90228","28.81","DUALSPOT-UV-BLUE-GREEN-RED-IR","683664","693210","910242","21.749992","6.334528","0.036230","709016","890969","764418","12.291745","3.278989","0.018194","811265","898242","813408","9.662704","2.493858","0.012272","815750","924384","864796","7.655810","1.922697","0.028245","706499","849983","951775","5.166651","1.184561","-0.073756","136","497","645","1770","2144","2280","1895","2084","2150","1760","2124","2246","1526","1201","1105",""
"MA200-0416","28689","86","1","1.10","1.4","2023-05-26T15:43:01","120","2023/05/26","15:43:01","-15.795768976211548","35.00297449948266","0.0","15","30","64","14","-5624","-6475","-24708","4","150","150.43","117.22","33.20","28.84","39.4","13.67","90232","28.75","DUALSPOT-UV-BLUE-GREEN-RED-IR","681617","691175","907592","21.757088","6.337799","0.021588","707436","889132","762906","12.322670","3.288448","0.007973","814474","901966","816821","9.687399","2.501416","0.010109","813307","921759","862389","7.676360","1.928287","-0.007247","704929","848154","949754","5.179355","1.188380","0.014199","355","578","670","1955","2111","2168","1749","1889","1938","1758","1689","1666","1514","1606","1634",""
"MA200-0416","28690","86","1","1.10","1.4","2023-05-26T15:43:31","120","2023/05/26","15:43:31","-15.79576963186264","35.00296966615133","0.1","15","30","64","14","-5636","-6552","-24896","4","150","149.98","116.94","33.04","28.85","39.6","13.73","90228","28.75","DUALSPOT-UV-BLUE-GREEN-RED-IR","677065","686585","901624","21.768658","6.344108","0.026072","708530","890688","764350","12.352770","3.300335","0.028467","815566","903405","818200","9.716812","2.510893","0.016377","815519","924378","864897","7.696662","1.936120","0.042616","705855","849375","951166","5.193615","1.193506","0.050281","581","1121","1343","1908","2666","2943","2088","2381","2483","1741","2378","2591","1703","2167","2305",""
"MA200-0416","28691","86","1","1.10","1.4","2023-05-26T15:44:01","120","2023/05/26","15:44:01","-15.795756459236145","35.002966332947835","0.1","15","30","64","14","-5664","-6508","-24892","4","150","150.14","116.88","33.27","28.85","39.7","13.78","90236","28.75","DUALSPOT-UV-BLUE-GREEN-RED-IR","681247","690913","907374","21.786434","6.350263","0.010740","706501","888320","762378","12.387289","3.309454","-0.008782","809582","896913","812384","9.743435","2.518195","-0.005313","814159","922998","863671","7.719383","1.941722","-0.028163","705153","848596","950344","5.207855","1.197712","0.008991","893","1086","1166","2189","2032","1974","1891","1822","1798","1950","1689","1602","1702","1766","1785",""
"MA200-0416","28692","86","1","1.10","1.4","2023-05-26T15:44:31","120","2023/05/26","15:44:31","-15.795759439468384","35.002943499945104","0.0","15","30","64","14","-5664","-6528","-24860","4","150","149.47","117.04","32.44","28.85","39.8","13.81","90232","28.75","DUALSPOT-UV-BLUE-GREEN-RED-IR","676825","686516","901631","21.807222","6.357479","0.012048","707727","890102","763971","12.419428","3.319776","0.014363","810614","898249","813635","9.772303","2.526569","0.006071","816058","925277","865853","7.741945","1.948279","0.007877","706349","850138","952107","5.219850","1.199314","-0.394175","1043","1306","1415","2035","2359","2477","2047","2143","2176","1934","2028","2059","1431","689","468",""
"MA200-0416","28693","86","1","1.10","1.4","2023-05-26T15:45:01","120","2023/05/26","15:45:01","-15.79576563835144","35.002941833110526","0.1","15","30","64","14","-5620","-6575","-24420","4","150","150.85","117.45","33.41","28.86","39.9","13.87","90228","28.75","DUALSPOT-UV-BLUE-GREEN-RED-IR","680982","690846","907417","21.830018","6.365104","0.009119","706349","888591","762767","12.451242","3.329570","0.008101","813616","901762","816917","9.801071","2.535904","0.016279","812848","921810","862645","7.763145","1.953506","-0.027897","704359","847806","949539","5.236244","1.205016","0.042862","1139","1340","1423","2008","2173","2233","2033","2319","2419","1811","1569","1488","1949","2384","2514",""
"MA200-0416","28694","86","1","1.10","1.4","2023-05-26T15:45:31","120","2023/05/26","15:45:31","-15.795767664909363","35.002936833072454","0.0","15","30","64","14","-5964","-6524","-24628","4","150","149.66","117.00","32.66","28.87","40.0","13.91","90232","28.75","DUALSPOT-UV-BLUE-GREEN-RED-IR","683119","693089","910428","21.852560","6.374939","0.020264","707391","890082","764146","12.485256","3.340889","0.016652","810146","898061","813630","9.828243","2.544283","0.012616","815726","925194","865861","7.784654","1.960646","0.025951","706022","849893","951918","5.250086","1.208725","-0.010381","1131","1768","2031","2155","2569","2720","1928","2130","2200","1844","2193","2311","1652","1586","1567",""
"MA200-0416","28695","86","1","1.10","1.4","2023-05-26T15:46:01","120","2023/05/26","15:46:01","-15.795760989189148","35.002959333127365","0.0","15","30","64","14","-5684","-6464","-24828","4","150","150.49","117.27","33.22","28.88","40.1","13.96","90232","28.81","DUALSPOT-UV-BLUE-GREEN-RED-IR","676436","686435","901801","21.877272","6.383501","0.010946","707580","890559","764611","12.517929","3.349931","-0.002610","810144","898220","813857","9.856141","2.551698","-0.009237","816035","925693","866372","7.806495","1.965064","-0.079325","706247","850299","952422","5.265964","1.213667","0.021565","1237","1513","1627","2065","2017","2000","1975","1852","1810","1868","1333","1153","1891","2078","2133",""
"MA200-0416","28696","86","1","1.10","1.4","2023-05-26T15:46:31","120","2023/05/26","15:46:31","-15.795761942863464","35.0029669997748","0.0","15","30","64","13","-5748","-6511","-25032","4","150","149.80","117.01","32.79","28.89","40.1","13.99","90236","28.81","DUALSPOT-UV-BLUE-GREEN-RED-IR","681897","692086","909308","21.900984","6.392772","0.016359","706797","889720","763970","12.548819","3.360958","0.021698","808649","896737","812554","9.881340","2.558691","-0.001350","813562","923053","863976","7.828153","1.972204","0.024392","704936","848770","950733","5.277824","1.216657","-0.028428","1190","1660","1854","1957","2493","2689","1787","1770","1764","1857","2184","2295","1415","1273","1231",""
"MA200-0416","28697","86","1","1.10","1.4","2023-05-26T15:47:01","120","2023/05/26","15:47:01","-15.795763790607452","35.002946333028376","0.1","15","30","64","14","-5512","-6496","-25312","4","150","149.83","116.87","32.96","28.90","40.2","14.03","90232","28.81","DUALSPOT-UV-BLUE-GREEN-RED-IR","677265","687501","903324","21.927424","6.401376","0.008134","708051","891531","765570","12.580147","3.368301","-0.023852","810124","898519","814266","9.911409","2.567810","0.009290","815482","925375","866185","7.848181","1.978337","0.013089","705941","850094","952224","5.291475","1.218647","-0.319003","1328","1533","1617","1987","1651","1528","2136","2296","2352","1719","1866","1916","1631","843","607",""
"MA200-0416","28698","86","1","1.10","1.4","2023-05-26T15:47:31","120","2023/05/26","15:47:31","-15.795756459236145","35.002961666556075","0.0","15","30","64","13","-5756","-6492","-24964","4","150","149.85","116.74","33.12","28.90","40.3","14.05","90232","28.81","DUALSPOT-UV-BLUE-GREEN-RED-IR","674764","685074","900225","21.953164","6.409456","0.005952","705869","888935","763442","12.611666","3.379047","0.017132","808693","897124","813048","9.935867","2.573228","-0.042274","813984","923787","864743","7.868392","1.982956","-0.044601","704954","849007","951060","5.305050","1.222627","0.007892","1295","1432","1489","2001","2405","2553","1739","1358","1224","1736","1399","1285","1624","1679","1695",""
"MA200-0416","28699","86","1","1.10","1.4","2023-05-26T15:48:01","120","2023/05/26","15:48:01","-15.795762419700623","35.00297399959527","0.0","15","30","64","14","-5648","-6447","-25364","4","150","149.64","116.94","32.70","28.90","40.4","14.10","90240","28.88","DUALSPOT-UV-BLUE-GREEN-RED-IR","676702","687175","903077","21.980970","6.419916","0.014911","707359","891037","765299","12.644251","3.389145","0.010181","810049","898812","814654","9.963376","2.582533","0.022138","810478","919933","861189","7.887237","1.988780","0.015610","706567","851014","953323","5.318641","1.225311","-0.116171","1396","1878","2077","2065","2289","2371","1953","2362","2505","1616","1786","1843","1623","1146","1003",""
"MA200-0416","28700","86","1","1.10","1.4","2023-05-26T15:48:31","120","2023/05/26","15:48:31","-15.795762777328491","35.00296933273785","0.1","15","30","64","13","-5592","-6479","-24936","4","150","149.73","117.17","32.56","28.92","40.5","14.14","90232","28.81","DUALSPOT-UV-BLUE-GREEN-RED-IR","675595","686138","901836","22.010536","6.431497","0.016654","706621","890277","764728","12.676420","3.398443","0.004099","808850","897667","813673","9.990232","2.589900","-0.001772","813930","924036","865077","7.909609","1.994204","-0.025995","705245","849510","951665","5.333490","1.230198","0.036263","1482","2089","2339","2035","2117","2146","1902","1878","1869","1915","1671","1588","1770","2096","2194",""
"MA200-0416","28701","86","1","1.10","1.4","2023-05-26T15:49:01","120","2023/05/26","15:49:01","-15.795763432979584","35.00298349978402","0.0","15","30","64","13","-5608","-6528","-24996","4","150","149.73","117.31","32.42","28.93","40.5","14.17","90232","28.88","DUALSPOT-UV-BLUE-GREEN-RED-IR","677212","687977","904362","22.046278","6.443359","0.010028","707322","891409","765801","12.710974","3.408868","0.008756","809751","898858","814807","10.019159","2.598500","0.009267","810559","920334","861657","7.931542","1.999038","-0.046797","706544","851167","953572","5.348161","1.233831","-0.029258","1789","2149","2297","2183","2383","2457","2047","2202","2256","1875","1495","1368","1747","1565","1510",""
"MA200-0416","28702","86","1","1.10","1.4","2023-05-26T15:49:31","120","2023/05/26","15:49:31","-15.79575902223587","35.00298283272423","0.0","15","30","64","14","-5580","-6568","-24612","4","150","149.76","117.14","32.62","28.93","40.6","14.18","90232","28.81","DUALSPOT-UV-BLUE-GREEN-RED-IR","677201","688182","904752","22.088142","6.456526","0.007000","703355","886636","761775","12.749969","3.420730","0.008795","809568","898845","814882","10.051046","2.607423","0.000667","809677","919511","860949","7.955849","2.005648","-0.004070","706354","851037","953457","5.363649","1.238598","0.022480","2099","2370","2483","2467","2695","2779","2259","2271","2275","2081","2032","2016","1846","2041","2100",""
"MA200-0416","28703","86","1","1.10","1.4","2023-05-26T15:50:01","120","2023/05/26","15:50:01","-15.79576164484024","35.002966332947835","0.1","15","30","64","13","-5724","-6588","-24820","4","150","149.62","116.80","32.82","28.95","40.6","14.23","90232","28.88","DUALSPOT-UV-BLUE-GREEN-RED-IR","676924","688215","905002","22.149636","6.477966","0.011471","702704","886155","761486","12.800305","3.436304","0.009497","809543","899096","815216","10.090000","2.617818","-0.007208","810426","920544","861991","7.984234","2.013850","0.004590","706462","851305","953807","5.382736","1.242219","-0.135864","3092","3837","4145","3194","3518","3637","2768","2629","2581","2438","2507","2530","2282","1541","1318",""
"MA200-0416","28704","86","1","1.10","1.4","2023-05-26T15:50:31","120","2023/05/26","15:50:31","-15.795760452747345","35.00294099980965","0.1","15","30","64","13","-5648","-6468","-24540","4","150","149.87","117.21","32.66","28.95","40.6","14.22","90232","28.88","DUALSPOT-UV-BLUE-GREEN-RED-IR","677198","688977","906348","22.255372","6.513979","0.010749","702553","886421","761908","12.878019","3.460498","0.010738","809671","899631","815826","10.149602","2.635526","0.008102","810590","921028","862545","8.027541","2.025771","-0.002039","706665","851747","954348","5.409487","1.250058","0.011663","5298","6477","6964","4915","5492","5703","4221","4501","4599","3706","3662","3647","3188","3353","3402",""
"MA200-0416","28705","86","1","1.10","1.4","2023-05-26T15:51:01","120","2023/05/26","15:51:01","-15.79575514793396","35.002928333124146","0.0","15","30","64","13","-5660","-6592","-25200","4","150","150.11","116.97","33.14","28.97","40.6","14.24","90232","28.88","DUALSPOT-UV-BLUE-GREEN-RED-IR","674447","686753","903791","22.379252","6.555366","0.009032","701112","885220","761097","12.967902","3.487266","0.005034","807546","897735","814270","10.221185","2.656895","0.006604","807634","917998","859856","8.079447","2.040153","-0.003760","704812","849688","952144","5.438778","1.257031","-0.048234","6220","7334","7796","5696","5987","6094","5080","5353","5448","4452","4353","4320","3498","2939","2771",""
"MA200-0416","28706","86","1","1.10","1.4","2023-05-26T15:51:31","120","2023/05/26","15:51:31","-15.795763969421387","35.00294666667469","0.0","15","30","64","13","-5603","-6626","-25288","4","150","150.62","116.95","33.68","28.99","40.6","14.26","90232","28.88","DUALSPOT-UV-BLUE-GREEN-RED-IR","674802","687775","905606","22.519968","6.602001","0.007807","701362","886127","762107","13.066594","3.517051","0.004714","808340","899144","815721","10.296547","2.677495","-0.007168","810165","921286","863075","8.135733","2.055316","-0.011620","706251","851651","954402","5.471763","1.264524","-0.069211","7067","8133","8575","6256","6556","6666","5350","5078","4982","4828","4517","4411","3940","3108","2857",""
"MA200-0416","28707","86","1","1.10","1.4","2023-05-26T15:52:01","120","2023/05/26","15:52:01","-15.795766234397888","35.00293866638094","0.0","15","30","64","13","-5752","-6492","-24788","4","150","149.63","116.83","32.81","29.00","40.6","14.27","90232","28.94","DUALSPOT-UV-BLUE-GREEN-RED-IR","673161","686597","904339","22.635352","6.641897","0.010897","699835","884670","761033","13.150023","3.543079","0.010032","807145","898130","814969","10.361435","2.696497","0.005286","808511","919712","861667","8.181533","2.067494","-0.009361","705229","850555","953244","5.499483","1.271566","-0.025735","5801","7143","7700","5294","5881","6098","4611","4808","4878","3933","3724","3653","3314","2998","2903",""
"MA200-0416","28708","86","1","1.10","1.4","2023-05-26T15:52:31","120","2023/05/26","15:52:31","-15.795766949653625","35.00294099980965","0.0","15","30","64","13","-5760","-6596","-24648","4","150","149.63","117.06","32.57","29.00","40.6","14.27","90232","28.94","DUALSPOT-UV-BLUE-GREEN-RED-IR","674974","688815","907570","22.721140","6.670868","0.010229","701616","887371","763489","13.217138","3.563089","0.006764","808016","899477","816303","10.415298","2.711176","-0.002712","809881","921536","863466","8.221456","2.078694","0.001350","706415","852150","955104","5.523790","1.277592","-0.029858","4304","5224","5607","4250","4554","4667","3819","3742","3715","3421","3450","3460","2900","2584","2489",""
"MA200-0416","28709","86","1","1.10","1.4","2023-05-26T15:53:01","120","2023/05/26","15:53:01","-15.795767962932587","35.00293983286247","0.0","15","30","64","13","-5584","-6500","-25184","4","150","149.66","117.09","32.57","29.02","40.7","14.31","90228","28.94","DUALSPOT-UV-BLUE-GREEN-RED-IR","674753","688935","907954","22.801708","6.698732","0.011231","701003","886970","763294","13.277782","3.579767","-0.001211","807883","899617","816537","10.462526","2.724230","-0.000850","810672","922691","864611","8.257593","2.087413","-0.026142","706467","852359","955373","5.546367","1.283336","-0.022578","4041","5024","5433","3839","3795","3778","3348","3327","3319","3096","2685","2546","2693","2463","2393",""
"MA200-0416","28710","86","1","1.10","1.4","2023-05-26T15:53:31","120","2023/05/26","15:53:31","-15.795766055583954","35.00293666636571","0.0","15","30","64","13","-5828","-6643","-24004","4","150","149.61","117.20","32.41","29.03","40.7","14.34","90232","28.94","DUALSPOT-UV-BLUE-GREEN-RED-IR","674721","689202","908506","22.865808","6.719799","0.009215","701423","887804","764123","13.330333","3.595758","0.009077","807529","899548","816552","10.504161","2.735674","-0.000776","809918","922004","864088","8.287678","2.096283","0.009806","706315","852252","955343","5.565298","1.287761","-0.045270","3212","3818","4070","3324","3658","3781","2949","2931","2925","2575","2745","2803","2256","1907","1802",""
"MA200-0416","28711","86","1","1.10","1.4","2023-05-26T15:54:01","120","2023/05/26","15:54:01","-15.795771777629852","35.002943833125755","0.0","15","30","64","13","-5640","-6543","-25080","4","150","150.23","117.06","33.16","29.04","40.7","14.35","90232","28.94","DUALSPOT-UV-BLUE-GREEN-RED-IR","674172","688923","908303","22.927906","6.740185","0.008011","700943","887524","763976","13.379834","3.611679","0.011688","807128","899308","816440","10.544040","2.748168","0.011880","810316","922659","864751","8.317531","2.104586","-0.002993","706298","852386","955501","5.585340","1.293278","-0.006844","3115","3610","3816","3134","3559","3715","2828","3127","3233","2558","2512","2496","2391","2324","2303",""
"MA200-0416","28712","86","1","1.10","1.4","2023-05-26T15:54:31","120","2023/05/26","15:54:31","-15.795769095420837","35.00293849990703","0.0","15","30","64","13","-5738","-6434","-24846","4","150","149.76","116.77","32.99","29.05","40.7","14.36","90228","29.00","DUALSPOT-UV-BLUE-GREEN-RED-IR","675028","690081","910030","22.988662","6.760900","0.009858","701272","888201","764717","13.427136","3.625877","0.005862","807991","900526","817633","10.582957","2.759194","0.000361","810381","922954","865089","8.345203","2.110159","-0.074814","706729","853015","956252","5.601986","1.296900","-0.076146","3056","3688","3951","3002","3190","3259","2766","2774","2777","2377","1694","1463","1991","1533","1395",""
"MA200-0416","28713","86","1","1.10","1.4","2023-05-26T15:55:01","120","2023/05/26","15:55:01","-15.79576462507248","35.00293599953875","0.0","15","30","64","12","-5632","-6632","-25152","4","150","149.33","116.75","32.58","29.06","40.8","14.38","90228","29.00","DUALSPOT-UV-BLUE-GREEN-RED-IR","672909","688266","907867","23.058544","6.783540","0.008053","699905","886860","763679","13.484122","3.641708","-0.000461","806309","898973","816330","10.628154","2.770185","-0.019803","808608","921188","863510","8.380570","2.118855","-0.022575","701036","846301","948766","5.624151","1.302874","-0.008290","3515","4081","4317","3618","3602","3596","3214","2800","2655","3039","2678","2555","2652","2561","2534",""
"MA200-0416","28714","86","1","1.10","1.4","2023-05-26T15:55:31","120","2023/05/26","15:55:31","-15.79576426744461","35.00293166632764","0.0","15","30","64","13","-5656","-6515","-25072","4","150","149.94","116.92","33.02","29.07","40.8","14.39","90228","29.00","DUALSPOT-UV-BLUE-GREEN-RED-IR","674044","690141","910702","23.193472","6.823938","0.003388","700714","888634","765442","13.591190","3.673322","0.004325","806929","900270","817727","10.713558","2.794671","0.001882","811084","924454","866722","8.442607","2.135396","-0.009580","706585","853322","956741","5.665663","1.312497","-0.053676","6778","7186","7356","6788","7098","7212","6064","6156","6189","5323","5025","4925","4959","4071","3803",""
"MA200-0416","28715","86","1","1.10","1.4","2023-05-26T15:56:01","120","2023/05/26","15:56:01","-15.795770645141602","35.00294083310291","0.0","15","30","64","12","-5688","-6488","-25361","4","150","150.10","116.98","33.13","29.08","40.7","14.39","90228","29.00","DUALSPOT-UV-BLUE-GREEN-RED-IR","667027","683574","902403","23.328822","6.863855","0.002377","700319","888786","765794","13.696626","3.701706","-0.005296","806360","900154","817778","10.797308","2.817034","-0.007746","810261","923897","866334","8.503726","2.152609","-0.000862","706188","853094","956588","5.709041","1.323391","-0.030269","6796","7077","7195","6681","6352","6229","5943","5604","5485","5241","5213","5203","5180","4593","4417",""
"MA200-0416","28716","86","1","1.10","1.4","2023-05-26T15:56:31","120","2023/05/26","15:56:31","-15.795762121677399","35.00293416646309","0.0","15","30","64","11","-5560","-6504","-25176","4","150","150.49","116.63","33.86","29.08","40.7","14.39","90228","29.00","DUALSPOT-UV-BLUE-GREEN-RED-IR","670627","687852","908378","23.455936","6.900684","-0.000132","698144","886645","764171","13.796720","3.729940","-0.002949","804138","898204","816202","10.875574","2.837640","-0.013279","807559","921245","863959","8.561744","2.166670","-0.033202","699984","845787","948497","5.744842","1.332160","-0.044519","6401","6387","6382","6362","6180","6113","5571","5051","4868","4990","4165","3886","4288","3617","3414",""
"MA200-0416","28717","86","1","1.10","1.4","2023-05-26T15:57:01","120","2023/05/26","15:57:01","-15.795760691165924","35.00292683322914","0.0","15","30","64","12","-5648","-6564","-24956","4","150","150.09","117.02","33.07","29.08","40.7","14.37","90228","29.00","DUALSPOT-UV-BLUE-GREEN-RED-IR","672121","689857","911263","23.552558","6.929483","0.003056","699227","888516","765894","13.872912","3.750116","-0.006805","800521","894527","812944","10.937061","2.853114","-0.015898","809520","923777","866409","8.606641","2.178722","-0.008352","700931","847136","950069","5.775730","1.339673","-0.038341","4849","5115","5225","4826","4522","4410","4362","3884","3716","3849","3656","3591","3687","3173","3018",""
"MA200-0416","28718","86","1","1.10","1.4","2023-05-26T15:57:31","120","2023/05/26","15:57:31","-15.79576462507248","35.00294666667469","0.1","15","30","64","11","-5740","-6564","-24744","4","150","153.40","117.50","35.90","29.08","40.6","14.34","90228","29.00","DUALSPOT-UV-BLUE-GREEN-RED-IR","670406","688376","909504","23.621832","6.950268","-0.001104","697617","886818","764578","13.930140","3.766592","-0.006166","799894","894073","812665","10.983726","2.866768","-0.005516","807346","921499","864379","8.641376","2.186823","-0.053683","700282","846509","949460","5.799616","1.345955","-0.038122","3462","3400","3374","3610","3402","3324","3297","3157","3108","2965","2263","2025","2839","2444","2325",""
"MA200-0416","28719","86","1","1.10","1.4","2023-05-26T15:58:01","120","2023/05/26","15:58:01","-15.795768141746521","35.00295566651039","0.0","15","30","64","12","-5732","-6496","-24688","4","150","149.76","116.71","33.06","29.09","40.6","14.34","90228","29.00","DUALSPOT-UV-BLUE-GREEN-RED-IR","664480","682594","902053","23.684318","6.971359","0.009018","698138","887787","765531","13.982344","3.782285","0.005546","800584","895155","813755","11.026596","2.879179","0.002623","804054","917980","861156","8.675086","2.196526","0.002454","701274","847802","950913","5.819870","1.351611","-0.003248","3144","3747","3998","3316","3519","3594","3049","3116","3140","2897","2945","2960","2424","2389","2379",""
"MA200-0416","28720","86","1","1.10","1.4","2023-05-26T15:58:31","120","2023/05/26","15:58:31","-15.795762121677399","35.00295149977319","0.0","15","30","64","11","-5640","-6460","-24884","4","150","150.36","116.97","33.40","29.11","40.6","14.35","90228","29.06","DUALSPOT-UV-BLUE-GREEN-RED-IR","664811","683185","902955","23.738382","6.987018","0.000849","698160","888093","765880","14.029775","3.794826","-0.008036","800295","895117","813741","11.064756","2.888202","-0.027368","803971","918067","861287","8.704900","2.204108","-0.019696","701265","847950","951126","5.840076","1.356479","-0.043699","2714","2754","2770","3006","2783","2701","2708","2243","2079","2557","2277","2182","2413","2036","1922",""
"MA200-0416","28721","86","1","1.10","1.4","2023-05-26T15:59:01","120","2023/05/26","15:59:01","-15.795750975608826","35.00294049968943","0.0","15","30","64","11","-5696","-6560","-24884","4","150","150.49","116.96","33.54","29.12","40.5","14.33","90232","29.06","DUALSPOT-UV-BLUE-GREEN-RED-IR","664948","683554","903624","23.789136","7.005390","0.011394","693694","882676","761319","14.071813","3.807808","0.006786","800006","894978","813751","11.099852","2.899045","0.008543","804294","918614","861890","8.732514","2.210843","-0.028632","701438","848306","951582","5.859140","1.360825","-0.062169","2548","3217","3496","2664","2869","2945","2491","2684","2752","2368","2014","1895","2277","1810","1669",""
"MA200-0416","28722","86","1","1.10","1.4","2023-05-26T15:59:31","120","2023/05/26","15:59:31","-15.795752942562103","35.00295399967581","0.0","15","30","64","11","-5664","-6547","-24448","4","150","150.70","116.96","33.74","29.12","40.5","14.32","90228","29.06","DUALSPOT-UV-BLUE-GREEN-RED-IR","664935","683754","904056","23.838232","7.022192","0.008768","694085","883416","762059","14.112952","3.819776","0.000821","799642","894812","813654","11.135251","2.908295","-0.013104","803609","918019","861362","8.759969","2.217417","-0.033599","700892","847712","950973","5.878463","1.365490","-0.045861","2465","2925","3116","2607","2629","2638","2512","2276","2192","2355","1955","1819","2307","1931","1817",""
"MA200-0416","28723","86","1","1.10","1.4","2023-05-26T16:00:01","120","2023/05/26","16:00:01","-15.795759320259094","35.002943499945104","0.1","15","30","64","11","-5620","-6525","-25094","4","150","150.23","116.94","33.30","29.12","40.4","14.30","90228","29.06","DUALSPOT-UV-BLUE-GREEN-RED-IR","664027","683069","903271","23.889328","7.038252","0.005368","693171","882528","761391","14.157210","3.832561","0.001372","799313","894705","813624","11.170396","2.917081","-0.017716","804091","918779","862127","8.787163","2.223574","-0.043024","700852","847804","951126","5.897472","1.370667","-0.010228","2566","2832","2944","2805","2846","2861","2495","2190","2083","2333","1855","1693","2270","2171","2141",""
"MA200-0416","28724","86","1","1.10","1.4","2023-05-26T16:00:31","120","2023/05/26","16:00:31","-15.795764923095703","35.00292033306323","0.1","14","30","64","11","-5660","-6547","-25132","4","150","150.16","117.06","33.10","29.13","40.4","14.29","0","0.00","DUALSPOT-UV-BLUE-GREEN-RED-IR","664209","683474","903985","23.938796","7.053705","0.005410","693430","883134","762019","14.200768","3.844936","0.000462","799357","894970","813942","11.205795","2.926063","-0.014382","803567","918384","861821","8.812933","2.229470","-0.038934","700949","848022","951408","5.915949","1.374586","-0.081548","2482","2742","2851","2758","2771","2776","2510","2253","2162","2208","1787","1644","2204","1654","1487",""
"MA200-0416","28725","86","1","1.10","1.4","2023-05-26T16:01:01","120","2023/05/26","16:01:01","-15.795767784118652","35.00293199974112","0.0","14","30","64","11","-5672","-6552","-25024","4","150","150.49","118.38","32.11","29.13","40.3","14.28","0","0.00","DUALSPOT-UV-BLUE-GREEN-RED-IR","661871","681389","901343","23.999514","7.071428","0.004052","695712","886413","764922","14.250779","3.858877","0.002559","797766","893439","812680","11.247825","2.938497","0.009702","801309","916015","859668","8.846114","2.237993","-0.008655","699609","846579","949823","5.937284","1.379642","-0.033206","3012","3241","3337","3131","3218","3250","2947","3214","3308","2812","2662","2612","2517","2199","2103",""
"MA200-0416","28726","86","1","1.10","1.4","2023-05-26T16:01:31","120","2023/05/26","16:01:31","-15.795760691165924","35.00294099980965","0.0","14","30","64","11","-5684","-6628","-25128","4","150","150.15","116.99","33.16","29.13","40.3","14.26","90236","29.06","DUALSPOT-UV-BLUE-GREEN-RED-IR","663638","683435","904195","24.051970","7.089151","0.008894","692690","882779","761907","14.293199","3.872848","0.012715","798342","894376","813554","11.284771","2.949250","0.003095","802465","917494","861141","8.873895","2.246284","0.007442","700503","847731","951142","5.955806","1.384364","-0.025356","2633","3139","3350","2688","3123","3285","2621","2692","2716","2382","2508","2550","2211","1989","1921",""
"MA200-0416","28727","86","1","1.10","1.4","2023-05-26T16:02:01","120","2023/05/26","16:02:01","-15.79575902223587","35.00293883308768","0.1","14","30","64","11","-5625","-6495","-24870","4","150","149.66","117.21","32.45","29.12","40.3","14.24","90236","29.06","DUALSPOT-UV-BLUE-GREEN-RED-IR","662738","682895","903725","24.126690","7.112829","0.007053","691765","882048","761437","14.356468","3.892118","0.008413","798791","895204","814489","11.337079","2.964270","0.004231","802971","918409","862123","8.915709","2.258950","0.012563","700944","848505","952113","5.984136","1.391613","-0.018304","3744","4285","4512","4001","4402","4551","3705","3843","3891","3579","3916","4030","3376","3120","3043",""
"MA200-0416","28728","86","1","1.10","1.4","2023-05-26T16:02:31","120","2023/05/26","16:02:31","-15.795763432979584","35.00292733311653","0.1","14","30","64","11","-5588","-6611","-24296","4","150","149.70","117.02","32.67","29.12","40.2","14.21","90240","29.06","DUALSPOT-UV-BLUE-GREEN-RED-IR","666427","687007","909371","24.200262","7.135990","0.006329","689913","879969","759763","14.415037","3.909141","0.003697","800355","897204","816424","11.387457","2.979010","0.005357","805396","921432","865024","8.956157","2.270489","0.003170","698318","845458","948723","6.010790","1.397590","-0.057340","3692","4163","4360","3710","3862","3919","3574","3745","3806","3467","3543","3569","3181","2555","2366",""
"MA200-0416","28729","86","1","1.10","1.4","2023-05-26T16:03:01","120","2023/05/26","16:03:01","-15.79577261209488","35.00296133314259","0.0","14","30","64","11","-5556","-6536","-25436","4","150","149.80","117.13","32.67","29.11","40.2","14.20","90240","29.00","DUALSPOT-UV-BLUE-GREEN-RED-IR","661720","682424","903491","24.257144","7.154388","0.007607","691116","881844","761494","14.463265","3.923673","0.006857","797448","894232","813822","11.425901","2.990472","0.007466","806871","923286","866880","8.987055","2.279388","0.004644","699717","847293","950864","6.029642","1.402621","-0.009932","2852","3307","3497","3052","3297","3388","2725","2912","2979","2646","2732","2761","2248","2150","2121",""
"MA200-0416","28730","86","1","1.10","1.4","2023-05-26T16:03:31","120","2023/05/26","16:03:31","-15.79576712846756","35.0029509998858","0.1","14","30","64","11","-5848","-6543","-24404","4","150","150.03","116.75","33.28","29.09","40.2","14.19","90244","29.00","DUALSPOT-UV-BLUE-GREEN-RED-IR","666774","688097","911291","24.353016","7.185201","0.006286","694504","886650","765808","14.540875","3.946317","0.002141","801057","898748","818060","11.493425","3.009498","-0.001392","806354","923080","866783","9.039792","2.294289","-0.001328","699049","846679","950229","6.064365","1.410862","-0.046049","4823","5437","5695","4928","5043","5086","4801","4746","4726","4532","4491","4478","4154","3458","3247",""
"MA200-0416","28731","86","1","1.10","1.4","2023-05-26T16:04:01","120","2023/05/26","16:04:01","-15.795767366886139","35.00295466626994","0.1","14","30","64","11","-5724","-6652","-25536","4","150","149.35","116.74","32.61","29.08","40.2","14.18","90248","29.00","DUALSPOT-UV-BLUE-GREEN-RED-IR","665629","687166","910246","24.411334","7.204067","0.007511","693880","886139","765467","14.586324","3.959514","0.003539","800111","897894","817389","11.532398","3.020978","0.005974","805713","922545","866356","9.070791","2.301830","-0.023066","703199","851875","956083","6.085039","1.416079","-0.023611","2934","3398","3592","2885","3000","3043","2771","2922","2976","2664","2320","2203","2473","2235","2163",""
"MA200-0416","28732","86","1","1.10","1.4","2023-05-26T16:04:31","120","2023/05/26","16:04:31","-15.795761942863464","35.00295433308929","0.0","14","30","64","10","-5816","-6529","-24516","4","150","150.42","117.46","32.96","29.07","40.2","14.16","90244","29.00","DUALSPOT-UV-BLUE-GREEN-RED-IR","663524","685208","907781","24.463444","7.222082","0.010121","691542","883413","763215","14.629897","3.973640","0.012009","798829","896692","816377","11.567939","3.032178","0.012350","803962","920695","864696","9.099289","2.311288","0.021632","697707","845299","948771","6.102125","1.420641","-0.011046","2605","3210","3463","2750","3177","3336","2512","2821","2930","2434","2879","3030","2032","1933","1903",""
"MA200-0416","28733","86","1","1.10","1.4","2023-05-26T16:05:01","120","2023/05/26","16:05:01","-15.795748591423035","35.00294733326882","0.0","14","30","64","11","-5688","-6543","-24900","4","150","149.73","116.50","33.23","29.07","40.2","14.16","90248","29.00","DUALSPOT-UV-BLUE-GREEN-RED-IR","658559","680446","901686","24.535976","7.244985","0.005379","692368","884892","764637","14.692353","3.991993","0.002718","799778","898115","817807","11.619871","3.047073","0.000657","805187","922428","866437","9.141299","2.322274","-0.013723","698856","846889","950623","6.128013","1.427279","-0.024753","3656","4048","4212","3974","4094","4139","3700","3721","3729","3617","3316","3214","3104","2790","2695",""
"MA200-0416","28734","86","1","1.10","1.4","2023-05-26T16:05:31","120","2023/05/26","16:05:31","-15.795744478702545","35.002921666484326","0.1","14","30","64","11","-5640","-6624","-24920","4","150","150.35","116.79","33.56","29.06","40.1","14.14","90244","29.00","DUALSPOT-UV-BLUE-GREEN-RED-IR","663789","686107","909373","24.599470","7.265003","0.004928","691785","884463","764366","14.744612","4.007055","0.000288","798815","897264","817140","11.664502","3.060650","0.006325","804582","921925","866034","9.175706","2.332854","0.009368","702727","851704","956060","6.150717","1.431682","-0.119502","3193","3503","3633","3317","3327","3331","3172","3358","3425","2955","3162","3233","2715","1832","1565",""
"MA200-0416","28735","86","1","1.10","1.4","2023-05-26T16:06:01","120","2023/05/26","16:06:01","-15.79575377702713","35.00292433309369","0.0","14","30","64","10","-5616","-6668","-24748","4","150","150.36","116.97","33.40","29.04","40.1","14.10","90252","29.00","DUALSPOT-UV-BLUE-GREEN-RED-IR","661881","684476","907388","24.664024","7.285024","0.004425","690007","882521","762826","14.794686","4.022062","0.004324","797840","896465","816499","11.704017","3.070456","-0.018421","802193","919408","863748","9.204734","2.340912","-0.004179","701698","850583","954877","6.168916","1.437195","0.011945","3241","3521","3638","3173","3331","3390","2804","2437","2307","2489","2420","2397","2173","2306","2346",""
"MA200-0416","28736","86","1","1.10","1.4","2023-05-26T16:06:31","120","2023/05/26","16:06:31","-15.795767784118652","35.00294983293861","0.1","14","30","64","10","-5784","-6611","-24840","4","150","149.80","116.92","32.88","29.03","40.0","14.06","90252","28.94","DUALSPOT-UV-BLUE-GREEN-RED-IR","662535","685430","908810","24.726202","7.303547","0.003139","691063","884162","764369","14.847528","4.037626","0.004110","797477","896297","816439","11.746415","3.082735","0.003307","802628","920102","864494","9.237672","2.349156","-0.018741","701811","850839","955177","6.188476","1.440688","-0.146719","3123","3308","3386","3350","3508","3568","3010","3100","3132","2826","2515","2409","2337","1483","1224",""
"MA200-0416","28737","86","1","1.10","1.4","2023-05-26T16:07:01","120","2023/05/26","16:07:01","-15.79576963186264","35.0029538332019","0.0","14","30","64","10","-5776","-6428","-24764","4","150","149.45","116.79","32.66","29.02","40.0","14.05","90248","28.94","DUALSPOT-UV-BLUE-GREEN-RED-IR","661228","684341","907532","24.782978","7.321979","0.007503","689958","883011","763465","14.891177","4.049160","-0.005502","797377","896392","816613","11.782031","3.092807","0.001280","802565","920215","864647","9.265600","2.357864","0.014418","701688","850816","955209","6.205955","1.446094","0.019573","2855","3314","3507","2770","2618","2560","2531","2560","2570","2399","2675","2769","2090","2312","2379",""
"MA200-0416","28738","86","1","1.10","1.4","2023-05-26T16:07:31","120","2023/05/26","16:07:31","-15.795765221118927","35.00295533309691","0.0","14","30","64","10","-5628","-6528","-24976","4","150","150.36","117.10","33.25","29.01","40.0","14.05","90256","28.94","DUALSPOT-UV-BLUE-GREEN-RED-IR","660348","684119","907629","24.919926","7.364177","0.004324","688761","882294","763093","15.011184","4.084869","0.004109","796198","895779","816302","11.885926","3.122300","-0.000043","801609","919725","864376","9.351076","2.380538","-0.010369","701275","850679","955198","6.263075","1.459397","-0.048917","6868","7453","7698","7597","7960","8096","7365","7363","7362","7323","6840","6675","6813","5588","5215",""
"MA200-0416","28739","86","1","1.10","1.4","2023-05-26T16:08:01","120","2023/05/26","16:08:01","-15.795762419700623","35.00294749974273","0.1","14","30","64","10","-5700","-6556","-25156","4","150","149.96","117.34","32.62","29.00","40.1","14.06","90252","28.94","DUALSPOT-UV-BLUE-GREEN-RED-IR","659264","683384","906872","25.004612","7.390220","0.005242","687860","881546","762619","15.080816","4.104610","0.001761","795499","895394","816079","11.944994","3.138620","-0.000694","800679","918918","863730","9.395430","2.391582","-0.017292","700704","850180","954674","6.294153","1.466118","-0.064701","4238","4689","4878","4399","4486","4519","4179","4153","4144","3792","3397","3262","3699","2878","2629",""
"MA200-0416","28740","86","1","1.10","1.4","2023-05-26T16:08:31","120","2023/05/26","16:08:31","-15.795773565769196","35.002943666419014","0.1","14","30","64","10","-5324","-6364","-24996","4","150","149.99","116.97","33.02","28.99","40.1","14.05","90256","28.94","DUALSPOT-UV-BLUE-GREEN-RED-IR","658961","683365","907020","25.067614","7.410164","0.005868","687931","881932","763055","15.128731","4.118831","0.004371","794886","894927","815736","11.984608","3.149938","0.001363","799205","917440","862414","9.427994","2.401942","0.015448","699929","849398","953852","6.314508","1.471567","-0.011450","3163","3547","3709","3036","3193","3251","2811","2846","2858","2793","3147","3269","2431","2305","2267",""
"MA200-0416","28741","86","1","1.10","1.4","2023-05-26T16:09:01","120","2023/05/26","16:09:01","-15.79577499628067","35.00295416638255","0.0","14","30","64","10","-5660","-6492","-24912","4","150","150.29","117.10","33.19","28.98","40.1","14.07","90252","28.88","DUALSPOT-UV-BLUE-GREEN-RED-IR","658306","682970","906663","25.128894","7.430036","0.006763","687153","881204","762545","15.176231","4.133213","0.005659","794645","894881","815805","12.023210","3.160524","-0.003822","799002","917400","862429","9.455241","2.409190","-0.009496","699994","849561","954107","6.332834","1.475970","-0.039103","3073","3517","3703","3007","3212","3289","2736","2648","2616","2334","2191","2142","2186","1853","1752",""
"MA200-0416","28742","86","1","1.10","1.4","2023-05-26T16:09:31","120","2023/05/26","16:09:31","-15.795778274536133","35.002959499834105","0.0","14","30","64","10","-5748","-6564","-24712","4","150","149.83","117.14","32.69","28.97","40.1","14.05","90252","28.88","DUALSPOT-UV-BLUE-GREEN-RED-IR","657147","682041","905648","25.192462","7.450361","0.006812","686638","880850","762341","15.228390","4.148376","0.003577","793895","894310","815353","12.064520","3.172803","0.006742","797944","916370","861571","9.488482","2.419072","0.008516","699766","849408","953968","6.351501","1.481059","-0.004868","3187","3652","3847","3300","3439","3490","2927","3118","3186","2846","3033","3097","2226","2174","2159",""
"MA200-0416","28743","86","1","1.10","1.4","2023-05-26T16:10:01","120","2023/05/26","16:10:01","-15.795770108699799","35.002946333028376","0.0","14","30","64","10","-5619","-6715","-26038","4","150","149.59","117.04","32.55","28.95","40.0","14.01","90252","28.88","DUALSPOT-UV-BLUE-GREEN-RED-IR","656944","682057","905814","25.243278","7.466726","0.007264","685858","880076","761759","15.268948","4.161203","0.010400","793694","894298","815420","12.099846","3.183198","0.006050","798566","917271","862471","9.515232","2.426135","-0.007644","699639","849361","953968","6.370485","1.486239","-0.003919","2550","2953","3122","2568","2921","3053","2505","2651","2703","2293","2177","2137","2265","2223","2210",""
"MA200-0416","28744","86","1","1.10","1.4","2023-05-26T16:10:31","120","2023/05/26","16:10:31","-15.79576164484024","35.00294666667469","0.0","14","30","64","10","-5532","-6564","-25288","4","150","149.80","117.04","32.75","28.95","40.1","14.02","90256","28.88","DUALSPOT-UV-BLUE-GREEN-RED-IR","656249","681610","905420","25.296756","7.483522","0.005849","685738","880232","762007","15.311562","4.172941","-0.001452","793233","894042","815278","12.134424","3.193521","0.006853","797410","916147","861487","9.542155","2.434921","0.019106","699296","849082","953693","6.387180","1.489306","-0.127072","2683","3011","3149","2699","2656","2640","2452","2616","2675","2307","2691","2822","1992","1308","1099",""
"MA200-0416","28745","86","1","1.10","1.4","2023-05-26T16:11:01","120","2023/05/26","16:11:01","-15.795759975910187","35.00294749974273","0.0","14","30","64","10","-5536","-6672","-24008","4","150","149.39","117.06","32.32","28.94","40.1","14.04","90256","28.88","DUALSPOT-UV-BLUE-GREEN-RED-IR","655056","681008","904966","25.431580","7.527157","0.007728","684462","879330","761474","15.428761","4.206129","0.002206","792331","893671","815193","12.236932","3.223425","0.005832","796478","915612","861157","9.625935","2.457123","-0.005917","698721","848745","953447","6.445492","1.503916","-0.021290","6764","7929","8419","7421","7612","7683","7269","7681","7828","7180","6891","6793","6958","6314","6118",""
"MA200-0416","28746","86","1","1.10","1.4","2023-05-26T16:11:31","120","2023/05/26","16:11:31","-15.795758187770844","35.00295566651039","0.0","15","30","64","10","-5537","-6554","-24787","4","150","150.36","116.91","33.45","28.94","40.2","14.07","90256","28.88","DUALSPOT-UV-BLUE-GREEN-RED-IR","654992","681158","905332","25.485802","7.545536","0.008149","684536","879670","761892","15.474031","4.221267","0.012166","792404","893949","815529","12.274612","3.232640","-0.020041","795975","915235","860910","9.656886","2.465647","-0.005518","698877","849073","953852","6.465517","1.509471","-0.006427","2724","3226","3438","2870","3354","3536","2675","2286","2147","2656","2556","2521","2392","2319","2297",""
"MA200-0416","28747","86","1","1.10","1.4","2023-05-26T16:12:01","120","2023/05/26","16:12:01","-15.79575514793396","35.00295133306645","0.0","15","30","64","9","-5524","-6772","-24280","4","150","149.33","116.67","32.66","28.94","40.3","14.09","90256","28.88","DUALSPOT-UV-BLUE-GREEN-RED-IR","649682","677864","902321","25.833488","7.655298","0.005947","684010","881923","764850","15.804032","4.316110","0.002240","787411","890960","813737","12.565339","3.313548","-0.000638","790832","911680","858342","9.901938","2.531189","-0.006433","694974","845932","950946","6.645078","1.555175","-0.020226","17504","19740","20681","20969","21528","21738","20688","20567","20524","21073","20134","19811","21500","19549","18953",""
"MA200-0416","28748","86","1","1.10","1.4","2023-05-26T16:12:31","120","2023/05/26","16:12:31","-15.7957643866539","35.00295999995433","0.0","15","30","64","9","-5616","-6568","-25020","4","150","149.94","116.96","32.98","28.93","40.4","14.12","90256","28.88","DUALSPOT-UV-BLUE-GREEN-RED-IR","649948","679084","904545","26.173016","7.764538","0.006386","679161","876890","760945","16.137318","4.413481","0.002941","786920","891691","814840","12.880731","3.400391","-0.002549","792627","914904","861772","10.180003","2.604299","-0.009792","695859","847893","953425","6.853328","1.604520","-0.038409","17050","19457","20472","21124","21889","22177","22387","21863","21676","23852","22243","21690","24873","20903","19690",""
"MA200-0416","28749","86","1","1.10","1.4","2023-05-26T16:13:01","120","2023/05/26","16:13:01","-15.795771300792694","35.00296266656369","0.0","15","30","64","9","-5640","-6488","-24900","4","150","150.09","116.87","33.23","28.92","40.5","14.14","90252","28.88","DUALSPOT-UV-BLUE-GREEN-RED-IR","649550","678910","904527","26.230168","7.785331","0.010846","679589","877787","761834","16.189804","4.429186","0.004153","786589","891603","814860","12.926002","3.414225","0.007132","791441","913782","860813","10.217349","2.614635","-0.003639","695424","847507","953061","6.880148","1.611141","-0.030219","2872","3675","4014","3329","3503","3569","3216","3456","3542","3206","3120","3091","3205","2783","2654",""
"MA200-0416","28750","86","1","1.10","1.4","2023-05-26T16:13:31","120","2023/05/26","16:13:31","-15.79577499628067","35.0029608332552","0.0","15","30","64","9","-5524","-6636","-24960","4","150","150.21","117.50","32.71","28.92","40.5","14.15","90256","28.88","DUALSPOT-UV-BLUE-GREEN-RED-IR","649705","679340","905291","26.285156","7.804346","0.009744","679037","877355","761545","16.237316","4.443777","0.007656","786528","891772","815122","12.966945","3.425891","0.002379","791500","914093","861171","10.251076","2.624016","-0.000106","695381","847595","953229","6.902204","1.616504","-0.028678","2748","3414","3695","2997","3306","3423","2892","2960","2984","2879","2877","2876","2622","2290","2188",""
"MA200-0416","28751","86","1","1.10","1.4","2023-05-26T16:14:01","120","2023/05/26","16:14:01","-15.795776128768921","35.00296933273785","0.0","15","30","64","9","-5672","-6428","-24680","4","150","150.28","117.54","32.74","28.91","40.6","14.17","90256","28.88","DUALSPOT-UV-BLUE-GREEN-RED-IR","648126","677946","903579","26.344814","7.824201","0.008240","682602","882278","765946","16.286301","4.458668","0.006860","785731","891133","814611","13.008301","3.438115","0.005907","791359","914121","861305","10.285322","2.633559","0.000051","695383","847731","953450","6.927273","1.624134","0.015588","2981","3562","3807","3089","3371","3477","2920","3099","3164","2923","2924","2924","2979","3255","3339",""
"MA200-0416","28752","86","1","1.10","1.4","2023-05-26T16:14:31","120","2023/05/26","16:14:31","-15.79578012228012","35.002982166130096","0.0","15","30","64","9","-5520","-6636","-25660","4","150","149.70","116.79","32.91","28.91","40.6","14.19","90256","28.88","DUALSPOT-UV-BLUE-GREEN-RED-IR","648161","678428","904522","26.442794","7.856773","0.007698","682014","882021","765912","16.371710","4.484678","0.006109","785738","891652","815277","13.083777","3.459668","0.001357","790931","914029","861331","10.346213","2.650022","-0.005582","695101","847683","953496","6.969854","1.633987","-0.043746","4927","5812","6187","5421","5859","6024","5365","5436","5462","5230","5018","4945","5093","4182","3903",""
"MA200-0416","28753","86","1","1.10","1.4","2023-05-26T16:15:01","120","2023/05/26","16:15:01","-15.795766532421112","35.00297016627155","0.0","15","30","64","9","-5752","-6592","-25568","4","150","149.50","117.06","32.43","28.90","40.6","14.19","90256","28.88","DUALSPOT-UV-BLUE-GREEN-RED-IR","647706","678187","904348","26.497052","7.876327","0.011313","677644","876631","761355","16.415627","4.498155","0.007862","784603","890560","814374","13.120579","3.470301","0.004200","790019","913174","860625","10.376102","2.658903","0.008557","694285","846845","952610","6.989942","1.639029","-0.020041","2722","3541","3887","2781","3080","3193","2609","2721","2762","2561","2747","2811","2397","2171","2102",""
"MA200-0416","28754","86","1","1.10","1.4","2023-05-26T16:15:31","120","2023/05/26","16:15:31","-15.795757293701172","35.00296516646631","0.1","15","30","64","9","-5616","-6628","-25096","4","150","150.49","116.74","33.75","28.90","40.6","14.19","90260","28.88","DUALSPOT-UV-BLUE-GREEN-RED-IR","646525","677741","904263","26.661056","7.926386","0.002763","680708","881393","765734","16.532692","4.530998","-0.002561","784279","890890","814877","13.218518","3.497552","-0.004060","795237","919770","867024","10.455957","2.679991","-0.012581","694159","847076","952964","7.045023","1.651956","-0.046245","8251","8712","8907","7433","7214","7131","6965","6704","6610","6862","6269","6064","6590","5351","4971",""
"MA200-0416","28755","86","1","1.10","1.4","2023-05-26T16:16:01","120","2023/05/26","16:16:01","-15.795756936073303","35.00298083294183","0.0","15","30","64","9","-5900","-6542","-24615","4","150","149.40","116.88","32.52","28.90","40.6","14.18","90256","28.88","DUALSPOT-UV-BLUE-GREEN-RED-IR","646587","678063","904849","26.728710","7.948091","0.006689","676618","876373","761483","16.585615","4.546869","0.005836","784513","891385","815418","13.264030","3.509253","-0.008701","794887","919609","866945","10.494044","2.690196","-0.005015","694484","847606","953609","7.072988","1.658018","-0.057400","3399","3919","4140","3356","3617","3716","3232","2986","2898","3269","3147","3105","3342","2603","2377",""
"MA200-0416","28756","86","1","1.10","1.4","2023-05-26T16:16:31","120","2023/05/26","16:16:31","-15.795765101909637","35.002977499505505","0.0","15","30","64","9","-5628","-6432","-24984","4","150","149.73","116.79","32.94","28.90","40.6","14.18","90256","28.88","DUALSPOT-UV-BLUE-GREEN-RED-IR","645579","677237","903913","26.775364","7.963426","0.007124","680412","881519","766053","16.626015","4.559185","0.006034","783044","889906","814180","13.297773","3.520858","0.017294","794568","919404","866820","10.518983","2.697420","0.003358","693562","846587","952515","7.089720","1.662471","-0.011146","2346","2734","2899","2564","2771","2850","2398","2925","3115","2142","2200","2220","2001","1889","1854",""
"MA200-0416","28757","86","1","1.10","1.4","2023-05-26T16:17:01","120","2023/05/26","16:17:01","-15.795774102210999","35.00295116659254","0.0","15","30","64","9","-5732","-6511","-24808","4","150","149.96","116.98","32.98","28.90","40.6","14.18","90252","28.81","DUALSPOT-UV-BLUE-GREEN-RED-IR","645037","677141","904058","26.857414","7.991846","0.009146","674883","874914","760543","16.694820","4.580993","0.008770","782731","890061","814500","13.357780","3.538149","0.002195","788736","913060","860997","10.568477","2.712053","0.005832","693742","847061","953182","7.123193","1.670963","-0.021122","4119","5061","5460","4360","4902","5108","4258","4353","4387","4244","4451","4523","3997","3597","3474",""
"MA200-0416","28758","86","1","1.10","1.4","2023-05-26T16:17:31","120","2023/05/26","16:17:31","-15.795777976512909","35.002950166584924","0.1","15","30","64","9","-5836","-6632","-24564","4","150","149.40","117.04","32.36","28.90","40.7","14.21","90256","28.81","DUALSPOT-UV-BLUE-GREEN-RED-IR","638813","673520","901066","27.436596","8.178987","0.007063","674332","877661","764191","17.209676","4.734403","0.005629","777666","887432","813216","13.805695","3.666145","0.003169","788725","915724","864464","10.935687","2.811932","-0.002037","690109","844359","950806","7.375576","1.735677","-0.014208","29066","33970","36052","32611","35147","36109","31773","32841","33227","31477","30968","30792","30123","27938","27266",""
"MA200-0416","28759","86","1","1.10","1.4","2023-05-26T16:18:01","120","2023/05/26","16:18:01","-15.795774281024933","35.00294016650878","0.0","15","30","64","8","-5624","-6504","-25008","4","150","150.01","116.45","33.55","28.89","40.7","14.21","90252","28.81","DUALSPOT-UV-BLUE-GREEN-RED-IR","637667","673993","902932","27.844586","8.316089","0.006882","673130","878084","765334","17.559080","4.840679","0.004061","776299","887564","814012","14.106422","3.753716","0.001011","788113","916529","865796","11.183846","2.881222","-0.003890","690081","845297","952226","7.542339","1.777845","-0.025291","20578","23999","25456","22242","23480","23950","21439","21667","21750","21379","20718","20488","20004","17555","16800",""
"MA200-0416","28760","86","1","1.10","1.4","2023-05-26T16:18:31","120","2023/05/26","16:18:31","-15.79576861858368","35.002948499750346","0.0","15","30","64","8","-5760","-6604","-24488","4","150","150.35","117.46","32.89","28.88","40.7","14.20","90256","28.81","DUALSPOT-UV-BLUE-GREEN-RED-IR","635750","672959","902196","28.107754","8.405703","0.008381","671244","876723","764560","17.775434","4.907753","0.007249","774698","886807","813685","14.295614","3.807604","0.001599","787469","916693","866231","11.338873","2.923822","-0.002282","689289","844905","951982","7.647197","1.803214","-0.028321","13159","16002","17214","13654","15116","15674","13372","13601","13685","13241","12993","12907","12470","10774","10250",""
"MA200-0416","28761","86","1","1.10","1.4","2023-05-26T16:19:01","120","2023/05/26","16:19:01","-15.795773565769196","35.002945999847725","0.0","15","30","64","8","-5412","-6643","-25560","4","150","149.99","117.05","32.94","28.87","40.8","14.20","90252","28.81","DUALSPOT-UV-BLUE-GREEN-RED-IR","639357","677357","908464","28.239666","8.449917","0.007584","668892","874188","762590","17.875196","4.937179","0.003487","777231","890211","817004","14.380551","3.832411","0.003407","784603","913772","863619","11.407455","2.942406","-0.004614","687694","843213","950161","7.693172","1.813959","-0.037056","6619","7883","8423","6318","6622","6738","6024","6252","6335","5878","5660","5584","5487","4556","4269",""
"MA200-0416","28762","86","1","1.10","1.4","2023-05-26T16:19:31","120","2023/05/26","16:19:31","-15.795777440071106","35.00296116643585","0.0","15","30","64","8","-10500","-4732","-23796","4","150","149.67","116.82","32.85","28.87","40.8","14.20","90252","28.75","DUALSPOT-UV-BLUE-GREEN-RED-IR","638444","677695","909833","28.449196","8.519342","0.007128","668651","875410","764195","18.047728","4.986931","0.001879","776197","890314","817517","14.524317","3.870952","-0.004684","784072","914219","864369","11.523873","2.971214","-0.016755","687434","843587","950840","7.770744","1.834729","-0.008609","10535","12412","13215","10948","11227","11333","10217","9740","9566","9998","8797","8380","9276","8832","8694",""
"MA200-0416","28763","86","1","1.10","1.4","2023-05-26T16:20:01","120","2023/05/26","16:20:01","-15.795753180980682","35.00294416653924","0.1","15","30","64","8","-5572","-3455","-25300","4","150","150.05","117.39","32.66","28.90","40.8","14.26","90252","28.81","DUALSPOT-UV-BLUE-GREEN-RED-IR","629634","672889","906413","29.370498","8.829479","0.007860","661087","870279","761569","18.777664","5.212772","0.007150","769699","887093","816170","15.143016","4.052418","0.004549","777653","910325","862044","12.022547","3.110992","0.000828","688040","846610","955196","8.106216","1.921614","-0.012291","46098","55774","59933","46097","51261","53246","43757","46128","46994","42620","42937","43048","39922","37162","36305",""
"MA200-0416","28764","86","1","1.10","1.4","2023-05-26T16:20:31","120","2023/05/26","16:20:31","-15.795757710933685","35.002941833110526","0.1","15","30","64","8","-5600","-3704","-24792","4","150","149.92","116.55","33.37","28.90","40.9","14.27","90252","28.81","DUALSPOT-UV-BLUE-GREEN-RED-IR","626677","672850","908451","30.118588","9.077656","0.006145","658474","870157","762713","19.363230","5.389011","0.003420","766944","886959","817218","15.651438","4.199075","0.000645","776113","911230","863881","12.449621","3.228342","-0.004624","682519","841777","950419","8.413746","1.997970","-0.025071","37700","43681","46261","37245","39151","39886","36216","36486","36585","36762","35280","34761","36859","31963","30438",""
"MA200-0416","28765","86","1","1.10","1.4","2023-05-26T16:21:01","120","2023/05/26","16:21:01","-15.79575514793396","35.00294966623187","0.0","14","30","64","8","-5540","-3496","-25368","4","150","149.59","117.34","32.26","28.90","40.9","14.29","90252","28.81","DUALSPOT-UV-BLUE-GREEN-RED-IR","621776","671038","908290","30.884068","9.325129","0.006521","654792","868985","763045","19.946084","5.560894","0.004594","762696","885402","817019","16.163910","4.344267","0.002486","771960","909294","863068","12.884027","3.345012","-0.002489","684389","846148","956112","8.736755","2.077347","-0.018501","38318","45064","47981","36824","39504","40539","36261","37371","37779","37143","36289","35989","38456","34377","33105",""
"MA200-0416","28766","86","1","1.10","1.4","2023-05-26T16:21:31","120","2023/05/26","16:21:31","-15.79574567079544","35.00294749974273","0.1","14","30","64","8","-5516","-3620","-24848","4","150","149.62","116.74","32.87","28.90","40.9","14.28","90252","28.81","DUALSPOT-UV-BLUE-GREEN-RED-IR","614467","666778","905131","31.798634","9.636824","0.007289","648372","864790","761074","20.754644","5.811615","0.005936","756537","882337","815762","16.889824","4.558135","0.003527","766079","906023","861357","13.503809","3.520298","0.000432","676150","838508","948481","9.182110","2.190610","-0.015875","46013","55689","59896","51344","56538","58558","51623","54011","54893","53263","53494","53575","53291","48128","46511",""
"MA200-0416","28767","86","1","1.10","1.4","2023-05-26T16:22:01","120","2023/05/26","16:22:01","-15.795762777328491","35.00293333339505","0.0","14","30","64","8","-5424","-3480","-26100","4","150","150.28","116.63","33.66","28.90","40.9","14.29","90256","28.81","DUALSPOT-UV-BLUE-GREEN-RED-IR","608663","666256","908394","32.529904","9.874445","0.004710","643093","863924","762739","21.361334","5.994678","0.002791","751289","881504","817061","17.408946","4.708642","0.000365","762940","906902","863861","13.935508","3.638535","-0.005310","674110","839109","950364","9.497959","2.268737","-0.024325","36828","41468","43491","38563","40322","41008","36954","37127","37190","37136","35246","34578","37832","32428","30732",""
"MA200-0416","28768","86","1","1.10","1.4","2023-05-26T16:22:31","120","2023/05/26","16:22:31","-15.795765459537506","35.00293633295223","0.1","14","30","64","8","-5548","-3552","-25480","4","150","149.92","116.78","33.14","28.89","41.0","14.31","90252","28.81","DUALSPOT-UV-BLUE-GREEN-RED-IR","592259","659482","908422","35.849360","11.103073","0.008532","631581","858990","763119","23.646028","6.747295","0.007764","735570","872311","812482","19.306276","5.297089","0.005873","752291","902223","862644","15.472837","4.088526","0.002643","667999","836790","949915","10.549770","2.544637","-0.010511","166957","217739","240523","145035","168343","177650","134888","147407","152140","132075","136218","137706","125821","116290","113261",""
"MA200-0416","28769","86","1","1.10","1.4","2023-05-26T16:23:01","120","2023/05/26","16:23:01","-15.795758605003357","35.00295183318667","0.0","14","30","64","7","-5508","-3536","-25568","4","150","149.32","116.55","32.76","28.89","41.1","14.34","90252","28.81","DUALSPOT-UV-BLUE-GREEN-RED-IR","570706","649567","905820","38.174696","11.926926","0.007194","610872","848361","761412","25.768024","7.436718","0.006969","718064","867812","815257","21.177508","5.876768","0.005840","733162","893758","860424","17.046654","4.551482","0.003492","659798","836667","954038","11.684486","2.848255","-0.005825","117185","147689","161549","134971","155988","164514","133293","146886","152106","135474","141760","144049","136004","129450","127337",""
"MA200-0416","28770","86","1","1.10","1.4","2023-05-26T16:23:31","120","2023/05/26","16:23:31","-15.795753598213196","35.00295533309691","0.0","14","30","64","8","-5500","-3484","-25608","4","150","150.10","116.63","33.48","28.87","41.2","14.37","90256","28.81","DUALSPOT-UV-BLUE-GREEN-RED-IR","558243","645103","908179","41.678312","13.255306","0.007677","598759","843284","762517","28.855000","8.496696","0.007542","705402","864009","817020","23.996792","6.791872","0.006430","723202","892334","863713","19.491606","5.301428","0.004419","648898","830567","950420","13.471714","3.339545","-0.004426","176449","233072","259478","196221","234732","250805","200695","226951","237316","210325","224757","230149","214073","205014","202028",""
"MA200-0416","28771","86","1","1.10","1.4","2023-05-26T16:24:01","120","2023/05/26","16:24:01","-15.795739829540253","35.002954999916255","0.0","14","30","64","8","-5457","-3407","-25488","4","150","149.70","116.75","32.95","28.86","41.1","14.32","90252","28.81","DUALSPOT-UV-BLUE-GREEN-RED-IR","556267","644397","908783","42.154312","13.453548","0.009756","597149","843126","763478","29.290390","8.659101","0.010701","702639","862638","816771","24.399354","6.932408","0.010190","720297","890665","863025","19.847864","5.417251","0.008706","646985","829611","950044","13.746666","3.416950","-0.000250","23948","35336","40675","27646","36537","40268","28627","35408","38100","30615","35265","37010","32899","32815","32787",""
"MA200-0416","28772","86","1","1.10","1.4","2023-05-26T16:24:31","120","2023/05/26","16:24:31","-15.795739948749542","35.002959166420624","0.1","14","30","64","7","-5476","-3600","-25580","4","150","150.21","116.84","33.38","28.85","41.0","14.29","90252","28.81","DUALSPOT-UV-BLUE-GREEN-RED-IR","555214","643835","908641","42.355500","13.536831","0.009386","595632","841794","762756","29.479342","8.729454","0.010214","702038","862789","817332","24.576302","6.993247","0.009010","720151","891296","864014","20.008826","5.468810","0.007144","646591","829755","950506","13.872761","3.452913","-0.000163","10114","14655","16788","11989","15624","17154","12573","15132","16150","13821","15496","16127","15076","15051","15042",""
"MA200-0416","28773","86","1","1.10","1.4","2023-05-26T16:25:01","120","2023/05/26","16:25:01","-15.795742809772491","35.00296749966219","0.0","14","30","64","7","-5466","-3495","-25779","4","150","150.35","116.84","33.52","28.84","41.0","14.28","0","0.00","DUALSPOT-UV-BLUE-GREEN-RED-IR","545319","638246","905802","43.360268","13.906231","0.006758","586224","836240","761452","30.456182","9.058346","0.006507","691904","857677","815970","25.467094","7.278973","0.005572","709777","885312","861247","20.788296","5.704969","0.003453","643896","831462","954716","14.475159","3.615329","-0.006023","50512","64734","71448","61981","72743","77299","63299","70775","73766","66933","70689","72110","72026","67692","66250",""
