"Serial number","Datum ID","Session ID","Data format version","Firmware version","App version","Date / time local","Timezone offset (mins)","Date local (yyyy/MM/dd)","Time local (hh:mm:ss)","GPS lat (ddmm.mmmmm)","GPS long (dddmm.mmmmm)","GPS speed (km/h)","GPS sat count","Timebase (s)","Status","Battery remaining (%)","Accel X","Accel Y","Accel Z","Tape position","Flow setpoint (mL/min)","Flow total (mL/min)","Flow1 (mL/min)","Flow2 (mL/min)","Sample temp (C)","Sample RH (%)","Sample dewpoint (C)","Internal pressure (Pa)","Internal temp (C)","Optical config","UV Sen1","UV Sen2","UV Ref","UV ATN1","UV ATN2","UV K","Blue Sen1","Blue Sen2","Blue Ref","Blue ATN1","Blue ATN2","Blue K","Green Sen1","Green Sen2","Green Ref","Green ATN1","Green ATN2","Green K","Red Sen1","Red Sen2","Red Ref","Red ATN1","Red ATN2","Red K","IR Sen1","IR Sen2","IR Ref","IR ATN1","IR ATN2","IR K","UV BC1","UV BC2","UV BCc","Blue BC1","Blue BC2","Blue BCc","Green BC1","Green BC2","Green BCc","Red BC1","Red BC2","Red BCc","IR BC1","IR BC2","IR BCc","Readable status"
"MA200-0416","26555","77","1","1.10","1.4","2023-05-22T13:44:30","120","2023/05/22","13:44:30","-15.828863501548767","35.08731131255627","0.2","14","30","66","78","-23450","-7825","3650","3","150","145.96","110.61","35.35","39.12","37.4","21.94","89348","38.13","DUALSPOT-UV-BLUE-GREEN-RED-IR","863017","739567","907794","0.000000","0.000000","0.000000","809024","918474","758630","0.000000","0.000000","0.000000","907621","925679","813434","0.000000","0.000000","0.000000","890285","944445","862464","0.000000","0.000000","0.000000","746514","865930","953629","0.000000","0.000000","0.000000","","","","","","","","","","","","","","","","Start up"
"MA200-0416","26556","77","1","1.10","1.4","2023-05-22T13:45:00","120","2023/05/22","13:45:00","-15.828838050365448","35.087320141494274","0.1","14","30","66","78","-23456","-7756","3812","3","150","150.43","113.64","36.78","39.12","35.5","21.10","89324","38.31","DUALSPOT-UV-BLUE-GREEN-RED-IR","860495","738145","906549","0.000000","0.000000","0.000000","813229","923651","763233","0.000000","0.000000","0.000000","910688","929086","816764","0.000000","0.000000","0.000000","887914","942155","860618","0.000000","0.000000","0.000000","745126","864515","952204","0.000000","0.000000","0.000000","","","","","","","","","","","","","","","","Start up"
"MA200-0416","26557","77","1","1.10","1.4","2023-05-22T13:45:30","120","2023/05/22","13:45:30","-15.828871846199036","35.08732698112726","0.1","14","30","66","78","-23336","-7728","3476","3","150","150.01","113.35","36.66","39.11","33.8","20.27","89320","38.38","DUALSPOT-UV-BLUE-GREEN-RED-IR","860790","739325","908469","0.000000","0.000000","0.000000","813407","924411","764121","0.000000","0.000000","0.000000","907953","926745","814907","0.000000","0.000000","0.000000","890116","944743","863196","0.000000","0.000000","0.000000","746632","866471","954464","0.000000","0.000000","0.000000","","","","","","","","","","","","","","","","Start up"
"MA200-0416","26558","77","1","1.10","1.4","2023-05-22T13:46:01","120","2023/05/22","13:46:01","-15.828862011432648","35.08732397854328","0.1","14","30","66","78","-21204","-14387","1643","3","150","149.57","113.37","36.20","39.10","32.5","19.66","89320","38.38","DUALSPOT-UV-BLUE-GREEN-RED-IR","860660","740069","909948","0.000000","0.000000","0.000000","813519","925107","764947","0.000000","0.000000","0.000000","907733","926879","815216","0.000000","0.000000","0.000000","889651","944532","863169","0.000000","0.000000","0.000000","746506","866493","954556","0.000000","0.000000","0.000000","","","","","","","","","","","","","","","","Start up"
"MA200-0416","26559","77","1","1.10","1.4","2023-05-22T13:46:31","120","2023/05/22","13:46:31","-15.82887464761734","35.087321653962135","0.0","14","30","66","78","-21336","-13840","1800","3","150","149.57","113.88","35.68","39.08","31.7","19.22","89320","38.44","DUALSPOT-UV-BLUE-GREEN-RED-IR","858749","739394","909523","0.000000","0.000000","0.000000","812278","924423","764596","0.000000","0.000000","0.000000","907386","927073","815613","0.000000","0.000000","0.000000","889984","945281","863974","0.000000","0.000000","0.000000","746969","867245","955476","0.000000","0.000000","0.000000","","","","","","","","","","","","","","","","Start up"
"MA200-0416","26560","77","1","1.10","1.4","2023-05-22T13:47:01","120","2023/05/22","13:47:01","-15.828830480575562","35.08732198178768","0.0","14","30","64","78","-20888","-14684","1536","3","150","149.80","113.85","35.95","39.07","31.2","18.96","89320","38.44","DUALSPOT-UV-BLUE-GREEN-RED-IR","857936","739885","910713","0.000000","0.000000","0.000000","806091","918280","759827","0.000000","0.000000","0.000000","905900","926280","815153","0.000000","0.000000","0.000000","888886","944637","863596","0.000000","0.000000","0.000000","746550","867083","955366","0.000000","0.000000","0.000000","","","","","","","","","","","","","","","",""
"MA200-0416","26561","77","1","1.10","1.4","2023-05-22T13:47:30","120","2023/05/22","13:47:30","-15.828748762607574","35.087319642305374","0.1","14","30","64","78","-20791","-14633","1350","3","150","149.62","114.29","35.32","39.06","30.7","18.72","89316","38.50","DUALSPOT-UV-BLUE-GREEN-RED-IR","848645","732805","902379","0.176137","0.047033","0.000000","805416","918248","760048","0.116306","0.033218","0.000000","906059","927079","816026","0.096058","0.025886","0.000000","889913","946191","865154","0.071305","0.021374","0.000000","742604","862747","950729","0.046136","0.011900","0.000000","9051","7820","9051","7543","6971","7543","6977","6084","6977","6259","6070","6259","5639","4706","5639",""
"MA200-0416","26562","77","1","1.10","1.4","2023-05-22T13:48:01","120","2023/05/22","13:48:01","-15.828740954399109","35.08731981366873","0.1","14","30","64","78","-20876","-14556","244","3","150","149.90","114.04","35.85","39.06","30.3","18.51","89320","38.50","DUALSPOT-UV-BLUE-GREEN-RED-IR","848762","733623","903792","0.328559","0.093282","0.000000","805146","918512","760480","0.214701","0.063812","0.000000","906118","927524","816602","0.168306","0.050342","0.000000","890013","946588","865684","0.126552","0.038618","0.000000","742997","863363","951522","0.077470","0.021240","0.000000","7850","7576","7850","6396","6325","6396","5259","5662","5259","4860","4825","4860","3838","3638","3838",""
"MA200-0416","26563","77","1","1.10","1.4","2023-05-22T13:48:31","120","2023/05/22","13:48:31","-15.828686356544495","35.08732131123543","0.1","14","30","64","78","-20692","-14936","2008","3","150","149.53","114.09","35.44","39.06","29.9","18.29","89320","38.56","DUALSPOT-UV-BLUE-GREEN-RED-IR","849320","734577","905197","0.410921","0.116996","0.000000","805330","919094","761080","0.264322","0.077783","0.000000","906272","927950","817096","0.208456","0.061971","0.000000","883138","939487","859281","0.155806","0.048035","0.000000","743554","864130","952383","0.091396","0.025262","0.000000","4240","3930","4240","3224","2922","3224","2921","2724","2921","2572","2666","2572","1705","1585","1705",""
"MA200-0416","26564","77","1","1.10","1.4","2023-05-22T13:49:00","120","2023/05/22","13:49:00","-15.828684866428375","35.0873204767704","0.1","14","30","64","77","-20836","-14736","2064","3","150","149.46","114.29","35.17","39.05","29.7","18.15","89320","38.56","DUALSPOT-UV-BLUE-GREEN-RED-IR","846775","733062","903603","0.542484","0.151140","0.000000","804058","918129","760452","0.342178","0.099271","0.000000","900937","922888","812786","0.268990","0.078553","0.000000","881275","937811","857862","0.199651","0.059437","0.000000","742671","863237","951460","0.117370","0.031989","0.000000","6761","5702","6761","5049","4529","5049","4397","3914","4397","3848","3252","3848","3174","2671","3174",""
"MA200-0416","26565","77","1","1.10","1.4","2023-05-22T13:49:30","120","2023/05/22","13:49:30","-15.828700840473175","35.087312147021294","0.1","14","30","64","78","-20772","-14728","1635","3","150","149.86","114.38","35.48","39.06","29.4","18.00","89320","38.56","DUALSPOT-UV-BLUE-GREEN-RED-IR","848708","735258","906564","0.640031","0.178886","0.000000","806161","920958","762914","0.408339","0.119091","0.000000","906117","928528","817841","0.320786","0.094402","0.000000","890958","948347","867577","0.238013","0.072437","0.000000","743528","864384","952799","0.140922","0.039424","0.000000","5009","4593","5009","4287","4141","4287","3759","3709","3759","3364","3676","3364","2876","2928","2876",""
"MA200-0416","26566","77","1","1.10","1.4","2023-05-22T13:50:00","120","2023/05/22","13:50:00","-15.828706085681915","35.087290808558464","0.0","14","30","64","78","-21450","-13646","1592","3","150","150.01","114.38","35.63","39.06","29.3","17.96","89320","38.63","DUALSPOT-UV-BLUE-GREEN-RED-IR","847669","735474","907318","0.801705","0.220167","0.000000","805458","921209","763424","0.519609","0.147819","0.000000","897825","920864","811354","0.408029","0.117993","0.000000","883337","940894","860925","0.301563","0.088524","0.000000","744691","866157","954854","0.181470","0.048965","0.000000","8302","6805","8302","7211","5977","7211","6332","5497","6332","5574","4530","5574","4952","3740","4952",""
"MA200-0416","26567","77","1","1.10","1.4","2023-05-22T13:50:31","120","2023/05/22","13:50:31","-15.828745126724243","35.0872969776392","0.1","14","30","64","77","-21412","-13648","1460","3","150","149.70","114.36","35.34","39.06","29.1","17.85","89320","38.63","DUALSPOT-UV-BLUE-GREEN-RED-IR","827472","730492","908004","2.498744","0.719263","0.000000","789235","915571","763488","1.909828","0.557130","0.000000","886530","920175","814979","1.563156","0.455760","0.000000","871340","936990","860888","1.211679","0.353086","0.000000","737576","863212","954145","0.776687","0.221185","0.000000","87160","82956","87160","90119","85867","90119","83859","79356","83859","79844","75112","79844","72708","68081","72708",""
"MA200-0416","26568","77","1","1.10","1.4","2023-05-22T13:51:01","120","2023/05/22","13:51:01","-15.828795671463013","35.087304815649986","0.2","14","30","64","77","-21428","-13612","1627","3","150","150.03","113.96","36.07","39.07","28.4","17.45","89316","38.69","DUALSPOT-UV-BLUE-GREEN-RED-IR","791298","719457","907060","7.204784","2.240890","0.004236","760605","903877","762338","5.736506","1.783884","0.003223","859545","910788","814419","4.821831","1.487118","0.000023","850560","930071","861059","3.827537","1.169044","-0.005515","721299","853551","948054","2.478824","0.742449","0.000000","242548","247808","250183","248926","252157","253615","237398","237416","237424","230288","226982","225528","208648","201903","208648",""
"MA200-0416","26569","77","1","1.10","1.4","2023-05-22T13:51:30","120","2023/05/22","13:51:30","-15.828802347183228","35.08730831742287","0.2","14","30","64","77","-21417","-13159","3185","3","150","149.67","114.23","35.44","39.09","28.3","17.43","89316","38.81","DUALSPOT-UV-BLUE-GREEN-RED-IR","764650","709298","903389","10.228809","3.251875","0.009989","741040","895396","761238","8.206294","2.583629","0.007315","844271","907498","816914","6.927157","2.156132","0.004918","839936","929205","864740","5.526846","1.696205","-0.000013","715245","852875","950582","3.603469","1.089976","-0.001582","155491","167561","173186","160283","167297","170519","153015","156732","158412","149248","149241","149237","137535","136991","136756",""
"MA200-0416","26570","77","1","1.10","1.4","2023-05-22T13:52:00","120","2023/05/22","13:52:00","-15.828804433345795","35.08730947971344","0.1","14","30","64","77","-21479","-13304","3091","3","150","149.54","114.34","35.20","39.14","28.5","17.56","89316","39.00","DUALSPOT-UV-BLUE-GREEN-RED-IR","744352","703909","906203","13.230946","4.314583","0.013752","724216","889354","762652","10.680447","3.429210","0.013075","824461","898803","814919","9.041918","2.862757","0.012289","821428","919325","860399","7.235324","2.250719","0.010103","709184","852160","953250","4.722145","1.447815","0.011304","154212","177327","188513","160406","178084","186443","153548","166665","172742","149904","158048","161726","136669","142012","144375",""
"MA200-0416","26571","77","1","1.10","1.4","2023-05-22T13:52:30","120","2023/05/22","13:52:30","-15.828729927539825","35.08731447905302","0.2","14","30","64","77","-21196","-13516","3016","3","150","149.96","114.04","35.92","39.21","28.6","17.67","89320","39.13","DUALSPOT-UV-BLUE-GREEN-RED-IR","737320","703748","910879","15.094191","4.996975","0.012965","713459","883186","760597","12.238824","3.972824","0.011219","817346","897398","816599","10.402829","3.324747","0.009861","817487","920341","863845","8.353042","2.618009","0.007100","706847","852657","955660","5.461115","1.691289","0.011452","95964","111583","119313","101302","112192","117425","99074","106780","110399","98330","102586","104529","90519","94688","96558",""
"MA200-0416","26572","77","1","1.10","1.4","2023-05-22T13:53:00","120","2023/05/22","13:53:00","-15.82874482870102","35.08733465522528","0.1","14","30","64","77","-21237","-13445","2900","3","150","149.61","114.04","35.57","39.28","28.6","17.76","89324","39.31","DUALSPOT-UV-BLUE-GREEN-RED-IR","726492","698194","907135","16.050026","5.341085","0.011706","709844","883994","763594","13.037383","4.246624","0.009855","810095","894092","815698","11.102156","3.558916","0.008813","808812","914641","860272","8.930403","2.804374","0.005439","701467","848815","952725","5.862688","1.824767","0.014873","49229","56829","60619","51911","57071","59563","50912","54663","56433","50793","52572","53386","49191","52427","53890",""
"MA200-0416","26573","77","1","1.10","1.4","2023-05-22T13:53:30","120","2023/05/22","13:53:30","-15.828760266304016","35.087321147322655","0.2","14","30","64","77","-21236","-13728","2688","3","150","150.13","113.84","36.29","39.37","28.5","17.79","0","0.00","DUALSPOT-UV-BLUE-GREEN-RED-IR","722444","698595","910948","17.159620","5.746521","0.010502","701102","877812","760582","13.999257","4.585630","0.009695","805800","893769","817607","11.958377","3.853249","0.008666","807777","917367","864748","9.654097","3.044247","0.005686","700332","849999","955517","6.368236","1.987681","0.002448","57250","65621","69836","62638","69253","72475","62444","67337","69664","63780","66316","67484","62037","62713","63020",""
"MA200-0416","26574","77","1","1.10","1.4","2023-05-22T13:54:00","120","2023/05/22","13:54:00","-15.828795492649078","35.0873551517725","0.1","14","30","64","77","-24164","-7440","-548","3","150","149.70","113.96","35.74","39.44","28.3","17.72","0","0.00","DUALSPOT-UV-BLUE-GREEN-RED-IR","716742","694582","906889","17.475532","5.865978","0.013539","701567","880027","763260","14.262199","4.680599","0.012924","802341","891411","816120","12.190348","3.931760","0.008601","802804","912981","861185","9.848204","3.108251","0.007112","697888","847852","953528","6.504726","2.032589","0.010283","16282","19634","21328","17104","19701","20969","16899","18240","18878","17088","17969","18375","16730","17555","17930",""
"MA200-0416","26575","77","1","1.10","1.4","2023-05-22T13:54:31","120","2023/05/22","13:54:31","-15.828860521316528","35.08733097463846","0.3","14","30","64","77","-20588","-13700","4960","3","150","150.55","113.70","36.86","39.54","28.3","17.79","89332","39.81","DUALSPOT-UV-BLUE-GREEN-RED-IR","710579","690635","903212","17.984028","6.049120","0.007972","701004","881502","765539","14.682668","4.823286","0.004444","798368","888955","814763","12.559414","4.053504","0.002017","804064","916183","864961","10.160343","3.207356","-0.003046","698007","849174","955615","6.726225","2.100734","-0.011890","26268","29186","30664","27415","28700","29328","26949","27423","27649","27543","26977","26716","27214","25828","25199",""
"MA200-0416","26576","77","1","1.10","1.4","2023-05-22T13:55:00","120","2023/05/22","13:55:00","-15.828846335411072","35.08726181089878","0.2","14","30","64","77","-20492","-13976","4736","3","150","149.43","113.28","36.15","39.65","28.3","17.88","89336","39.94","DUALSPOT-UV-BLUE-GREEN-RED-IR","710516","692659","907372","18.457396","6.214672","0.006844","696242","877867","763309","15.079122","4.949838","0.000026","796891","889566","816166","12.924003","4.164785","-0.005315","797257","910494","860311","10.475619","3.294408","-0.023363","693609","845249","951769","6.958153","2.161798","-0.048892","24544","26898","28093","25944","25951","25955","26720","25556","25003","27922","24159","22432","28601","23596","21340",""
"MA200-0416","26577","77","1","1.10","1.4","2023-05-22T13:55:30","120","2023/05/22","13:55:30","-15.828874170780182","35.08728297799826","0.1","14","30","64","77","-20512","-13976","4628","3","150","150.49","113.77","36.72","39.78","27.9","17.77","89340","40.19","DUALSPOT-UV-BLUE-GREEN-RED-IR","704058","688655","903846","19.009918","6.416868","0.008848","690920","873616","760800","15.541580","5.109668","0.006149","793314","887874","815694","13.337154","4.298609","0.000406","799827","915598","866039","10.833181","3.403467","-0.008030","694654","848000","955517","7.213567","2.234196","-0.029665","28524","32345","34292","30132","32269","33316","30148","30259","30312","31530","29799","29006","31360","27544","25832",""
"MA200-0416","26578","77","1","1.10","1.4","2023-05-22T13:56:01","120","2023/05/22","13:56:01","-15.828868329524994","35.08726681023836","0.1","14","30","64","77","-20466","-14037","4529","3","150","149.96","114.24","35.72","39.91","27.6","17.72","89340","40.44","DUALSPOT-UV-BLUE-GREEN-RED-IR","708485","693212","909897","19.081512","6.441137","0.005904","689489","872010","759408","15.590306","5.123710","-0.008469","792094","886752","814663","13.384921","4.310220","-0.036525","796945","912478","863104","10.874705","3.411460","-0.117096","692683","845730","953000","7.247068","2.243249","-0.033794","3680","3990","4148","3161","2914","2793","3471","2698","2331","3646","2244","1604","4096","3540","3290",""
"MA200-0416","26579","77","1","1.10","1.4","2023-05-22T13:56:31","120","2023/05/22","13:56:31","-15.828864336013794","35.08725547790527","0.1","14","30","64","77","-20492","-14020","4724","3","150","150.23","113.68","36.54","40.03","27.8","17.92","89328","40.69","DUALSPOT-UV-BLUE-GREEN-RED-IR","706145","692285","909769","19.322266","6.522539","0.003758","692478","877394","764764","15.792014","5.183054","-0.009141","790655","886549","815075","13.560276","4.359305","-0.017341","794736","911222","862384","11.022868","3.449524","-0.037457","691045","844582","952073","7.351490","2.271301","-0.042416","12438","13083","13412","13153","12038","11494","12806","11151","10368","13075","10450","9254","12831","10723","9781",""
"MA200-0416","26580","77","1","1.10","1.4","2023-05-22T13:57:00","120","2023/05/22","13:57:00","-15.828862726688385","35.0872813090682","0.1","14","30","64","76","-20448","-14116","4856","3","150","149.64","113.59","36.04","40.17","27.9","18.12","89324","40.94","DUALSPOT-UV-BLUE-GREEN-RED-IR","704266","691341","909245","19.601986","6.632080","0.013332","691555","877212","765054","16.023687","5.267723","0.011505","789656","886404","815327","13.769310","4.428905","0.004918","792991","910076","861661","11.200897","3.505897","-0.000274","689879","843705","951346","7.479042","2.311525","-0.001212","14463","17849","19581","15119","17413","18537","15278","16031","16388","15724","15691","15676","15686","15589","15545",""
"MA200-0416","26581","77","1","1.10","1.4","2023-05-22T13:57:30","120","2023/05/22","13:57:30","-15.828761279582977","35.08723297715187","0.2","14","30","64","76","-20416","-14076","4624","3","150","149.64","113.75","35.90","40.33","27.9","18.27","89328","41.25","DUALSPOT-UV-BLUE-GREEN-RED-IR","703561","690864","908775","19.652934","6.650375","0.008778","691004","876698","764648","16.057913","5.277235","-0.013451","789411","886278","815284","13.800651","4.437566","-0.016261","791986","909109","860742","11.227465","3.510236","-0.209698","692782","847379","955559","7.499725","2.316808","-0.050762","2630","2993","3179","2230","1964","1834","2287","2003","1868","2343","1212","698","2540","2056","1839",""
"MA200-0416","26582","77","1","1.10","1.4","2023-05-22T13:58:00","120","2023/05/22","13:58:00","-15.828823447227478","35.087265975773335","0.3","14","30","64","76","-20328","-14468","4540","3","150","149.45","113.41","36.04","40.48","27.7","18.27","0","0.00","DUALSPOT-UV-BLUE-GREEN-RED-IR","699432","687416","904733","19.694932","6.667986","0.016536","687686","872990","761713","16.080605","5.285633","0.012246","787430","884480","813827","13.815795","4.440862","-0.062711","795829","913891","865419","11.238426","3.510291","0.295083","690324","844642","952597","7.511513","2.318904","-0.234098","2175","2870","3225","1483","1727","1847","1108","759","594","969","14","-418","1451","812","526",""
"MA200-0416","26583","77","1","1.10","1.4","2023-05-22T13:58:31","120","2023/05/22","13:58:31","-15.828864455223083","35.087261982262135","0.6","14","30","64","76","-20395","-14279","4804","3","150","149.40","113.29","36.11","40.63","27.5","18.26","0","0.00","DUALSPOT-UV-BLUE-GREEN-RED-IR","694044","685883","905738","20.435952","6.945133","0.010187","683197","871015","761750","16.618568","5.472339","0.007049","784344","884208","815054","14.260554","4.586137","0.002484","793280","913691","866444","11.595414","3.620332","-0.004314","688167","843789","952503","7.761612","2.393245","-0.013886","38417","45085","48517","35201","38334","39872","32592","33404","33789","31613","30577","30106","30838","28762","27837",""
"MA200-0416","26584","77","1","1.10","1.4","2023-05-22T13:59:00","120","2023/05/22","13:59:00","-15.828863501548767","35.08726814389229","0.1","14","30","64","76","-20300","-14166","4762","3","150","150.92","113.69","37.23","40.80","27.2","18.22","89332","41.94","DUALSPOT-UV-BLUE-GREEN-RED-IR","673496","676289","902832","23.241310","8.077856","0.011329","668236","862705","760371","18.754542","6.284935","0.010442","769441","877028","813564","16.068306","5.244017","0.008837","778856","905410","862815","13.070080","4.130322","0.005813","683557","843632","955377","8.771152","2.725464","0.000832","144929","178725","196728","139274","161824","173190","132008","146725","153854","130130","137448","140829","124042","124670","124954",""
"MA200-0416","26585","77","1","1.10","1.4","2023-05-22T13:59:30","120","2023/05/22","13:59:30","-15.82888948917389","35.087284319102764","0.2","14","30","64","76","-20464","-14528","3032","3","150","149.70","113.29","36.41","40.95","26.8","18.11","89332","42.13","DUALSPOT-UV-BLUE-GREEN-RED-IR","662716","671783","903034","24.586660","8.646563","0.013305","664902","864889","766038","19.777312","6.688499","0.012941","765297","877919","817513","16.920826","5.563552","0.011726","772609","902933","862911","13.758441","4.372967","0.009025","678863","840943","954112","9.244778","2.883607","0.005782","69752","91739","103665","66928","82165","89951","62477","72858","77943","60962","66858","69605","58403","60673","61701",""
"MA200-0416","26586","77","1","1.10","1.4","2023-05-22T14:00:00","120","2023/05/22","14:00:00","-15.82888948917389","35.08730614930391","0.1","14","30","64","76","-20508","-14758","2970","3","150","150.49","113.18","37.32","41.09","26.1","17.84","89332","42.19","DUALSPOT-UV-BLUE-GREEN-RED-IR","653306","668262","904275","26.384830","9.401735","0.011309","653655","855983","761297","21.049326","7.179363","0.009761","755432","871602","814295","17.974124","5.945820","0.007279","768012","901913","864085","14.604760","4.660249","0.002847","675853","840025","954545","9.811905","3.063358","-0.006077","93321","118867","133010","83320","97518","104867","77267","85051","88898","75024","77240","78278","70001","67292","66062",""
"MA200-0416","26587","77","1","1.10","1.4","2023-05-22T14:00:30","120","2023/05/22","14:00:30","-15.828888297080994","35.087291315197945","0.4","14","30","64","76","-20468","-14592","2928","3","150","150.70","113.46","37.24","41.19","25.8","17.76","89332","42.19","DUALSPOT-UV-BLUE-GREEN-RED-IR","646241","666830","908017","27.559608","9.894453","0.010974","648651","855273","763510","21.860018","7.467867","0.005192","750846","871637","816614","18.637240","6.159985","-0.001310","760694","898094","862225","15.141389","4.815943","-0.013538","670398","836468","951737","10.180626","3.161716","-0.036621","60815","77716","87182","52969","57434","59751","48522","47748","47366","47451","41946","39379","45397","36897","33069",""
"MA200-0416","26588","77","1","1.10","1.4","2023-05-22T14:01:00","120","2023/05/22","14:01:00","-15.828881025314331","35.0872563123703","0.3","14","30","64","76","-18896","-17176","2624","3","150","150.56","113.60","36.95","41.29","25.6","17.72","89332","42.13","DUALSPOT-UV-BLUE-GREEN-RED-IR","635929","661918","908377","29.678654","10.868216","0.013288","641917","851867","763822","23.285778","8.026260","0.010197","743726","868284","816127","19.832072","6.578947","0.005270","752909","893357","859665","16.137533","5.124307","-0.004722","669761","838751","955675","10.870716","3.346109","-0.031975","109559","154778","180904","93038","112022","122007","87319","94129","97509","87972","83721","81743","84857","69707","62970",""
"MA200-0416","26589","77","1","1.10","1.4","2023-05-22T14:01:31","120","2023/05/22","14:01:31","-15.828864336013794","35.087275475263596","0.1","14","30","64","76","-18950","-17269","2011","3","150","150.16","113.41","36.75","41.35","25.6","17.75","89336","42.00","DUALSPOT-UV-BLUE-GREEN-RED-IR","635096","660995","907366","29.746182","10.918058","0.022479","640594","850269","762526","23.355314","8.056988","0.015278","742842","867503","815482","19.906102","6.603647","0.002123","758409","900235","866394","16.212471","5.143535","-0.027080","668685","837754","954633","10.939781","3.362042","-0.065130","3497","7965","10555","4545","6197","7067","5419","5579","5658","6629","5248","4606","8507","6055","4967",""
"MA200-0416","26590","77","1","1.10","1.4","2023-05-22T14:02:01","120","2023/05/22","14:02:01","-15.82886403799057","35.08728063851595","0.1","14","30","64","76","-18792","-17004","2016","3","150","149.70","113.49","36.21","41.41","25.4","17.67","89340","41.88","DUALSPOT-UV-BLUE-GREEN-RED-IR","634224","659939","905963","29.732220","10.925886","0.043647","639671","848997","761428","23.357894","8.065462","0.039994","741678","866137","814237","19.915484","6.609494","0.029516","756634","898219","864459","16.226387","5.146844","-0.036752","667308","836119","952815","10.961361","3.367940","-0.023845","-722","1269","2427","168","1735","2561","686","1340","1665","1230","916","770","2656","2275","2105",""
"MA200-0416","26591","77","1","1.10","1.4","2023-05-22T14:02:30","120","2023/05/22","14:02:30","-15.828816831111908","35.087228149175644","0.3","13","30","64","76","-19000","-17192","2484","3","150","150.36","113.01","37.35","41.44","25.2","17.58","89340","41.81","DUALSPOT-UV-BLUE-GREEN-RED-IR","637995","663809","911340","29.712498","10.923382","-1.251650","643278","853762","765740","23.352516","8.064115","-0.025200","744108","869026","816963","19.913168","6.607145","0.037951","755995","897536","863776","16.226158","5.142897","0.060813","666441","835152","951715","10.972462","3.368999","3.549605","-1025","-393","-26","-352","-267","-222","-170","-522","-696","-20","-1059","-1542","1372","396","-36",""
"MA200-0416","26592","77","1","1.10","1.4","2023-05-22T14:03:01","120","2023/05/22","14:03:01","-15.828815758228302","35.087219811975956","0.5","13","30","64","75","-20036","-16216","512","3","150","149.46","112.92","36.54","41.44","25.0","17.42","89336","41.69","DUALSPOT-UV-BLUE-GREEN-RED-IR","635061","660875","907511","29.761242","10.950947","0.018205","640463","850180","762599","23.382686","8.079332","0.019691","741341","865904","814084","19.938442","6.615806","0.004059","751384","892162","858648","16.246126","5.147917","-0.029914","667548","836642","953497","10.994640","3.374975","-0.028979","2535","4430","5533","1980","3086","3670","1858","1967","2021","1774","1377","1193","2743","2284","2080",""
"MA200-0416","26593","77","1","1.10","1.4","2023-05-22T14:03:31","120","2023/05/22","14:03:31","-15.828791081905365","35.08726131170988","0.1","13","30","64","76","-20237","-15762","625","3","150","149.80","113.21","36.59","41.45","25.0","17.45","89332","41.56","DUALSPOT-UV-BLUE-GREEN-RED-IR","635299","661287","908259","29.798332","10.966986","0.011695","640628","850569","762998","23.409110","8.084024","-0.094358","741480","866296","814469","19.961824","6.620074","-0.093547","758241","900479","866651","16.265280","5.148810","0.305609","667428","836653","953551","11.015228","3.378780","-0.146579","1924","2574","2953","1730","950","539","1714","968","598","1697","245","-427","2540","1452","971",""
"MA200-0416","26594","77","1","1.10","1.4","2023-05-22T14:04:01","120","2023/05/22","14:04:01","-15.828858375549316","35.087284818291664","0.4","13","30","64","76","-20832","-13823","3064","3","150","149.61","113.17","36.44","41.45","24.9","17.40","89332","41.56","DUALSPOT-UV-BLUE-GREEN-RED-IR","629674","658235","907098","30.380368","11.221960","0.011971","637209","848161","762097","23.726586","8.206518","0.009801","742161","868778","817694","20.191438","6.698919","0.004474","755423","898595","865485","16.438311","5.201161","-0.005899","665995","835814","953001","11.132313","3.410455","-0.026902","30209","41097","47475","20797","24919","27099","16845","17963","18518","15340","14413","13984","14453","12142","11122",""
"MA200-0416","26595","77","1","1.10","1.4","2023-05-22T14:04:30","120","2023/05/22","14:04:30","-15.828919172286987","35.08729814738035","0.0","13","30","64","76","-20820","-13940","3384","3","150","149.45","112.69","36.76","41.47","24.8","17.32","89332","41.56","DUALSPOT-UV-BLUE-GREEN-RED-IR","624801","656289","907946","31.310676","11.638012","0.011860","635320","848166","763431","24.230706","8.396006","0.007805","736589","864372","814511","20.575236","6.828153","0.002246","754084","898786","866368","16.738625","5.289525","-0.009979","664867","835610","953279","11.338150","3.464873","-0.033093","48489","66484","77130","33163","38218","40898","28275","29191","29645","26737","24119","22910","25516","20682","18554",""
"MA200-0416","26596","77","1","1.10","1.4","2023-05-22T14:05:01","120","2023/05/22","14:05:01","-15.828883230686188","35.087290808558464","0.2","13","30","64","75","-21324","-12776","3960","3","150","150.03","112.81","37.22","41.51","24.7","17.32","89332","41.69","DUALSPOT-UV-BLUE-GREEN-RED-IR","614238","651743","909660","32.844468","12.351826","0.012084","628922","844939","763800","25.086366","8.739777","0.009983","731266","862526","815303","21.234704","7.069755","0.006688","743822","890457","860288","17.265156","5.463368","0.000060","662194","834983","953866","11.710258","3.571332","-0.020182","79859","112647","132410","56230","68471","75017","48534","53892","56567","46827","46860","46876","46079","39957","37270",""
"MA200-0416","26597","77","1","1.10","1.4","2023-05-22T14:05:30","120","2023/05/22","14:05:30","-15.828879177570343","35.087297812104225","0.2","13","30","64","75","-18975","-16845","4529","3","150","150.11","113.43","36.68","41.57","24.4","17.16","89332","41.81","DUALSPOT-UV-BLUE-GREEN-RED-IR","595022","639320","904245","35.655656","13.760765","0.013250","618218","836732","760919","26.566506","9.384979","0.013169","724014","859547","816137","22.433302","7.549089","0.011722","738987","890081","862954","18.294090","5.833632","0.007768","657993","834185","955246","12.517864","3.817801","-0.007032","145566","225614","275923","96734","130399","148788","87728","108494","119026","91006","101274","106082","99459","93867","91413",""
"MA200-0416","26598","77","1","1.10","1.4","2023-05-22T14:06:00","120","2023/05/22","14:06:00","-15.82886415719986","35.08727665245533","0.1","13","30","64","75","-18908","-16814","3674","3","150","149.67","112.82","36.85","41.61","24.2","17.04","89332","41.88","DUALSPOT-UV-BLUE-GREEN-RED-IR","565605","623584","906593","40.285476","16.169762","0.012355","594076","822128","762336","30.009580","10.992373","0.013461","698797","846808","817078","25.432628","8.864123","0.013549","717618","880502","864751","20.875932","6.884563","0.012876","639719","823193","950761","14.474369","4.524053","0.009178","241030","384016","479890","226235","323402","379567","220711","296309","336754","229590","286157","313991","242250","267763","279363",""
"MA200-0416","26599","77","1","1.10","1.4","2023-05-22T14:06:30","120","2023/05/22","14:06:30","-15.828906953334808","35.08733815699816","0.0","12","30","64","74","-19541","-16383","3025","3","150","150.65","113.08","37.57","41.66","24.1","17.06","89332","41.88","DUALSPOT-UV-BLUE-GREEN-RED-IR","541466","609086","904973","44.685520","18.454994","0.010956","569803","804535","760081","34.036660","12.923426","0.012242","673965","832562","816507","29.100956","10.533959","0.012612","694377","867136","863048","24.066158","8.249700","0.012654","624395","814710","949512","16.837860","5.444282","0.012022","228549","357227","447761","264010","380992","452597","269331","368963","425489","283048","364508","406996","291981","342127","366089",""
"MA200-0416","26600","77","1","1.10","1.4","2023-05-22T14:07:00","120","2023/05/22","14:07:00","-15.828945815563202","35.087349995970726","0.1","12","30","64","75","-20064","-15620","2736","3","150","150.24","112.63","37.61","41.69","24.2","17.11","89328","41.88","DUALSPOT-UV-BLUE-GREEN-RED-IR","537334","607494","907563","46.460420","19.361184","0.010239","564938","802155","761848","35.800820","13.770748","0.011623","665342","826546","814491","30.772092","11.299516","0.012033","690687","867150","866595","25.558192","8.894444","0.012167","621351","814384","951819","17.965450","5.887277","0.011584","92557","141537","176531","116114","167035","198866","123181","169015","195611","132902","172011","192885","139851","164562","176606",""
"MA200-0416","26601","77","1","1.10","1.4","2023-05-22T14:07:31","120","2023/05/22","14:07:31","-15.828938782215118","35.08737265318632","0.1","12","30","64","74","-19940","-15472","2480","3","150","149.73","113.36","36.38","41.75","24.1","17.11","89332","41.88","DUALSPOT-UV-BLUE-GREEN-RED-IR","538206","608326","908949","46.458808","19.388676","0.021758","565270","802701","762659","35.863968","13.820148","0.019533","664863","826117","814389","30.848524","11.348570","0.019862","690126","866726","866431","25.637604","8.936674","0.019587","620570","813632","951210","18.044544","5.921680","0.019174","-83","4439","7678","4129","10067","13790","5597","11195","14453","7028","11647","14118","9747","13211","14903",""
"MA200-0416","26602","77","1","1.10","1.4","2023-05-22T14:08:01","120","2023/05/22","14:08:01","-15.828905463218689","35.08734832704067","0.1","12","30","64","74","-19908","-15641","2629","3","150","149.96","113.80","36.16","41.75","24.1","17.11","89336","41.81","DUALSPOT-UV-BLUE-GREEN-RED-IR","536345","605967","905345","46.431084","19.389820","0.044447","563555","800168","760287","35.879424","13.837494","0.022429","666442","828057","816398","30.871768","11.365767","0.021951","687637","863610","863419","25.666534","8.952285","0.020159","622720","816620","954768","18.080636","5.934277","0.007075","-1430","185","1345","1006","3556","5156","1695","3948","5260","2550","4331","5285","4430","4866","5079",""
"MA200-0416","26603","77","1","1.10","1.4","2023-05-22T14:08:30","120","2023/05/22","14:08:30","-15.828902184963226","35.08724030852318","0.4","12","30","64","74","-20104","-15868","1416","3","150","150.37","113.67","36.70","41.75","24.3","17.24","89336","41.75","DUALSPOT-UV-BLUE-GREEN-RED-IR","536446","605964","905260","46.388772","19.377830","-0.005728","563642","800284","760444","35.879716","13.841337","0.027450","663847","824913","813325","30.878764","11.372210","0.024154","688448","864756","864634","25.680396","8.958572","0.014941","619338","812320","949847","18.102428","5.941901","0.006116","-2186","-1919","-1727","18","776","1252","510","1457","2009","1223","1719","1984","2678","2902","3011",""
"MA200-0416","26604","77","1","1.10","1.4","2023-05-22T14:09:00","120","2023/05/22","14:09:00","-15.828886330127716","35.08721014857292","0.3","12","30","64","74","-20216","-15976","-1144","3","150","150.17","113.20","36.97","41.72","24.6","17.43","89336","41.69","DUALSPOT-UV-BLUE-GREEN-RED-IR","535531","605110","904372","46.455644","19.418698","0.012905","562691","799391","760014","35.978652","13.891275","0.013076","664982","826830","815648","30.980036","11.416108","0.011018","685833","861960","862258","25.777028","8.999118","0.011807","621280","815326","953712","18.188790","5.975166","0.011592","3469","6492","8663","6479","10013","12235","7427","9857","11276","8564","11002","12310","10657","12569","13504",""
"MA200-0416","26605","77","1","1.10","1.4","2023-05-22T14:09:30","120","2023/05/22","14:09:30","-15.828824877738953","35.087186977267265","0.2","12","30","64","74","-20129","-16083","-1762","3","150","149.56","113.63","35.93","41.70","25.0","17.67","89332","41.56","DUALSPOT-UV-BLUE-GREEN-RED-IR","537476","607340","907947","46.483440","19.440650","0.015494","564139","801682","762477","36.040780","13.925554","0.015214","662782","824377","813504","31.050042","11.451543","0.015705","682111","857643","858160","25.845552","9.028456","0.013631","619266","812987","951206","18.251660","5.998902","0.012282","1436","3588","5135","4053","7072","8973","5115","8188","9983","6050","8191","9341","7729","9228","9962",""
"MA200-0416","26606","77","1","1.10","1.4","2023-05-22T14:10:01","120","2023/05/22","14:10:01","-15.828777432441711","35.0871616601944","0.2","12","30","64","75","-20152","-16123","-976","3","150","149.61","113.24","36.36","41.66","25.2","17.75","89332","41.50","DUALSPOT-UV-BLUE-GREEN-RED-IR","535793","606555","908281","46.765844","19.576972","0.009921","561932","800038","762178","36.331476","14.064409","0.012194","660882","823467","813839","31.319116","11.574621","0.012847","686181","864172","865795","26.083418","9.131514","0.013400","617620","811925","950876","18.442962","6.075165","0.014353","14647","22018","27326","19030","28307","34166","19727","28099","33007","21073","28433","32397","23599","29296","32095",""
"MA200-0416","26607","77","1","1.10","1.4","2023-05-22T14:10:31","120","2023/05/22","14:10:31","-15.828852534294128","35.087162151932716","0.2","12","30","64","74","-20336","-15780","-1316","3","150","149.94","113.25","36.68","41.63","25.3","17.80","89328","41.38","DUALSPOT-UV-BLUE-GREEN-RED-IR","531997","603439","905170","47.166288","19.764396","0.009195","558332","796456","760010","36.726532","14.243734","0.010782","660715","824823","816394","31.689420","11.738331","0.011577","683859","862748","865440","26.410846","9.269835","0.012083","615571","810457","950006","18.702320","6.175962","0.012286","20768","30008","36673","25859","36238","42813","27146","37050","42876","29006","37829","42600","31991","38383","41535",""
"MA200-0416","26608","77","1","1.10","1.4","2023-05-22T14:11:01","120","2023/05/22","14:11:01","-15.828915774822235","35.08725247532129","0.3","12","30","64","74","-19816","-16344","-2064","3","150","150.49","113.04","37.45","41.62","25.8","18.09","89328","41.38","DUALSPOT-UV-BLUE-GREEN-RED-IR","527585","600796","904358","47.719196","20.025036","0.008835","553940","793321","759483","37.266912","14.487261","0.009953","655348","821163","815079","32.184116","11.952896","0.010247","678045","858268","863023","26.842948","9.448442","0.010305","615371","812373","953918","19.039300","6.309101","0.011750","28728","40881","49668","35437","48210","56333","36332","47570","54210","38349","47851","53013","41642","49666","53643",""
"MA200-0416","26609","77","1","1.10","1.4","2023-05-22T14:11:30","120","2023/05/22","14:11:30","-15.828957498073578","35.087238147854805","0.3","12","30","64","74","-19966","-16283","-104","3","150","149.54","113.28","36.27","41.60","26.2","18.30","89328","41.38","DUALSPOT-UV-BLUE-GREEN-RED-IR","522242","597650","903368","48.756804","20.499684","0.008723","552883","795556","764406","38.226632","14.908392","0.009888","650384","818575","815159","33.067726","12.327905","0.010336","673373","855792","862871","27.619454","9.762124","0.010437","612257","810870","954027","19.635014","6.536604","0.011425","53800","76875","93615","62806","86087","100971","64760","85852","98389","68772","86780","96624","73463","87635","94708",""
"MA200-0416","26610","77","1","1.10","1.4","2023-05-22T14:12:01","120","2023/05/22","14:12:01","-15.829003036022186","35.08728580921888","0.2","12","30","64","74","-19740","-16287","-736","3","150","150.05","113.70","36.35","41.60","26.2","18.33","89332","41.44","DUALSPOT-UV-BLUE-GREEN-RED-IR","520220","596956","904593","49.350020","20.781360","0.009239","546957","789018","759828","38.765176","15.158213","0.010975","647731","817197","815386","33.561864","12.547768","0.011467","671525","855340","863823","28.051734","9.946223","0.012110","610976","810628","954818","19.969154","6.666067","0.012084","30645","45514","56329","35113","50948","61115","36082","50215","58655","38144","50811","57769","41054","49752","54111",""
"MA200-0416","26611","77","1","1.10","1.4","2023-05-22T14:12:30","120","2023/05/22","14:12:30","-15.828873991966248","35.08718481659889","0.2","12","30","64","74","-19900","-16145","191","3","150","149.76","113.64","36.12","41.60","26.3","18.38","89332","41.50","DUALSPOT-UV-BLUE-GREEN-RED-IR","521062","598228","907140","49.499216","20.863666","0.011309","547481","790245","761444","38.911924","15.233917","0.013002","648041","818057","816702","33.699892","12.616689","0.014160","671466","855733","864593","28.174998","10.003695","0.014905","610905","810914","955460","20.065510","6.707100","0.016843","7711","13384","17517","9572","15537","19375","10084","15841","19287","10882","15963","18760","11844","15869","17890",""
"MA200-0416","26612","77","1","1.10","1.4","2023-05-22T14:13:00","120","2023/05/22","14:13:00","-15.828866302967072","35.08722098171711","0.3","12","30","64","74","-19687","-16700","-508","3","150","149.27","113.75","35.52","41.62","26.5","18.54","89332","41.56","DUALSPOT-UV-BLUE-GREEN-RED-IR","519756","596941","905510","49.565920","20.897172","0.010343","546339","788853","760343","38.976412","15.263994","0.011490","647355","817470","816320","33.758680","12.643189","0.012291","671083","855499","864565","28.224942","10.023293","0.010084","607039","805965","949780","20.104222","6.720712","0.007919","3444","5539","7067","4202","6276","7611","4290","6193","7333","4404","5535","6157","4754","5353","5654",""
"MA200-0416","26613","77","1","1.10","1.4","2023-05-22T14:13:30","120","2023/05/22","14:13:30","-15.828837037086487","35.08725380897522","0.1","12","30","64","74","-19724","-16584","-483","3","150","149.76","114.20","35.56","41.62","26.6","18.59","89336","41.63","DUALSPOT-UV-BLUE-GREEN-RED-IR","522369","600046","910399","49.609984","20.922680","0.012047","548391","791942","763509","39.018560","15.288050","0.014813","645453","815171","814189","33.795200","12.662621","0.015719","667608","851168","860282","28.257350","10.039340","0.016911","608230","807667","951909","20.130764","6.731010","0.013400","2266","4213","5632","2735","5014","6482","2654","4536","5663","2847","4527","5452","3246","4045","4446",""
"MA200-0416","26614","77","1","1.10","1.4","2023-05-22T14:14:01","120","2023/05/22","14:14:01","-15.828839898109436","35.08725430816412","0.1","12","30","64","74","-19775","-16720","-804","3","150","150.09","114.24","35.85","41.64","26.6","18.58","89336","41.69","DUALSPOT-UV-BLUE-GREEN-RED-IR","515265","593312","902222","49.848764","21.037956","0.009674","545969","790324","763564","39.255532","15.399225","0.011433","643672","814728","815242","34.007056","12.756516","0.011687","666334","851222","861628","28.437606","10.115082","0.012120","607294","807669","952889","20.267022","6.784231","0.013262","12276","18884","23710","15377","22987","27899","15396","21742","25551","15830","21194","24156","16661","20736","22786",""
"MA200-0416","26615","77","1","1.10","1.4","2023-05-22T14:14:30","120","2023/05/22","14:14:30","-15.828820288181305","35.08733765035868","0.1","12","30","64","73","-19860","-16728","-440","3","150","149.92","113.70","36.22","41.64","26.4","18.51","89332","41.63","DUALSPOT-UV-BLUE-GREEN-RED-IR","516476","596004","908323","50.506744","21.367206","0.009845","542491","786931","761820","39.872844","15.700169","0.011700","640044","811800","813807","34.580724","13.026095","0.012506","662208","847581","859290","28.941634","10.341639","0.013474","604578","805340","951140","20.647106","6.938734","0.014218","33991","53386","67609","40249","61588","75448","41889","61786","73810","44475","62748","72907","46699","59582","66104",""
"MA200-0416","26616","77","1","1.10","1.4","2023-05-22T14:15:00","120","2023/05/22","14:15:00","-15.828890681266785","35.087339989840984","0.4","12","30","68","73","-19628","-16760","-1032","4","150","149.33","115.04","34.29","41.66","26.3","18.45","89340","41.81","DUALSPOT-UV-BLUE-GREEN-RED-IR","861306","740407","905140","0.000000","0.000000","0.000000","817659","926158","759565","0.000000","0.000000","0.000000","916367","932473","813634","0.000000","0.000000","0.000000","897244","949860","861001","0.000000","0.000000","0.000000","751804","869742","952578","0.000000","0.000000","0.000000","0","0","0","0","0","0","0","0","0","0","0","0","0","0","0","Tape advance"
"MA200-0416","26617","77","1","1.10","1.4","2023-05-22T14:15:31","120","2023/05/22","14:15:31","-15.828887820243835","35.08734365552664","0.2","12","30","68","74","-19692","-16660","-840","4","150","149.95","115.04","34.90","41.64","26.1","18.31","89336","41.69","DUALSPOT-UV-BLUE-GREEN-RED-IR","858119","740547","906678","0.000000","0.000000","0.000000","816658","926874","760770","0.000000","0.000000","0.000000","915275","932770","814333","0.000000","0.000000","0.000000","896528","950111","861606","0.000000","0.000000","0.000000","751685","870208","953293","0.000000","0.000000","0.000000","","","","","","","","","","","","","","","","Tape advance"
"MA200-0416","26618","77","1","1.10","1.4","2023-05-22T14:16:01","120","2023/05/22","14:16:01","-15.828877389431","35.08730164915323","0.0","12","30","64","73","-19624","-16712","-928","4","150","149.70","115.04","34.66","41.62","25.8","18.09","89336","41.56","DUALSPOT-UV-BLUE-GREEN-RED-IR","847857","735348","902130","0.689538","0.201551","0.000000","817079","929391","763473","0.297206","0.085891","0.000000","914906","933717","815629","0.198674","0.057125","0.000000","897920","952405","863976","0.124216","0.035863","0.000000","748213","866605","949519","0.066217","0.017343","0.000000","35206","34154","35206","19152","18370","19152","14338","13682","14338","10833","10380","10833","8041","6989","8041",""
"MA200-0416","26619","77","1","1.10","1.4","2023-05-22T14:16:31","120","2023/05/22","14:16:31","-15.82889050245285","35.08728848397732","0.2","12","30","64","73","-19688","-16724","-460","4","150","149.73","115.11","34.63","41.58","25.5","17.90","89328","41.38","DUALSPOT-UV-BLUE-GREEN-RED-IR","852148","740928","909914","1.083080","0.313669","0.000000","815508","928670","763237","0.473970","0.136018","0.000000","913045","932612","814904","0.317656","0.089681","0.000000","896831","951742","863538","0.196433","0.055193","0.000000","747843","866411","949380","0.104858","0.026657","0.000000","20081","19018","20081","11384","10731","11384","8581","7805","8581","6294","5600","6294","4689","3757","4689",""
"MA200-0416","26620","77","1","1.10","1.4","2023-05-22T14:17:01","120","2023/05/22","14:17:01","-15.828814446926117","35.08726764470339","0.4","12","30","64","73","-19696","-16724","-644","4","150","150.30","114.57","35.73","41.54","25.5","17.86","89332","41.31","DUALSPOT-UV-BLUE-GREEN-RED-IR","846456","737717","906800","1.429693","0.411302","0.000000","811612","925594","761122","0.679743","0.190896","0.000000","910844","931432","814186","0.473075","0.130772","0.000000","894122","949627","861881","0.306242","0.085062","0.000000","750836","870335","953839","0.168678","0.041706","0.000000","17769","16050","17769","13314","11386","13314","11262","9548","11262","9615","8387","9615","7781","5884","7781",""
"MA200-0416","26621","77","1","1.10","1.4","2023-05-22T14:17:30","120","2023/05/22","14:17:30","-15.828827977180481","35.08728364855051","0.2","12","30","64","73","-19654","-16704","-908","4","150","149.90","115.35","34.54","41.49","25.4","17.72","89324","41.19","DUALSPOT-UV-BLUE-GREEN-RED-IR","841968","735247","904600","1.712369","0.500860","0.000000","808875","923582","759924","0.860184","0.250614","0.000000","911498","932915","815886","0.606357","0.176561","0.000000","898424","954765","866823","0.399512","0.117075","0.000000","749277","868833","952365","0.223733","0.058429","0.000000","14393","15228","14393","11596","12816","11596","9592","11005","9592","8111","9298","8111","6667","6763","6667",""
"MA200-0416","26622","77","1","1.10","1.4","2023-05-22T14:18:00","120","2023/05/22","14:18:00","-15.828886866569519","35.08725147694349","0.0","12","30","64","73","-19928","-16220","-1316","4","150","149.57","114.80","34.77","41.44","25.3","17.65","89324","41.06","DUALSPOT-UV-BLUE-GREEN-RED-IR","842306","738047","909301","2.090791","0.608310","0.000000","809837","926450","762846","1.075601","0.309747","0.000000","909107","931636","815190","0.755429","0.219470","0.000000","895335","952154","864694","0.488448","0.142746","0.000000","747884","867583","951154","0.275455","0.072792","0.000000","19361","18152","19361","13911","12608","13911","10781","10246","10781","7772","7407","7772","6293","5770","6293",""
"MA200-0416","26623","77","1","1.10","1.4","2023-05-22T14:18:30","120","2023/05/22","14:18:30","-15.828898787498474","35.08726613968611","0.2","12","30","64","74","-20012","-16370","-1079","4","150","149.70","115.08","34.62","41.39","25.4","17.62","89320","41.00","DUALSPOT-UV-BLUE-GREEN-RED-IR","836837","736054","908180","2.701479","0.779615","0.000000","806315","924311","761669","1.396763","0.397998","0.000000","910019","933819","817488","0.965320","0.274527","0.000000","892152","949526","862552","0.605767","0.175297","0.000000","750307","870701","954710","0.334728","0.087939","0.000000","31170","29062","31170","20689","18896","20689","15142","13202","15142","10228","9432","10228","7195","6111","7195",""
"MA200-0416","26624","77","1","1.10","1.4","2023-05-22T14:19:00","120","2023/05/22","14:19:00","-15.82889848947525","35.08725597709417","0.2","12","30","64","73","-20744","-14700","1436","4","150","149.37","115.07","34.31","41.34","25.4","17.64","89324","40.94","DUALSPOT-UV-BLUE-GREEN-RED-IR","826649","730811","903669","3.273141","0.950111","0.000162","800914","920335","759206","1.679581","0.481796","0.000000","905024","930131","814797","1.146406","0.327658","0.000000","894924","953202","866231","0.707119","0.204885","0.000000","747941","868350","952253","0.384033","0.101350","0.000000","29180","29191","29195","18220","18108","18220","13065","12858","13065","8836","8653","8836","5985","5461","5985",""
"MA200-0416","26625","77","1","1.10","1.4","2023-05-22T14:19:30","120","2023/05/22","14:19:30","-15.828897356987","35.0872813090682","0.6","12","30","64","73","-19204","-16966","2483","4","150","150.03","114.80","35.23","41.28","25.4","17.53","89324","40.88","DUALSPOT-UV-BLUE-GREEN-RED-IR","823416","730013","903724","3.847687","1.122930","-0.007507","804616","925934","764249","1.957947","0.564504","0.000000","904736","930730","815642","1.324802","0.381213","0.000000","886404","944681","858670","0.803983","0.234836","0.000000","747626","868187","952176","0.429693","0.114227","0.000000","29396","28812","28571","17976","17403","17976","12901","12620","12901","8465","8529","8465","5556","5105","5556",""
"MA200-0416","26626","77","1","1.10","1.4","2023-05-22T14:20:01","120","2023/05/22","14:20:01","-15.828872680664062","35.087253138422966","0.1","12","30","64","73","-19787","-16562","-1533","4","150","150.17","115.11","35.07","41.24","25.3","17.49","89320","40.81","DUALSPOT-UV-BLUE-GREEN-RED-IR","827472","734686","910105","4.063133","1.187320","-0.006806","802685","924458","763289","2.075362","0.597507","0.000000","902722","929160","814486","1.408105","0.406533","0.000000","891014","949950","863597","0.856840","0.251472","0.000000","746061","866558","950465","0.457172","0.120947","0.000000","10993","10784","10697","7562","6976","7562","6008","5994","6008","4607","4759","4607","3334","2677","3334",""
"MA200-0416","26627","77","1","1.10","1.4","2023-05-22T14:20:30","120","2023/05/22","14:20:30","-15.828897178173065","35.08723080903292","0.0","12","30","64","73","-20084","-16108","-1168","4","150","149.67","115.11","34.56","41.17","25.3","17.38","89324","40.75","DUALSPOT-UV-BLUE-GREEN-RED-IR","822975","731810","907155","4.277757","1.250005","-0.009392","805310","928237","766679","2.189922","0.632185","0.000000","904601","931657","816843","1.487016","0.429892","0.000000","889288","948415","862366","0.906640","0.267327","0.000000","745201","865718","949588","0.480924","0.128438","0.000000","10951","10652","10528","7378","7437","7378","5691","5611","5691","4340","4602","4340","2882","3027","2882",""
"MA200-0416","26628","77","1","1.10","1.4","2023-05-22T14:21:00","120","2023/05/22","14:21:00","-15.828887164592743","35.087246648967266","0.2","12","30","64","73","-20033","-16083","-58","4","150","149.89","115.70","34.19","41.12","25.4","17.44","89324","40.63","DUALSPOT-UV-BLUE-GREEN-RED-IR","819183","729575","904941","4.500833","1.315361","-0.002736","802747","926146","765214","2.317411","0.666267","0.000000","902592","930144","815734","1.577221","0.455617","0.000000","886682","946027","860335","0.964862","0.284594","0.000000","748438","869634","953992","0.510110","0.136467","0.000000","11324","11227","11186","8168","7389","8168","6472","6246","6472","5048","5066","5048","3523","3280","3523",""
"MA200-0416","26629","77","1","1.10","1.4","2023-05-22T14:21:30","120","2023/05/22","14:21:30","-15.828896522521973","35.08723998069763","0.1","12","30","64","73","-20066","-16000","-195","4","150","150.49","115.11","35.39","41.06","25.5","17.44","89328","40.56","DUALSPOT-UV-BLUE-GREEN-RED-IR","814523","727038","902665","4.812643","1.409910","-0.004087","799758","924229","764159","2.541238","0.734247","0.000000","899693","928409","814692","1.758491","0.511222","0.000000","890271","950821","865062","1.100111","0.327259","0.000000","746887","868410","952891","0.593137","0.161252","0.000000","15911","15693","15604","14415","14241","14415","13074","13046","13074","11788","12096","11788","10076","9784","10076",""
"MA200-0416","26630","77","1","1.10","1.4","2023-05-22T14:22:00","120","2023/05/22","14:22:00","-15.828929483890533","35.08726281672716","0.3","12","30","64","72","-19970","-16125","-445","4","150","149.87","115.25","34.62","41.01","25.5","17.42","89332","40.50","DUALSPOT-UV-BLUE-GREEN-RED-IR","818091","731473","908886","5.045441","1.479282","-0.002222","797133","922296","762953","2.702331","0.781631","0.000000","896984","926472","813303","1.886487","0.547969","0.000000","887285","948223","862978","1.193451","0.354743","0.000000","745028","866606","951059","0.649978","0.177132","0.000000","11864","11771","11732","10361","10147","10361","9220","8813","9220","8125","7965","8125","6889","6408","6889",""
"MA200-0416","26631","77","1","1.10","1.4","2023-05-22T14:22:30","120","2023/05/22","14:22:30","-15.828978836536407","35.08731081336737","0.1","11","30","64","73","-20056","-16072","-140","4","150","149.63","115.16","34.48","40.96","25.4","17.27","89332","40.44","DUALSPOT-UV-BLUE-GREEN-RED-IR","811996","728069","905755","5.446043","1.602771","0.007401","793213","919182","760915","2.932334","0.852209","0.000000","898757","929361","816268","2.058339","0.601792","0.000000","885318","946869","862050","1.312714","0.392002","0.000000","744308","866149","950715","0.713539","0.195136","0.000000","20432","21038","21291","14806","15176","14806","12389","12961","12389","10390","10842","10390","7710","7294","7710",""
"MA200-0416","26632","77","1","1.10","1.4","2023-05-22T14:23:01","120","2023/05/22","14:23:01","-15.828987002372742","35.08732148259878","0.2","12","30","64","73","-20008","-16176","107","4","150","150.08","114.92","35.16","40.90","25.2","17.10","89336","40.38","DUALSPOT-UV-BLUE-GREEN-RED-IR","808740","726504","904535","5.745039","1.694728","0.001303","796767","924256","765440","3.095114","0.903488","0.013017","896394","927627","814988","2.176296","0.638044","0.000000","882507","944289","859897","1.390588","0.418770","0.000000","743046","864870","949396","0.751714","0.205824","0.000000","15281","15363","15397","10500","10812","10941","8521","8560","8521","6798","7639","6798","4640","4247","4640",""
"MA200-0416","26633","77","1","1.10","1.4","2023-05-22T14:23:30","120","2023/05/22","14:23:30","-15.828791558742523","35.08720847964287","0.5","12","30","64","72","-20040","-16200","-112","4","150","149.86","114.92","34.94","40.84","25.2","17.09","89340","40.25","DUALSPOT-UV-BLUE-GREEN-RED-IR","812074","730405","909850","5.929409","1.748983","-0.008088","793984","921687","763522","3.199917","0.930398","-0.087808","894674","926316","813986","2.252292","0.658977","0.000000","887834","950325","865521","1.441425","0.432729","0.000000","746260","868781","953754","0.776926","0.212826","0.000000","9423","9119","8992","6760","5709","5277","5490","4973","5490","4438","4007","4438","3064","2799","3064",""
"MA200-0416","26634","77","1","1.10","1.4","2023-05-22T14:24:00","120","2023/05/22","14:24:00","-15.828722298145294","35.087213315069675","0.3","12","30","64","72","-19988","-16240","-8","4","150","149.57","115.39","34.17","40.78","25.1","16.94","89336","40.19","DUALSPOT-UV-BLUE-GREEN-RED-IR","809411","728760","908264","6.083024","1.800643","0.026560","792164","920105","762475","3.290641","0.963438","0.074524","897179","929305","816854","2.319991","0.683760","0.000000","885253","947851","863418","1.486790","0.450515","0.000000","745290","867768","952720","0.799686","0.219528","0.000000","7819","8879","9325","5828","7167","7722","4870","6021","4870","3944","5222","3944","2755","2739","2755",""
"MA200-0416","26635","77","1","1.10","1.4","2023-05-22T14:24:30","120","2023/05/22","14:24:30","-15.828755736351013","35.08723398298025","0.2","12","30","64","72","-20092","-16151","-324","4","150","149.86","114.95","34.91","40.73","25.1","16.93","89336","40.13","DUALSPOT-UV-BLUE-GREEN-RED-IR","803609","724302","903101","6.232989","1.842084","-0.023483","793749","922541","764667","3.380018","0.984752","-0.128527","893818","926271","814328","2.386242","0.701636","0.000000","879642","942140","858315","1.532995","0.463456","0.000000","742414","864557","949254","0.822851","0.225967","0.000000","7662","6973","6684","5763","4526","4018","4784","4251","4784","4032","3719","4032","2815","2577","2815",""
"MA200-0416","26636","77","1","1.10","1.4","2023-05-22T14:25:00","120","2023/05/22","14:25:00","-15.828817188739777","35.087259985506535","0.1","12","30","64","72","-19979","-16345","-516","4","150","150.03","114.80","35.23","40.67","25.3","16.96","89332","40.00","DUALSPOT-UV-BLUE-GREEN-RED-IR","802722","723952","902913","6.328226","1.869438","-0.015822","792673","921660","764053","3.442192","1.004095","0.005519","893406","926113","814291","2.431798","0.715518","0.000000","887719","950975","866454","1.563805","0.473588","0.000000","746996","869993","955269","0.837986","0.230247","0.000000","4872","4560","4429","4014","4070","4092","3294","3271","3294","2692","2885","2692","1841","1697","1841",""
"MA200-0416","26637","77","1","1.10","1.4","2023-05-22T14:25:30","120","2023/05/22","14:25:30","-15.828774809837341","35.08726031333208","0.2","12","30","64","72","-19992","-16323","-72","4","150","150.09","115.39","34.70","40.61","25.3","16.94","89332","39.94","DUALSPOT-UV-BLUE-GREEN-RED-IR","806718","727906","908261","6.423110","1.915622","0.072945","790645","919531","762575","3.501874","1.043891","0.181132","895816","928712","816870","2.477824","0.752168","0.000000","886090","949210","865121","1.595151","0.506395","0.000000","741952","864116","948968","0.852636","0.245523","0.000000","4829","7817","9087","3834","8502","10484","3311","8768","3311","2725","9485","2725","1773","6149","1773",""
"MA200-0416","26638","77","1","1.10","1.4","2023-05-22T14:26:01","120","2023/05/22","14:26:01","-15.828882455825806","35.087238147854805","0.2","12","30","64","72","-21262","-13204","4145","4","150","149.61","115.03","34.58","40.56","25.3","16.92","89328","39.88","DUALSPOT-UV-BLUE-GREEN-RED-IR","803524","722417","905918","6.543742","2.247722","0.141437","788553","914988","761238","3.579634","1.253122","0.258250","894019","924924","815828","2.537733","0.913638","0.000000","883098","944418","862644","1.638400","0.632214","0.000000","744861","863786","952946","0.876333","0.498411","0.000000","6159","56414","82708","5011","44859","66323","4323","38771","4323","3772","36507","3772","2877","102171","2877",""
"MA200-0416","26639","77","1","1.10","1.4","2023-05-22T14:26:30","120","2023/05/22","14:26:30","-15.82893681526184","35.087213806807995","0.1","12","30","64","72","-20796","-14992","-256","4","150","149.47","115.17","34.30","40.51","25.4","16.92","89328","39.81","DUALSPOT-UV-BLUE-GREEN-RED-IR","802097","721663","905228","6.666120","2.445932","0.131285","786821","913475","760107","3.662646","1.379270","0.237008","892589","923797","814993","2.604824","1.051759","0.000000","881088","942546","861065","1.687312","0.740993","0.000000","744128","863038","952211","0.904762","0.713144","0.000000","6241","33940","49993","5343","27263","40503","4836","33430","4836","4260","31816","4260","3448","87450","3448",""
"MA200-0416","26640","77","1","1.10","1.4","2023-05-22T14:27:00","120","2023/05/22","14:27:00","-15.828894019126892","35.0871671512723","0.5","12","30","64","72","-23460","-8060","1168","4","150","149.76","114.32","35.44","40.45","25.2","16.74","89328","39.75","DUALSPOT-UV-BLUE-GREEN-RED-IR","800850","724256","910634","7.238198","2.627626","0.005099","786526","916709","764168","4.095501","1.516611","0.008747","890671","924758","817016","2.953857","1.160348","0.000000","883598","947568","866621","1.954251","0.824010","0.000000","741204","861000","950582","1.066938","0.759530","0.000000","29392","30109","30518","28069","28725","29112","25347","25435","25347","23426","23499","23426","19817","18282","19817",""
"MA200-0416","26641","77","1","1.10","1.4","2023-05-22T14:27:30","120","2023/05/22","14:27:30","-15.828993558883667","35.087286315858364","0.2","13","30","64","72","-21445","7495","-10979","4","150","149.64","114.40","35.24","40.40","25.3","16.75","89328","39.69","DUALSPOT-UV-BLUE-GREEN-RED-IR","780735","718189","909811","9.613117","3.351820","-0.001629","769502","909714","762901","6.047541","2.092254","-0.011533","874845","919529","816475","4.605526","1.639562","-0.021521","869413","941561","864496","3.265559","1.197260","-0.041712","734189","858310","949928","1.911335","0.994622","0.000000","121931","120706","120050","126491","121097","118244","119862","112901","109053","114997","106265","101210","103107","93194","103107",""
"MA200-0416","26642","77","1","1.10","1.4","2023-05-22T14:28:01","120","2023/05/22","14:28:01","-15.829005002975464","35.08726914227009","0.2","13","30","64","72","-16179","4525","-14012","4","150","149.51","114.68","34.83","40.35","24.9","16.47","89324","39.63","DUALSPOT-UV-BLUE-GREEN-RED-IR","760907","710508","906709","11.576769","3.987280","0.007855","753668","902644","761450","7.696166","2.600050","0.002730","859795","913835","815366","6.012929","2.063602","-0.002027","856386","935881","862528","4.392656","1.528143","-0.012264","731201","859765","953937","2.635904","1.211720","0.000000","100574","107170","110635","106574","108089","108861","101891","101085","100663","98605","95318","93564","88263","87080","88263",""
"MA200-0416","26643","77","1","1.10","1.4","2023-05-22T14:28:31","120","2023/05/22","14:28:31","-15.829005658626556","35.08722547441721","0.7","13","30","64","72","-25012","-1980","-3328","4","150","149.61","114.42","35.19","40.28","24.9","16.38","89324","39.56","DUALSPOT-UV-BLUE-GREEN-RED-IR","736231","701827","904832","14.176556","4.845814","0.007121","732851","893745","760234","9.918647","3.296232","0.002742","839197","906128","814217","7.923812","2.650505","-0.000228","838899","928733","860757","5.940284","1.991069","-0.007202","721660","855843","953161","3.652267","1.523072","-0.001794","133455","143318","148441","143994","146681","148019","138652","138486","138402","135700","131999","130133","124087","123616","123279",""
"MA200-0416","26644","77","1","1.10","1.4","2023-05-22T14:29:00","120","2023/05/22","14:29:00","-15.828952193260193","35.08728548139334","0.7","13","30","64","72","-15104","19712","-4268","4","150","149.63","114.24","35.39","40.22","24.5","16.12","89328","39.44","DUALSPOT-UV-BLUE-GREEN-RED-IR","683524","682269","902821","21.348890","7.402961","0.008789","692024","879021","764402","16.146683","5.454601","0.009413","793782","888860","813968","13.396276","4.493898","0.008671","806072","920342","866049","10.482586","3.470481","0.006800","698464","846756","952673","6.796699","2.511338","0.003313","368759","424395","453928","404149","452113","476583","397704","432441","449976","398910","419391","429528","384505","390091","393364",""
"MA200-0416","26645","77","1","1.10","1.4","2023-05-22T14:29:30","120","2023/05/22","14:29:30","-15.828979194164276","35.087469317018986","0.7","13","30","64","72","-17832","17184","-2388","4","150","149.50","114.49","35.00","40.15","24.2","15.88","89316","39.38","DUALSPOT-UV-BLUE-GREEN-RED-IR","678166","681977","906914","23.624422","8.280563","0.012150","682161","872172","761549","18.118976","6.190199","0.013821","787321","887142","815386","15.196761","5.146580","0.014428","796546","914508","863247","12.023264","4.008025","0.014540","696294","847572","955539","7.890251","2.871055","0.013518","116735","147261","163734","127702","155789","170365","130558","154805","167222","135004","154071","163605","133424","143558","149355",""
"MA200-0416","26646","77","1","1.10","1.4","2023-05-22T14:30:01","120","2023/05/22","14:30:01","-15.82909107208252","35.087631814181805","0.4","13","30","64","72","-14200","19996","-2352","4","150","149.92","114.34","35.58","40.08","24.0","15.65","89300","39.19","DUALSPOT-UV-BLUE-GREEN-RED-IR","680357","684442","910450","23.704112","8.314058","0.014801","683466","874086","763359","18.177580","6.213779","0.016954","787819","887922","816225","15.245903","5.165708","0.018048","798480","916911","865614","12.062023","4.023534","0.024898","693764","844576","952232","7.913398","2.876942","-0.050844","4093","5529","6305","3799","4913","5491","3568","4463","4922","3400","4373","4860","2827","2311","2016",""
"MA200-0416","26647","77","1","1.10","1.4","2023-05-22T14:30:31","120","2023/05/22","14:30:31","-15.829118371009827","35.087720818817616","0.6","13","30","64","71","-12480","21008","-2404","4","150","149.34","114.13","35.21","39.98","23.8","15.46","89280","39.00","DUALSPOT-UV-BLUE-GREEN-RED-IR","674933","679238","903748","23.760816","8.338598","0.016114","684587","875816","765019","18.221232","6.230028","0.013108","788154","888522","816915","15.282986","5.179864","0.017284","793587","911488","860584","12.090484","4.035568","0.029560","695146","846366","954329","7.932150","2.883326","0.017635","2918","4093","4729","2835","3421","3725","2697","3337","3665","2501","3428","3893","2295","2532","2668",""
"MA200-0416","26648","77","1","1.10","1.4","2023-05-22T14:31:00","120","2023/05/22","14:31:00","-15.829184234142303","35.087804317474365","0.7","13","30","64","71","-13451","19792","-4568","4","150","149.80","114.46","35.34","39.91","23.8","15.37","89268","38.88","DUALSPOT-UV-BLUE-GREEN-RED-IR","676693","681452","907109","23.860630","8.381477","0.015773","681125","871741","761720","18.293332","6.260355","0.019421","785392","885725","814587","15.342638","5.204797","0.022730","794559","912884","862108","12.138063","4.054487","0.024867","693111","844061","951778","7.957926","2.892089","0.017241","5122","7127","8213","4669","6362","7242","4326","5857","6643","4170","5371","5973","3145","3464","3646",""
"MA200-0416","26649","77","1","1.10","1.4","2023-05-22T14:31:30","120","2023/05/22","14:31:30","-15.829127192497253","35.087876476347446","0.8","13","30","64","72","-12904","20487","-2870","4","150","149.96","114.64","35.32","39.81","23.6","15.18","89252","38.69","DUALSPOT-UV-BLUE-GREEN-RED-IR","678561","683379","909815","23.907502","8.405138","0.020749","682211","873270","763103","18.328700","6.277120","0.024564","785943","886412","815290","15.374723","5.220479","0.030585","797659","916482","865600","12.166209","4.069072","0.041593","694284","845530","953508","7.972564","2.898165","0.044254","2401","3934","4765","2287","3518","4160","2323","3685","4386","2463","4142","4986","1783","2402","2756",""
"MA200-0416","26650","77","1","1.10","1.4","2023-05-22T14:32:00","120","2023/05/22","14:32:00","-15.828976690769196","35.0880196467042","0.9","13","30","64","71","-13166","20987","-2275","4","150","149.96","114.44","35.52","39.71","23.4","14.98","89248","38.50","DUALSPOT-UV-BLUE-GREEN-RED-IR","672778","677606","902201","23.922492","8.414198","0.024816","683014","874294","764078","18.343288","6.286651","0.034179","785281","885692","814707","15.385296","5.227941","0.042811","790345","908100","857733","12.174799","4.076636","0.060300","690450","840853","948218","7.974428","2.900115","0.098858","769","1498","1893","945","1989","2533","767","1744","2247","753","2136","2832","227","766","1074",""
"MA200-0416","26651","77","1","1.10","1.4","2023-05-22T14:32:30","120","2023/05/22","14:32:30","-15.828810513019562","35.088147312402725","0.1","13","30","64","71","-11860","21168","-1332","4","150","149.45","114.60","34.85","39.61","23.3","14.80","89244","38.38","DUALSPOT-UV-BLUE-GREEN-RED-IR","676590","681411","907350","23.930438","8.419123","0.025722","680602","871233","761443","18.352024","6.292051","0.033304","787241","887925","816809","15.396811","5.236440","0.044414","795107","913585","862967","12.182779","4.082674","0.056737","693643","844751","952613","7.975801","2.900747","0.056033","407","830","1059","565","1148","1453","834","2024","2638","698","1738","2262","167","253","302",""
"MA200-0416","26652","77","1","1.10","1.4","2023-05-22T14:33:00","120","2023/05/22","14:33:00","-15.828761637210846","35.08821647614241","0.7","13","30","64","71","-12333","21883","-3087","4","150","149.62","113.83","35.79","39.52","23.2","14.68","89248","38.25","DUALSPOT-UV-BLUE-GREEN-RED-IR","678858","683739","910443","23.935748","8.423916","0.031034","682613","873827","763782","18.359172","6.296915","0.034814","785259","885703","814803","15.402130","5.241245","0.048012","791181","909059","858784","12.190363","4.090464","0.063438","695941","847543","955794","7.976001","2.901902","0.120939","273","786","1065","465","1007","1290","387","1114","1489","668","2183","2948","24","450","694",""
"MA200-0416","26653","77","1","1.10","1.4","2023-05-22T14:33:30","120","2023/05/22","14:33:30","-15.828556478023529","35.0884138122201","1.2","14","30","64","71","-11456","21956","-2600","4","150","149.76","114.88","34.89","39.42","23.2","14.59","89252","38.19","DUALSPOT-UV-BLUE-GREEN-RED-IR","675451","680396","906138","23.963090","8.436537","0.018577","680331","871034","761398","18.385560","6.308050","0.020245","786847","887618","816634","15.429211","5.252516","0.023316","795325","913931","863469","12.212790","4.100234","0.032376","694870","846326","954437","7.988325","2.904741","-0.076499","1398","2124","2519","1702","2365","2712","1957","2682","3056","1958","2809","3239","1498","1136","930",""
"MA200-0416","26654","77","1","1.10","1.4","2023-05-22T14:34:00","120","2023/05/22","14:34:00","-15.828341722488403","35.08860847353935","0.6","14","30","64","71","-12892","20772","-3064","4","150","150.69","115.08","35.61","39.34","23.1","14.48","89260","38.13","DUALSPOT-UV-BLUE-GREEN-RED-IR","672659","677633","902482","23.972426","8.441172","0.020133","683012","874563","764530","18.398928","6.316044","0.031886","784961","885526","814803","15.439543","5.260170","0.043966","791876","909995","859794","12.220787","4.106790","0.058339","692873","843888","951690","7.988685","2.906420","0.119756","476","764","920","861","1663","2083","745","1784","2320","697","1847","2428","43","658","1010",""
"MA200-0416","26655","77","1","1.10","1.4","2023-05-22T14:34:30","120","2023/05/22","14:34:30","-15.82818615436554","35.088814310729504","0.4","14","30","64","71","-11764","19740","-3064","4","150","150.62","114.46","36.16","39.25","23.1","14.41","89252","38.00","DUALSPOT-UV-BLUE-GREEN-RED-IR","676104","681417","907893","24.054958","8.478138","0.016303","680647","871798","762321","18.459754","6.343611","0.021581","786805","887897","817164","15.494337","5.284381","0.024327","796156","915107","864806","12.263328","4.127634","0.036996","696057","847874","956335","8.014744","2.916114","0.027230","4235","6004","6967","3939","5651","6548","3974","5558","6379","3728","5783","6825","3180","3745","4068",""
"MA200-0416","26656","77","1","1.10","1.4","2023-05-22T14:35:00","120","2023/05/22","14:35:00","-15.828040719032288","35.08896815031767","0.8","14","30","64","71","-13416","21336","-2284","4","150","150.11","114.80","35.31","39.17","23.2","14.39","89272","37.88","DUALSPOT-UV-BLUE-GREEN-RED-IR","673085","678374","903839","24.058318","8.480522","0.027801","678453","869005","759923","18.467124","6.345470","-0.020403","784557","885366","814877","15.500725","5.288976","0.043239","798320","917614","867196","12.269596","4.132479","0.056670","693697","844964","953042","8.012390","2.916221","0.279999","171","396","518","475","390","345","461","1080","1400","547","1376","1797","-286","42","230",""
"MA200-0416","26657","77","1","1.10","1.4","2023-05-22T14:35:30","120","2023/05/22","14:35:30","-15.82789832353592","35.089167818427086","1.0","14","30","64","70","-12454","21600","-2037","4","150","149.73","114.69","35.05","39.07","23.4","14.41","89264","37.75","DUALSPOT-UV-BLUE-GREEN-RED-IR","673722","679060","904830","24.070772","8.487318","0.022776","679119","869869","760752","18.478806","6.354387","0.037630","784403","885219","814832","15.512551","5.296606","0.040477","792482","910927","860944","12.279619","4.140979","0.059296","694641","846174","954392","8.014999","2.917781","0.074950","637","1138","1411","755","1886","2478","856","1807","2300","876","2433","3225","317","621","795",""
"MA200-0416","26658","77","1","1.10","1.4","2023-05-22T14:36:01","120","2023/05/22","14:36:01","-15.827862560749054","35.08936381340027","1.0","14","30","64","71","-12976","19888","-2516","4","150","150.05","115.11","34.94","38.99","23.4","14.34","89240","37.63","DUALSPOT-UV-BLUE-GREEN-RED-IR","677932","683361","910652","24.089410","8.497406","0.022725","682502","874332","764698","18.496568","6.363203","0.026591","786661","887835","817314","15.528514","5.306619","0.039819","797028","916189","866013","12.293308","4.150349","0.053239","693327","844552","952611","8.018282","2.920054","0.083337","951","1695","2101","1143","1870","2251","1151","2379","3016","1193","2690","3453","398","908","1200",""
"MA200-0416","26659","77","1","1.10","1.4","2023-05-22T14:36:31","120","2023/05/22","14:36:31","-15.827631711959839","35.08934264630079","0.9","14","30","64","71","-14059","19448","-4204","4","150","150.23","114.92","35.31","38.89","23.4","14.28","89232","37.50","DUALSPOT-UV-BLUE-GREEN-RED-IR","674360","679808","905947","24.102910","8.503977","0.019685","679143","870076","761042","18.509646","6.371147","0.032332","784574","885548","815247","15.539649","5.313468","0.038835","794062","912830","862898","12.302427","4.158962","0.061617","692275","843252","951138","8.020460","2.922110","0.095412","689","1093","1312","843","1668","2100","804","1610","2028","796","2447","3290","264","813","1127",""
"MA200-0416","26660","77","1","1.10","1.4","2023-05-22T14:37:00","120","2023/05/22","14:37:00","-15.827444970607758","35.089353151619434","0.1","14","30","64","71","-15815","18403","-4073","4","150","150.25","114.62","35.63","38.79","23.6","14.32","89216","37.38","DUALSPOT-UV-BLUE-GREEN-RED-IR","677994","683509","910946","24.111668","8.506330","-0.010974","682249","874101","764597","18.521160","6.373399","-0.070165","783008","883792","813693","15.551032","5.318588","0.026019","798124","917463","867349","12.311716","4.164213","0.044921","694976","846577","954901","8.021751","2.923133","0.088362","448","388","354","744","468","323","824","1193","1384","813","1478","1819","157","400","540",""
"MA200-0416","26661","77","1","1.10","1.4","2023-05-22T14:37:30","120","2023/05/22","14:37:30","-15.827441096305847","35.089537143707275","0.6","14","30","64","71","-12734","21015","-4834","4","150","149.72","114.47","35.25","38.69","23.6","14.22","89188","37.25","DUALSPOT-UV-BLUE-GREEN-RED-IR","674141","679671","905904","24.129290","8.518076","0.026643","679428","870490","761534","18.536218","6.387418","0.040750","784436","885400","815272","15.564710","5.331331","0.048506","794580","913389","863598","12.324192","4.176247","0.061939","692988","844159","952211","8.024963","2.926305","0.096768","904","1957","2531","975","2948","3986","992","3001","4048","1093","3425","4620","391","1257","1754",""
"MA200-0416","26662","77","1","1.10","1.4","2023-05-22T14:38:00","120","2023/05/22","14:38:00","-15.827395677566528","35.089734986424446","0.8","14","30","64","70","-16348","16408","-4992","4","150","150.16","114.20","35.96","38.60","23.7","14.23","89152","37.13","DUALSPOT-UV-BLUE-GREEN-RED-IR","675969","681501","908411","24.136818","8.523415","0.027318","680271","871633","762543","18.546106","6.391348","0.015386","785122","886223","816092","15.573965","5.336886","0.037215","796127","915211","865382","12.332486","4.183149","0.057827","694887","846424","954780","8.024032","2.926710","0.170010","387","872","1136","641","809","898","672","1282","1600","728","1925","2540","-113","157","312",""
"MA200-0416","26663","77","1","1.10","1.4","2023-05-22T14:38:30","120","2023/05/22","14:38:30","-15.827517092227936","35.08998431265354","0.9","15","30","64","71","-13920","20212","-3607","4","150","150.06","114.52","35.55","38.49","23.8","14.22","89128","37.00","DUALSPOT-UV-BLUE-GREEN-RED-IR","673881","679477","905790","24.153658","8.531786","0.019950","679322","870480","761614","18.561300","6.399715","0.029184","783988","884964","814980","15.586517","5.346292","0.043805","794664","913527","863845","12.343060","4.190248","0.051672","693980","845357","953597","8.026537","2.928659","0.087658","863","1383","1667","983","1745","2146","910","2196","2868","926","2003","2557","305","766","1030",""
"MA200-0416","26664","77","1","1.10","1.4","2023-05-22T14:39:00","120","2023/05/22","14:39:00","-15.827458262443542","35.09013648331165","0.7","15","30","64","71","-12936","21000","-2804","4","150","150.05","114.69","35.36","38.39","23.9","14.16","89116","36.81","DUALSPOT-UV-BLUE-GREEN-RED-IR","676470","682309","909730","24.205278","8.549871","0.007191","681537","873541","764422","18.602018","6.417125","0.019957","784347","885549","815617","15.619201","5.361378","0.027582","796910","916243","866518","12.365170","4.203075","0.046245","691501","842394","950283","8.035185","2.931928","0.032669","2643","3004","3200","2631","3649","4186","2365","3541","4156","1934","3639","4517","1053","1291","1428",""
"MA200-0416","26665","77","1","1.10","1.4","2023-05-22T14:39:31","120","2023/05/22","14:39:31","-15.827250063419342","35.09007430821657","0.9","15","30","64","71","-11980","21248","-3088","4","150","150.09","114.78","35.31","38.30","24.1","14.23","89108","36.75","DUALSPOT-UV-BLUE-GREEN-RED-IR","673899","679860","906608","24.239430","8.562681","0.010450","679360","870960","762239","18.632654","6.426740","0.001612","783044","884278","814557","15.651510","5.372166","0.007355","793501","912499","863078","12.393327","4.214191","0.024240","694395","846015","954424","8.050766","2.937535","0.026201","1747","2130","2340","1978","2018","2039","2337","2536","2641","2461","3158","3518","1896","2218","2403",""
"MA200-0416","26666","77","1","1.10","1.4","2023-05-22T14:40:00","120","2023/05/22","14:40:00","-15.827129662036896","35.08985931426287","1.0","15","30","64","70","-10966","20987","-2470","4","150","150.03","114.92","35.11","38.19","24.4","14.37","89120","36.63","DUALSPOT-UV-BLUE-GREEN-RED-IR","675017","681084","908297","24.263042","8.574560","0.020606","680361","872331","763535","18.655382","6.437761","0.025338","783136","884454","814795","15.670820","5.382240","0.033098","788318","906612","857582","12.411039","4.223305","0.041016","691549","842545","950549","8.058153","2.940548","0.042836","1206","1987","2413","1466","2326","2780","1395","2381","2898","1546","2604","3149","897","1198","1371",""
"MA200-0416","26667","77","1","1.10","1.4","2023-05-22T14:40:30","120","2023/05/22","14:40:30","-15.826916694641113","35.08990980684757","1.3","15","30","64","70","-12428","20908","-1096","4","150","150.56","114.60","35.96","38.08","24.6","14.38","89112","36.50","DUALSPOT-UV-BLUE-GREEN-RED-IR","674664","680817","908015","24.284936","8.583572","0.013398","679916","871855","763166","18.674138","6.447078","0.025223","783452","884882","815293","15.687788","5.391729","0.034661","795015","914310","864956","12.425447","4.233820","0.053752","692343","843554","951703","8.061989","2.944285","0.095304","1122","1472","1663","1213","1920","2293","1229","2190","2694","1261","2933","3797","467","1451","2018",""
"MA200-0416","26668","77","1","1.10","1.4","2023-05-22T14:41:00","120","2023/05/22","14:41:00","-15.826671719551086","35.08978482335806","1.2","15","30","64","70","-14775","19527","-3005","4","150","149.33","114.56","34.77","38.01","24.9","14.52","89104","36.44","DUALSPOT-UV-BLUE-GREEN-RED-IR","672551","678792","905384","24.310156","8.593523","0.013042","678022","869550","761218","18.700194","6.455929","0.008241","785667","887475","817753","15.710417","5.400938","0.021762","792581","911610","862459","12.442699","4.242009","0.037064","695049","846888","955488","8.069887","2.945968","-0.109445","1293","1681","1893","1686","1887","1993","1639","2199","2491","1510","2363","2804","963","676","511",""
"MA200-0416","26669","77","1","1.10","1.4","2023-05-22T14:41:30","120","2023/05/22","14:41:30","-15.82649052143097","35.0895581394434","1.0","15","30","64","70","-15544","19220","-2104","4","150","150.17","114.99","35.18","37.91","25.1","14.57","89112","36.38","DUALSPOT-UV-BLUE-GREEN-RED-IR","674915","681249","908881","24.337076","8.607868","0.021955","679999","872175","763611","18.719748","6.467670","0.031799","782907","884430","815072","15.729203","5.411916","0.036945","788821","907375","858579","12.460717","4.253185","0.048897","692958","844368","952675","8.075117","2.949087","0.074197","1375","2394","2952","1260","2474","3114","1356","2590","3238","1572","3186","4023","635","1238","1585",""
"MA200-0416","26670","77","1","1.10","1.4","2023-05-22T14:42:01","120","2023/05/22","14:42:01","-15.826312780380249","35.089401975274086","0.4","15","30","64","70","-15864","17124","-3723","4","150","150.03","115.16","34.87","37.84","25.2","14.56","89088","36.31","DUALSPOT-UV-BLUE-GREEN-RED-IR","674576","681055","908717","24.371386","8.621613","0.013670","679882","872158","763721","18.749376","6.480028","0.019501","782944","884595","815258","15.752699","5.423170","0.029839","789431","908144","859364","12.479286","4.263610","0.045248","693477","845048","953427","8.084032","2.952558","0.038406","1749","2314","2624","1907","2626","3006","1693","2679","3196","1617","2999","3716","1081","1390","1568",""
"MA200-0416","26671","77","1","1.10","1.4","2023-05-22T14:42:30","120","2023/05/22","14:42:30","-15.826074659824371","35.08925148099661","0.9","15","30","64","70","-13245","21170","-2420","4","150","150.31","115.04","35.27","37.76","25.1","14.39","89080","36.25","DUALSPOT-UV-BLUE-GREEN-RED-IR","673809","680403","907941","24.403874","8.637310","0.019315","679360","871627","763295","18.773948","6.493290","0.028633","782047","883701","814515","15.774287","5.435776","0.036765","794412","913928","864938","12.497130","4.274893","0.049418","692741","844172","952500","8.090158","2.956701","0.080987","1658","2614","3137","1583","2787","3424","1557","2967","3708","1556","3209","4069","743","1640","2157",""
"MA200-0416","26672","77","1","1.10","1.4","2023-05-22T14:43:00","120","2023/05/22","14:43:00","-15.825906872749329","35.08904064446688","1.0","15","30","64","70","-12992","20456","-1935","4","150","150.09","114.68","35.40","37.69","25.3","14.45","89108","36.19","DUALSPOT-UV-BLUE-GREEN-RED-IR","671717","678341","905296","24.423638","8.644775","0.010525","677560","869381","761422","18.792382","6.500990","0.018663","781396","883002","813948","15.790776","5.441499","0.010079","793437","912811","863957","12.509460","4.282093","0.046004","692447","843799","952125","8.093534","2.957629","-0.025815","1012","1238","1362","1191","1612","1835","1193","1341","1419","1078","2040","2540","411","366","340",""
"MA200-0416","26673","77","1","1.10","1.4","2023-05-22T14:43:31","120","2023/05/22","14:43:31","-15.825857520103455","35.088749311864376","1.2","15","30","64","70","-13180","20516","-2288","4","150","150.29","114.96","35.34","37.62","25.6","14.59","89136","36.13","DUALSPOT-UV-BLUE-GREEN-RED-IR","670536","677314","903995","24.450854","8.655689","0.013104","676729","868442","760654","18.812640","6.506737","-0.007115","784286","886361","817151","15.809305","5.449587","0.024711","792480","911791","863074","12.525208","4.288977","0.031223","692374","843751","952089","8.099107","2.959323","-0.002246","1390","1814","2046","1306","1205","1152","1338","1900","2196","1374","1954","2256","677","669","665",""
"MA200-0416","26674","77","1","1.10","1.4","2023-05-22T14:44:00","120","2023/05/22","14:44:00","-15.825600564479828","35.08861447125673","0.8","15","30","64","70","-13164","20436","-2476","4","150","149.83","115.00","34.83","37.56","25.6","14.56","89136","36.06","DUALSPOT-UV-BLUE-GREEN-RED-IR","675318","682322","910916","24.502742","8.678596","0.016921","675744","867317","759798","18.846984","6.524004","0.026648","783348","885433","816401","15.837713","5.464947","0.034424","789771","908794","860323","12.545280","4.300440","0.045744","695028","847050","955824","8.108289","2.962405","0.017966","2650","3862","4527","2214","3674","4448","2050","3661","4509","1751","3301","4109","1115","1236","1305",""
"MA200-0416","26675","77","1","1.10","1.4","2023-05-22T14:44:31","120","2023/05/22","14:44:31","-15.825409054756165","35.088459484279156","0.8","15","30","64","69","-18620","17608","-4148","4","150","150.23","115.43","34.79","37.48","25.7","14.54","89140","36.00","DUALSPOT-UV-BLUE-GREEN-RED-IR","671382","678504","905955","24.541066","8.694210","0.014369","677749","870039","762274","18.872962","6.534618","0.018670","780710","882576","813819","15.858686","5.473942","0.024738","792231","911717","863186","12.564618","4.310304","0.040843","692829","844393","952884","8.115410","2.965941","0.062247","1949","2635","3012","1668","2261","2576","1508","2146","2482","1680","2844","3452","861","1419","1741",""
"MA200-0416","26676","77","1","1.10","1.4","2023-05-22T14:45:01","120","2023/05/22","14:45:01","-15.825384497642517","35.088736310601234","0.5","15","30","64","70","-18516","15144","-5388","4","150","149.57","115.31","34.25","37.41","25.8","14.57","89116","35.88","DUALSPOT-UV-BLUE-GREEN-RED-IR","670689","677898","905249","24.569522","8.705038","0.012343","676988","869198","761584","18.897784","6.542129","0.001476","783377","885702","816750","15.879888","5.481303","0.012920","791775","911243","862762","12.580386","4.317534","0.036000","692924","844510","953029","8.123256","2.969372","0.052530","1449","1856","2080","1595","1625","1641","1526","1784","1920","1371","2117","2507","950","1399","1658",""
"MA200-0416","26677","77","1","1.10","1.4","2023-05-22T14:45:31","120","2023/05/22","14:45:31","-15.825281500816345","35.08898814767599","1.3","15","30","64","70","-18591","17329","-4241","4","150","150.36","115.20","35.16","37.33","26.0","14.63","89084","35.81","DUALSPOT-UV-BLUE-GREEN-RED-IR","674345","681710","910472","24.599224","8.718918","0.018345","679938","873090","765091","18.920742","6.553335","0.025272","782329","884609","815824","15.900421","5.491930","0.032397","789389","908587","860338","12.596783","4.326624","0.043995","691910","843348","951709","8.128130","2.969762","0.879882","1514","2318","2759","1477","2362","2831","1479","2509","3052","1428","2593","3203","590","154","-96",""
"MA200-0416","26678","77","1","1.10","1.4","2023-05-22T14:46:00","120","2023/05/22","14:46:00","-15.825431823730469","35.089130483567715","1.2","15","30","64","69","-12224","20920","-2264","4","150","149.87","114.75","35.12","37.26","26.1","14.58","89084","35.69","DUALSPOT-UV-BLUE-GREEN-RED-IR","669915","677332","904764","24.628496","8.733330","0.019711","676641","868912","761509","18.944460","6.566704","0.029722","779703","881703","813248","15.922316","5.505341","0.037992","791342","910873","862599","12.615140","4.338229","0.049065","693220","844982","953609","8.136245","2.972628","0.023991","1498","2410","2911","1532","2822","3506","1584","3170","4009","1604","3315","4212","987","1140","1227",""
"MA200-0416","26679","77","1","1.10","1.4","2023-05-22T14:46:31","120","2023/05/22","14:46:31","-15.825355350971222","35.08904364705086","0.8","15","30","64","70","-13140","20512","-2436","4","150","150.05","114.84","35.21","37.16","26.1","14.52","89084","35.63","DUALSPOT-UV-BLUE-GREEN-RED-IR","669221","676765","904172","24.669780","8.753475","0.019389","676014","868280","761075","18.975698","6.581587","0.024185","782542","885038","816466","15.947422","5.517090","0.027957","791352","910988","862828","12.636439","4.348451","0.036636","693793","845726","954501","8.148119","2.979664","0.073054","2111","3360","4047","2016","3133","3726","1815","2770","3275","1860","2912","3464","1444","2791","3568",""
"MA200-0416","26680","77","1","1.10","1.4","2023-05-22T14:47:01","120","2023/05/22","14:47:01","-15.825169444084167","35.088941134512424","1.1","15","30","64","69","-15508","18968","-4412","4","150","150.16","114.92","35.24","37.08","26.3","14.57","89072","35.56","DUALSPOT-UV-BLUE-GREEN-RED-IR","672207","679891","908457","24.696870","8.765120","0.015535","678400","871457","763940","18.999174","6.592870","0.024468","780838","883224","814861","15.969314","5.526912","0.025962","788551","907817","859914","12.654779","4.359299","0.046323","692287","843925","952489","8.153862","2.982933","0.070434","1384","1940","2246","1514","2373","2830","1581","2313","2701","1601","3088","3869","698","1295","1639",""
"MA200-0416","26681","77","1","1.10","1.4","2023-05-22T14:47:30","120","2023/05/22","14:47:30","-15.824935138225555","35.08903298527002","1.2","15","30","64","69","-17012","18416","-6856","4","150","149.46","114.96","34.50","37.00","26.5","14.59","89052","35.44","DUALSPOT-UV-BLUE-GREEN-RED-IR","668501","676275","903736","24.730290","8.780029","0.017388","675502","867845","760854","19.024158","6.604154","0.022919","781365","883905","815565","15.989730","5.537194","0.031839","790206","909813","861885","12.671785","4.369480","0.047577","689565","840603","948792","8.161764","2.985448","0.010717","1707","2538","2995","1611","2424","2856","1474","2474","3003","1484","2960","3737","960","1018","1052",""
"MA200-0416","26682","77","1","1.10","1.4","2023-05-22T14:48:00","120","2023/05/22","14:48:00","-15.824653029441833","35.08897265046835","0.9","15","30","64","69","-15764","19532","-4184","4","150","149.83","115.24","34.59","36.92","26.6","14.61","89036","35.38","DUALSPOT-UV-BLUE-GREEN-RED-IR","667725","675994","903916","24.860716","8.837091","0.016695","674849","867469","760793","19.109712","6.635095","0.012490","780763","883697","815601","16.068197","5.563414","0.009177","789631","909615","861856","12.741667","4.391301","0.004528","693470","845679","954612","8.207571","2.997332","-0.033169","6647","9688","11364","5503","6630","7229","5653","6292","6631","6084","6328","6456","5553","4798","4364",""
"MA200-0416","26683","77","1","1.10","1.4","2023-05-22T14:48:31","120","2023/05/22","14:48:31","-15.824397444725037","35.08893197029829","1.0","15","30","64","69","-14628","18044","-5080","4","150","149.83","114.96","34.87","36.83","26.6","14.53","89020","35.25","DUALSPOT-UV-BLUE-GREEN-RED-IR","671987","680421","910055","24.905466","8.860472","0.021222","678394","872160","765009","19.142158","6.651575","0.026550","779925","882828","814898","16.093340","5.579048","0.038299","794843","915642","867711","12.763396","4.403943","0.045723","692782","844877","953777","8.219024","3.001866","0.039474","2286","3937","4849","2092","3503","4254","1815","3721","4733","1896","3637","4554","1391","1816","2060",""
"MA200-0416","26684","77","1","1.10","1.4","2023-05-22T14:49:00","120","2023/05/22","14:49:00","-15.824158370494843","35.08888880908489","0.9","15","30","64","69","-10487","20183","-3041","4","150","149.80","115.38","34.42","36.76","26.4","14.38","89024","35.25","DUALSPOT-UV-BLUE-GREEN-RED-IR","670548","679070","908346","24.933258","8.874905","0.021453","677323","870895","763991","19.164568","6.666048","0.033448","782709","886098","818029","16.114267","5.591368","0.037141","794077","914848","867041","12.779498","4.415601","0.053646","692571","844682","953560","8.226015","3.005808","0.070964","1414","2462","3041","1439","3116","4011","1505","2971","3750","1400","3398","4452","846","1599","2033",""
"MA200-0416","26685","77","1","1.10","1.4","2023-05-22T14:49:31","120","2023/05/22","14:49:31","-15.823846697807312","35.08888064324856","1.0","15","30","64","69","-13387","21079","-4166","4","150","149.96","114.60","35.36","36.70","26.8","14.56","89028","35.19","DUALSPOT-UV-BLUE-GREEN-RED-IR","669449","678060","907098","24.955174","8.881474","-0.001866","676310","869732","763039","19.185466","6.669832","-0.089965","779196","882210","814493","16.133018","5.595285","-0.060693","786504","906196","858902","12.795794","4.421204","0.011606","692666","844830","953760","8.230661","3.006576","-0.329947","1123","1091","1073","1351","793","495","1358","919","686","1426","1589","1675","566","303","152",""
"MA200-0416","26686","77","1","1.10","1.4","2023-05-22T14:50:00","120","2023/05/22","14:50:00","-15.823578000068665","35.08880998939276","0.8","15","30","64","69","-14651","20352","-4176","4","150","149.43","115.03","34.40","36.63","27.2","14.69","89024","35.19","DUALSPOT-UV-BLUE-GREEN-RED-IR","666819","675511","903771","24.984396","8.893705","0.015326","674344","867278","760974","19.210564","6.682962","0.027833","780905","884187","816438","16.153467","5.606818","0.035638","790791","911192","863731","12.814059","4.430926","0.042435","691228","843134","951895","8.238670","3.009482","0.030521","1492","2088","2418","1617","2829","3476","1475","2783","3478","1593","2835","3491","972","1180","1299",""
"MA200-0416","26687","77","1","1.10","1.4","2023-05-22T14:50:31","120","2023/05/22","14:50:31","-15.823576152324677","35.08855031430721","0.9","15","30","64","69","-13464","21276","-668","4","150","150.55","115.52","35.03","36.58","27.2","14.66","89040","35.13","DUALSPOT-UV-BLUE-GREEN-RED-IR","667139","675938","904411","25.009002","8.907471","0.022692","674495","867589","761286","19.232226","6.694263","0.027297","777739","880656","813203","16.170393","5.616903","0.036892","791282","911830","864418","12.828526","4.440874","0.051427","691923","843962","952822","8.243810","3.012538","0.073040","1251","2308","2892","1390","2391","2926","1216","2390","3014","1256","2849","3692","621","1218","1562",""
"MA200-0416","26688","77","1","1.10","1.4","2023-05-22T14:51:01","120","2023/05/22","14:51:01","-15.823690295219421","35.08827264606953","1.5","15","30","64","69","-12720","20612","-1820","4","150","150.23","115.35","34.87","36.52","27.3","14.65","89068","35.06","DUALSPOT-UV-BLUE-GREEN-RED-IR","666995","675885","904498","25.036642","8.921062","0.019703","674908","868172","761939","19.251306","6.705148","0.029944","781082","884548","816884","16.191435","5.628568","0.034649","789893","910249","862999","12.842695","4.449648","0.047965","691855","843953","952818","8.249405","3.013789","-0.084202","1407","2289","2777","1226","2313","2895","1514","2777","3449","1232","2524","3209","677","501","399",""
"MA200-0416","26689","77","1","1.10","1.4","2023-05-22T14:51:30","120","2023/05/22","14:51:30","-15.82374107837677","35.08802232146263","1.3","15","30","64","69","-12240","20948","-1220","4","150","149.86","114.61","35.25","36.46","27.2","14.56","89088","35.06","DUALSPOT-UV-BLUE-GREEN-RED-IR","665483","674452","902724","25.068426","8.935116","0.016148","673470","866437","760485","19.275760","6.717111","0.024667","779920","883347","815876","16.212259","5.639696","0.032739","788140","908321","861252","12.862024","4.461473","0.046831","690666","842537","951255","8.259975","3.019024","0.059368","1628","2341","2736","1581","2516","3015","1508","2621","3214","1692","3365","4254","1288","2075","2528",""
"MA200-0416","26690","77","1","1.10","1.4","2023-05-22T14:52:01","120","2023/05/22","14:52:01","-15.823870360851288","35.087771482765675","1.0","15","30","64","69","-12876","20948","-2628","4","150","150.01","115.09","34.92","36.41","27.2","14.52","89096","35.00","DUALSPOT-UV-BLUE-GREEN-RED-IR","670028","679159","909106","25.091876","8.945793","0.017439","671901","864514","758889","19.299022","6.727726","0.022601","778941","882283","814980","16.229931","5.648798","0.031846","793722","914824","867489","12.876380","4.468686","0.038912","690310","842121","950826","8.265148","3.020277","-0.056590","1196","1795","2127","1498","2253","2657","1274","2163","2638","1251","2072","2508","627","500","427",""
"MA200-0416","26691","77","1","1.10","1.4","2023-05-22T14:52:30","120","2023/05/22","14:52:30","-15.823702156543732","35.08760464191437","1.1","15","30","64","69","-13168","19516","-2888","4","150","150.17","115.30","34.88","36.36","27.3","14.55","89088","34.94","DUALSPOT-UV-BLUE-GREEN-RED-IR","668449","677766","907461","25.140668","8.965872","0.014277","676317","870455","764214","19.337430","6.741029","0.009414","777679","881039","813940","16.262749","5.660063","0.010525","791816","912785","865637","12.903054","4.478556","0.019744","693304","845883","955102","8.279533","3.025566","0.030605","2485","3381","3877","2469","2827","3019","2363","2681","2851","2321","2839","3114","1742","2118","2334",""
"MA200-0416","26692","77","1","1.10","1.4","2023-05-22T14:53:01","120","2023/05/22","14:53:01","-15.823472023010254","35.08754248172045","0.9","15","30","64","69","-14408","20212","-3120","4","150","150.55","115.60","34.95","36.29","27.3","14.49","89076","34.88","DUALSPOT-UV-BLUE-GREEN-RED-IR","666529","676081","905370","25.198438","8.987928","0.011506","674017","867724","761978","19.382454","6.761236","0.022003","780078","883992","816761","16.301409","5.676520","0.023609","790442","911377","864431","12.933631","4.493469","0.037450","692655","845158","954365","8.294529","3.030480","0.014064","2935","3706","4133","2887","4285","5034","2776","3908","4513","2653","4280","5146","1812","1963","2051",""
"MA200-0416","26693","77","1","1.10","1.4","2023-05-22T14:53:30","120","2023/05/22","14:53:30","-15.82321184873581","35.08744464814663","1.8","15","30","64","69","-13700","20536","-1376","4","150","149.80","115.11","34.69","36.25","27.3","14.46","89068","34.81","DUALSPOT-UV-BLUE-GREEN-RED-IR","665058","674890","904015","25.267336","9.013456","0.010405","673441","867254","761703","19.432336","6.779505","0.012785","779618","883726","816696","16.342705","5.693657","0.022423","789400","910349","863588","12.968246","4.507565","0.026985","692549","845108","954377","8.313579","3.038704","0.048745","3515","4322","4769","3212","3904","4274","2978","4101","4701","3017","4076","4641","2312","3311","3887",""
"MA200-0416","26694","77","1","1.10","1.4","2023-05-22T14:54:01","120","2023/05/22","14:54:01","-15.823003888130188","35.08738981932402","1.0","15","30","64","69","-13144","21772","-2872","4","150","149.61","115.83","33.78","36.22","27.4","14.49","89060","34.81","DUALSPOT-UV-BLUE-GREEN-RED-IR","663730","673764","902723","25.330024","9.035557","0.009678","671936","865538","760311","19.481224","6.798589","0.017567","778826","883019","816149","16.384968","5.709082","0.017004","787794","908651","862086","13.000903","4.520941","0.029442","692226","844831","954111","8.332786","3.043321","-0.045884","3178","3843","4211","3128","4188","4756","3029","3791","4199","2828","3972","4582","2316","1909","1675",""
"MA200-0416","26695","77","1","1.10","1.4","2023-05-22T14:54:30","120","2023/05/22","14:54:30","-15.822759866714478","35.08737598359585","1.0","15","30","64","68","-12384","21276","-2440","4","150","149.89","114.73","35.15","36.16","27.5","14.49","89060","34.75","DUALSPOT-UV-BLUE-GREEN-RED-IR","666587","676828","906938","25.362656","9.047634","0.009632","674582","869119","763563","19.508174","6.808389","0.011420","776727","880737","814127","16.407829","5.719256","0.024979","785226","905783","859424","13.017421","4.528225","0.030915","690263","842487","951496","8.340889","3.046203","0.024243","1670","2017","2210","1741","2066","2240","1654","2402","2803","1444","2078","2417","986","1145","1236",""
"MA200-0416","26696","77","1","1.10","1.4","2023-05-22T14:55:01","120","2023/05/22","14:55:01","-15.822506725788116","35.08734264969826","0.5","15","30","64","69","-11984","21104","-1780","4","150","149.80","115.54","34.25","36.12","27.3","14.34","89056","34.75","DUALSPOT-UV-BLUE-GREEN-RED-IR","667818","678232","909000","25.411186","9.068722","0.016528","675108","869941","764391","19.545502","6.826681","0.025626","777350","881579","815014","16.436121","5.733061","0.030296","786366","907177","860852","13.042146","4.541820","0.043505","691282","843753","952946","8.354015","3.052948","0.064164","2467","3615","4253","2394","3958","4798","2032","3345","4049","2146","3982","4962","1587","2750","3420",""
"MA200-0416","26697","77","1","1.10","1.4","2023-05-22T14:55:30","120","2023/05/22","14:55:30","-15.822305738925934","35.087311148643494","0.8","15","30","64","68","-13141","20141","-1483","4","150","149.98","115.19","34.79","36.07","27.3","14.27","89052","34.75","DUALSPOT-UV-BLUE-GREEN-RED-IR","665288","675895","906028","25.465298","9.090385","0.013196","673701","868341","763103","19.585110","6.842220","0.016072","775947","880125","813777","16.470984","5.747408","0.021713","784152","904756","858657","13.069229","4.553509","0.030368","689895","842160","951226","8.367214","3.058132","0.038399","2759","3657","4155","2549","3311","3720","2512","3423","3911","2358","3370","3911","1600","2081","2358",""
"MA200-0416","26698","77","1","1.10","1.4","2023-05-22T14:56:01","120","2023/05/22","14:56:01","-15.8220996260643","35.087240643799305","0.3","15","30","64","68","-14300","19380","-5256","4","150","149.67","114.66","35.01","36.03","27.3","14.28","89044","34.69","DUALSPOT-UV-BLUE-GREEN-RED-IR","666404","677118","907813","25.490818","9.101299","0.015055","674169","869042","763800","19.606650","6.850713","0.015771","776701","881108","814756","16.489601","5.755281","0.022531","785588","906483","860321","13.084124","4.560262","0.032608","691031","843593","952820","8.372062","3.059208","-0.090445","1307","1830","2121","1392","1798","2016","1348","1866","2145","1303","1935","2273","590","429","336",""
"MA200-0416","26699","77","1","1.10","1.4","2023-05-22T14:56:31","120","2023/05/22","14:56:31","-15.821998834609985","35.08710464835167","1.0","15","30","64","68","-13548","21184","-1896","4","150","150.23","115.34","34.89","36.00","27.8","14.50","89092","34.75","DUALSPOT-UV-BLUE-GREEN-RED-IR","665976","676929","907714","25.539722","9.117157","0.003934","673907","869015","763848","19.645498","6.860388","-0.018999","776992","881658","815330","16.523220","5.763960","-0.017601","785646","906710","860656","13.110499","4.568076","-0.002509","691566","844340","953698","8.386196","3.061658","-0.244523","2490","2669","2768","2496","2055","1818","2419","2064","1874","2294","2246","2221","1711","981","561",""
"MA200-0416","26700","77","1","1.10","1.4","2023-05-22T14:57:00","120","2023/05/22","14:57:00","-15.82209187746048","35.08701864629984","1.2","15","30","64","68","-12140","21660","-1968","4","150","150.36","115.49","34.88","35.97","28.0","14.61","89112","34.69","DUALSPOT-UV-BLUE-GREEN-RED-IR","662989","674295","904566","25.626764","9.153975","0.014980","671853","866601","761969","19.701354","6.885738","0.022127","775271","879966","813982","16.566322","5.783355","0.025923","789520","911406","865219","13.142537","4.581642","0.029039","689859","842354","951524","8.401890","3.067234","0.025861","4426","6200","7185","3585","5387","6356","3098","4616","5430","2783","3902","4501","1898","2232","2425",""
"MA200-0416","26701","77","1","1.10","1.4","2023-05-22T14:57:31","120","2023/05/22","14:57:31","-15.82233989238739","35.08701732009649","1.3","14","30","64","68","-12387","20437","-2387","4","150","150.56","115.31","35.24","35.93","28.2","14.66","89112","34.63","DUALSPOT-UV-BLUE-GREEN-RED-IR","662616","674778","905997","25.859982","9.249002","0.013209","671127","866362","762066","19.833692","6.935299","0.012976","774407","879466","813743","16.661074","5.817556","0.013062","789567","911734","865716","13.200266","4.603017","0.018569","689755","842372","951626","8.432880","3.077792","0.018147","11879","15837","18041","8507","10425","11456","6821","8056","8719","5022","6084","6653","3754","4185","4432",""
"MA200-0416","26702","77","1","1.10","1.4","2023-05-22T14:58:01","120","2023/05/22","14:58:01","-15.822496831417084","35.0870246514678","0.1","14","30","64","68","-12500","20608","-2232","4","150","150.23","115.59","34.63","35.88","28.1","14.55","89108","34.56","DUALSPOT-UV-BLUE-GREEN-RED-IR","660586","672926","903709","25.915410","9.274212","0.017228","669737","864724","760767","19.870840","6.954147","0.025974","776598","882094","816284","16.690039","5.831980","0.030222","787705","909688","863895","13.224646","4.616517","0.042785","689002","841508","950735","8.445564","3.081414","-0.009441","2816","4275","5088","2382","4034","4923","2080","3457","4197","2116","3910","4873","1532","1460","1419",""
"MA200-0416","26703","77","1","1.10","1.4","2023-05-22T14:58:30","120","2023/05/22","14:58:30","-15.8222296833992","35.08703865110874","1.2","14","30","64","68","-13033","19154","-1862","4","150","150.13","115.53","34.59","35.85","28.2","14.61","89112","34.56","DUALSPOT-UV-BLUE-GREEN-RED-IR","663836","676369","908503","25.949108","9.286377","0.009349","667604","862146","758565","19.898048","6.960220","-0.032332","774748","880124","814514","16.713823","5.839354","0.003082","784411","906035","860478","13.244403","4.621393","-0.027937","691412","844536","954167","8.456120","3.084862","0.014833","1713","2065","2261","1745","1301","1062","1709","1769","1801","1715","1414","1252","1276","1392","1459",""
"MA200-0416","26704","77","1","1.10","1.4","2023-05-22T14:59:00","120","2023/05/22","14:59:00","-15.822042524814606","35.08706148713827","1.5","13","30","64","68","-16828","16364","-2876","4","150","150.43","115.60","34.83","35.80","28.7","14.85","89088","34.50","DUALSPOT-UV-BLUE-GREEN-RED-IR","663939","676969","909681","26.054854","9.324253","0.008723","672627","869096","764865","19.968196","6.983097","0.005634","775172","880975","815494","16.771503","5.856312","-0.002304","785437","907515","861977","13.287420","4.634440","0.000767","688211","840784","949981","8.479851","3.093025","0.021501","5372","6387","6953","4498","4869","5068","4142","4042","3988","3733","3758","3771","2867","3273","3507",""
"MA200-0416","26705","77","1","1.10","1.4","2023-05-22T14:59:30","120","2023/05/22","14:59:30","-15.822084486484528","35.087178982794285","0.6","13","30","64","68","-16628","17152","-4044","4","150","150.05","115.30","34.75","35.77","29.1","15.04","89052","34.50","DUALSPOT-UV-BLUE-GREEN-RED-IR","662336","675608","908161","26.139058","9.360174","0.015028","671693","868170","764206","20.027312","7.006002","0.015237","774199","880109","814792","16.819078","5.873775","0.014911","790076","913056","867346","13.323572","4.647511","0.017605","691560","845010","954795","8.500103","3.097320","-0.102773","4289","6071","7064","3800","4886","5470","3425","4172","4572","3145","3773","4109","2453","1726","1309",""
"MA200-0416","26706","77","1","1.10","1.4","2023-05-22T15:00:01","120","2023/05/22","15:00:01","-15.8219433426857","35.0870021507144","1.5","13","30","64","68","-12608","19524","-3200","4","150","149.40","115.09","34.31","35.72","29.4","15.13","89084","34.44","DUALSPOT-UV-BLUE-GREEN-RED-IR","660535","674124","906425","26.219502","9.394016","0.014889","670173","866534","762925","20.080298","7.026041","0.014552","773386","879444","814329","16.862448","5.890495","0.018412","789600","912679","867127","13.356267","4.660762","0.026620","691052","844465","954315","8.519054","3.104488","0.034860","4105","5792","6734","3413","4329","4822","3128","4045","4537","2850","3873","4422","2300","2918","3272",""
"MA200-0416","26707","77","1","1.10","1.4","2023-05-22T15:00:31","120","2023/05/22","15:00:31","-15.822148501873016","35.08693764358759","0.8","13","30","64","68","-11396","20612","-1464","4","150","149.99","115.30","34.69","35.68","29.4","15.13","89100","34.38","DUALSPOT-UV-BLUE-GREEN-RED-IR","659113","673067","905413","26.313650","9.432285","0.013439","669371","865789","762485","20.138746","7.050628","0.018862","775308","881930","816792","16.912238","5.910915","0.021182","787161","910107","864790","13.392550","4.673922","0.017920","689589","842834","952464","8.542160","3.110524","-0.030604","4796","6479","7420","3758","5254","6060","3585","4887","5586","3157","3806","4154","2799","2430","2219",""
"MA200-0416","26708","77","1","1.10","1.4","2023-05-22T15:01:00","120","2023/05/22","15:01:00","-15.822476923465729","35.08699347823858","1.2","13","30","64","68","-16508","16800","-1480","4","150","150.29","115.51","34.78","35.64","29.3","14.99","89100","34.31","DUALSPOT-UV-BLUE-GREEN-RED-IR","662096","676356","910102","26.385876","9.461699","0.013443","667265","863257","760384","20.185316","7.069589","0.017418","773836","880402","815482","16.949490","5.925757","0.019587","785205","908003","862915","13.424574","4.687107","0.026877","688514","841606","951157","8.559517","3.116747","0.026979","3672","4967","5691","2988","4041","4609","2677","3542","4008","2781","3803","4351","2099","2499","2729",""
"MA200-0416","26709","77","1","1.10","1.4","2023-05-22T15:01:30","120","2023/05/22","15:01:30","-15.822772979736328","35.08704548329115","1.2","13","30","64","67","-12820","21180","-3060","4","150","149.33","115.00","34.33","35.57","29.2","14.91","89104","34.25","DUALSPOT-UV-BLUE-GREEN-RED-IR","658567","673217","906265","26.491808","9.506250","0.014697","669127","866104","763061","20.257008","7.095487","0.012061","771308","877885","813318","17.007872","5.945981","0.011630","780598","902982","858230","13.470420","4.702288","0.010670","686580","839434","948769","8.587795","3.123456","-0.055495","5410","7622","8860","4621","5592","6115","4214","4890","5254","3999","4436","4671","3435","2729","2326",""
"MA200-0416","26710","77","1","1.10","1.4","2023-05-22T15:02:00","120","2023/05/22","15:02:00","-15.822868406772614","35.087039820849895","0.4","13","30","64","68","-12129","21162","-1162","4","150","149.45","115.27","34.17","35.52","28.8","14.64","89108","34.19","DUALSPOT-UV-BLUE-GREEN-RED-IR","657088","672183","905389","26.624688","9.563345","0.015485","667936","864964","762361","20.340454","7.132221","0.021022","774536","881884","817282","17.074790","5.973447","0.021769","787129","910813","865875","13.524052","4.723603","0.025411","690653","844598","954708","8.621758","3.134748","0.018617","6770","9813","11519","5366","7969","9375","4819","6673","7670","4667","6258","7111","4115","4616","4902",""
"MA200-0416","26711","77","1","1.10","1.4","2023-05-22T15:02:30","120","2023/05/22","15:02:30","-15.822851240634918","35.08684131503105","0.1","13","30","64","67","-16208","19720","-5980","4","150","149.67","115.03","34.64","35.47","29.0","14.73","89144","34.13","DUALSPOT-UV-BLUE-GREEN-RED-IR","653577","668786","900935","26.674446","9.578884","0.002048","665230","861707","759545","20.382654","7.139248","-0.108213","771746","878983","814610","17.112368","5.982215","-0.030939","783544","906878","862180","13.554872","4.729938","-0.070157","688351","841868","951654","8.637196","3.138885","-0.024217","2540","2634","2687","2719","1503","848","2712","2101","1773","2688","1835","1377","1874","1668","1550",""
"MA200-0416","26712","77","1","1.10","1.4","2023-05-22T15:03:01","120","2023/05/22","15:03:01","-15.822920560836792","35.08656131476164","2.2","13","30","64","68","-10076","22160","-1536","4","150","149.61","115.07","34.54","35.41","29.4","14.85","89192","34.06","DUALSPOT-UV-BLUE-GREEN-RED-IR","660130","675655","910314","26.717540","9.597868","0.015791","665649","862450","760281","20.417596","7.153482","0.017372","772197","879676","815373","17.144446","5.993813","0.013959","784437","908064","863420","13.583405","4.740739","0.021073","689257","843119","953107","8.654205","3.142293","-0.126295","2199","3228","3805","2251","3055","3488","2314","2788","3042","2487","3137","3485","2065","1378","986",""
"MA200-0416","26713","77","1","1.10","1.4","2023-05-22T15:03:30","120","2023/05/22","15:03:30","-15.823073327541351","35.08645098656416","1.0","13","30","64","68","-14495","20796","-1656","4","150","150.03","115.31","34.71","35.36","29.6","14.92","89212","34.00","DUALSPOT-UV-BLUE-GREEN-RED-IR","658324","674024","908383","26.766704","9.617912","0.013305","669221","867285","764694","20.457020","7.168091","0.012824","770774","878245","814153","17.180464","6.007075","0.014869","781907","905338","860934","13.615794","4.752809","0.019659","687808","841432","951293","8.676247","3.148399","-0.016479","2504","3391","3889","2534","3119","3435","2593","3171","3482","2818","3488","3847","2670","2457","2336",""
"MA200-0416","26714","77","1","1.10","1.4","2023-05-22T15:04:01","120","2023/05/22","15:04:01","-15.823330819606781","35.086500488221645","0.9","13","30","64","68","-13256","20008","-2356","4","150","150.16","115.35","34.81","35.31","29.7","14.97","89208","33.94","DUALSPOT-UV-BLUE-GREEN-RED-IR","656167","672009","905885","26.819088","9.642321","0.017130","667388","865159","762931","20.496680","7.184614","0.018029","772900","880892","816729","17.217364","6.021297","0.017365","786896","911282","866709","13.648531","4.765695","0.023359","690978","845477","955883","8.697815","3.154087","-0.028335","2667","4118","4933","2548","3519","4042","2655","3392","3788","2847","3714","4179","2611","2282","2095",""
"MA200-0416","26715","77","1","1.10","1.4","2023-05-22T15:04:31","120","2023/05/22","15:04:31","-15.823613822460175","35.08651481568813","1.2","13","30","64","68","-15056","17168","-3671","4","150","149.34","115.13","34.21","35.26","29.7","14.91","89184","33.88","DUALSPOT-UV-BLUE-GREEN-RED-IR","654149","670082","903450","26.867966","9.665752","0.018210","665968","863438","761536","20.534362","7.202661","0.023627","772173","880155","816173","17.250472","6.037295","0.028442","785380","909662","865265","13.680835","4.779274","0.028444","690522","845008","955429","8.717800","3.160001","-0.000730","2493","4023","4882","2426","3911","4713","2387","3882","4687","2815","3981","4608","2425","2415","2409",""
"MA200-0416","26716","77","1","1.10","1.4","2023-05-22T15:05:01","120","2023/05/22","15:05:01","-15.823600828647614","35.08660180866718","1.1","13","30","64","67","-11576","20284","-896","4","150","149.32","114.69","34.63","35.20","30.0","14.99","89192","33.81","DUALSPOT-UV-BLUE-GREEN-RED-IR","659056","675215","910476","26.893062","9.677416","0.017000","665162","862533","760846","20.559104","7.212282","0.014940","770500","878393","814641","17.275448","6.047976","0.022602","782752","906760","862588","13.701010","4.789156","0.035686","688854","843070","953281","8.730484","3.164827","0.033184","1285","1978","2367","1599","2059","2308","1808","2560","2966","1764","2863","3453","1544","1946","2175",""
"MA200-0416","26717","77","1","1.10","1.4","2023-05-22T15:05:30","120","2023/05/22","15:05:30","-15.82335340976715","35.086539313197136","1.0","13","30","64","67","-13658","21304","-1783","4","150","150.36","115.55","34.81","35.14","30.1","15.00","89212","33.75","DUALSPOT-UV-BLUE-GREEN-RED-IR","657890","674130","909141","26.926098","9.690714","0.012794","668735","867301","765118","20.585180","7.224478","0.022339","770025","877944","814273","17.298804","6.058902","0.026580","781316","905187","861184","13.723974","4.799420","0.031086","688566","842748","952960","8.742363","3.169369","0.033989","1679","2244","2561","1672","2597","3097","1678","2606","3106","1993","2958","3477","1436","1823","2043",""
"MA200-0416","26718","77","1","1.10","1.4","2023-05-22T15:06:01","120","2023/05/22","15:06:01","-15.823214948177338","35.08670398592949","0.9","13","30","64","67","-19772","15764","-3687","4","150","149.32","114.88","34.44","35.10","30.4","15.11","89176","33.69","DUALSPOT-UV-BLUE-GREEN-RED-IR","657158","673492","908348","26.950550","9.701584","0.015953","663509","860617","759329","20.609840","7.235599","0.021220","769678","877674","814127","17.320666","6.067985","0.021515","780393","904226","860334","13.743869","4.808873","0.034458","688448","842697","952913","8.752773","3.173968","0.048690","1250","1853","2193","1591","2394","2828","1579","2189","2518","1737","2753","3300","1265","1865","2206",""
"MA200-0416","26719","77","1","1.10","1.4","2023-05-22T15:06:30","120","2023/05/22","15:06:30","-15.823146402835846","35.08689297735691","0.5","13","30","64","67","-18684","14444","-4288","4","150","149.66","115.38","34.28","35.05","30.7","15.23","89112","33.69","DUALSPOT-UV-BLUE-GREEN-RED-IR","655843","672276","906900","26.988804","9.716341","0.011779","667288","865706","763882","20.643838","7.248098","0.012970","772441","881007","817349","17.352004","6.080526","0.020057","786345","911240","867140","13.769421","4.819607","0.028253","687846","842026","952208","8.767200","3.177742","-0.026367","1947","2528","2855","2184","2702","2983","2255","3037","3458","2221","3141","3636","1746","1537","1418",""
"MA200-0416","26720","77","1","1.10","1.4","2023-05-22T15:07:00","120","2023/05/22","15:07:00","-15.823279321193695","35.087065652012825","1.0","13","30","64","67","-14259","18612","-4260","4","150","149.80","115.37","34.42","35.00","31.0","15.33","89084","33.63","DUALSPOT-UV-BLUE-GREEN-RED-IR","654535","671131","905461","27.026310","9.730738","0.011442","666549","864938","763309","20.677252","7.259477","0.008647","771331","879900","816395","17.381610","6.092579","0.020673","784886","909712","865729","13.795266","4.830950","0.030458","686959","840987","951075","8.781521","3.182150","0.005415","1909","2456","2764","2147","2450","2614","2130","2906","3325","2247","3305","3876","1733","1789","1820",""
"MA200-0416","26721","77","1","1.10","1.4","2023-05-22T15:07:30","120","2023/05/22","15:07:30","-15.823493361473083","35.08702898770571","1.2","13","30","64","67","-12000","20392","-2336","4","150","149.54","115.45","34.10","34.96","31.3","15.45","89088","33.63","DUALSPOT-UV-BLUE-GREEN-RED-IR","651704","668420","902031","27.074456","9.752384","0.016601","663675","861404","760308","20.712656","7.275112","0.020900","769848","878362","815090","17.414256","6.104911","0.017259","782497","907099","863359","13.824185","4.841793","0.021200","685612","839490","949419","8.798370","3.186005","-0.062104","2449","3728","4449","2273","3399","4008","2347","3002","3356","2513","3190","3555","2038","1579","1318",""
