"Serial number","Datum ID","Session ID","Data format version","Firmware version","App version","Date / time local","Timezone offset (mins)","Date local (yyyy/MM/dd)","Time local (hh:mm:ss)","GPS lat (ddmm.mmmmm)","GPS long (dddmm.mmmmm)","GPS speed (km/h)","GPS sat count","Timebase (s)","Status","Battery remaining (%)","Accel X","Accel Y","Accel Z","Tape position","Flow setpoint (mL/min)","Flow total (mL/min)","Flow1 (mL/min)","Flow2 (mL/min)","Sample temp (C)","Sample RH (%)","Sample dewpoint (C)","Internal pressure (Pa)","Internal temp (C)","Optical config","UV Sen1","UV Sen2","UV Ref","UV ATN1","UV ATN2","UV K","Blue Sen1","Blue Sen2","Blue Ref","Blue ATN1","Blue ATN2","Blue K","Green Sen1","Green Sen2","Green Ref","Green ATN1","Green ATN2","Green K","Red Sen1","Red Sen2","Red Ref","Red ATN1","Red ATN2","Red K","IR Sen1","IR Sen2","IR Ref","IR ATN1","IR ATN2","IR K","UV BC1","UV BC2","UV BCc","Blue BC1","Blue BC2","Blue BCc","Green BC1","Green BC2","Green BCc","Red BC1","Red BC2","Red BCc","IR BC1","IR BC2","IR BCc","Readable status"
"MA200-0416","26431","75","1","1.10","1.4","2023-05-22T10:36:03","120","2023/05/22","10:36:03","0","0","0.0","1","30","66","93","-19991","395","13325","1","150","0.00","0.00","0.00","0.00","0.0","-204.27","89504","27.63","DUALSPOT-UV-BLUE-GREEN-RED-IR","890106","760280","945516","0.000000","0.000000","0.000000","791334","890208","747399","0.000000","0.000000","0.000000","876403","884619","790756","0.000000","0.000000","0.000000","892191","936033","870824","0.000000","0.000000","0.000000","722178","828765","919547","0.000000","0.000000","0.000000","","","","","","","","","","","","","","","","Start up"
"MA200-0416","26432","75","1","1.10","1.4","2023-05-22T10:36:33","120","2023/05/22","10:36:33","0","0","0.0","2","30","66","93","-10348","19284","9412","1","150","149.63","113.76","35.87","28.27","52.6","17.66","89508","28.00","DUALSPOT-UV-BLUE-GREEN-RED-IR","850317","727413","905374","0.000000","0.000000","0.000000","807001","908709","763496","0.000000","0.000000","0.000000","904322","913578","817238","0.000000","0.000000","0.000000","881815","925874","861876","0.000000","0.000000","0.000000","746828","857866","952275","0.000000","0.000000","0.000000","","","","","","","","","","","","","","","","Start up"
"MA200-0416","26433","75","1","1.10","1.4","2023-05-22T10:37:03","120","2023/05/22","10:37:03","0","0","0.0","3","30","66","92","-9036","11936","17780","1","150","150.15","113.85","36.30","28.41","50.8","17.23","89520","28.31","DUALSPOT-UV-BLUE-GREEN-RED-IR","853623","730584","909552","0.000000","0.000000","0.000000","808788","910912","765490","0.000000","0.000000","0.000000","900393","909784","813976","0.000000","0.000000","0.000000","886101","930537","866309","0.000000","0.000000","0.000000","748001","859379","954116","0.000000","0.000000","0.000000","","","","","","","","","","","","","","","","Start up"
"MA200-0416","26434","75","1","1.10","1.4","2023-05-22T10:37:33","120","2023/05/22","10:37:33","0","0","0.0","3","30","66","92","-8924","12596","16484","1","150","148.74","114.82","33.92","28.57","49.1","16.86","89524","28.63","DUALSPOT-UV-BLUE-GREEN-RED-IR","854548","731718","911096","0.000000","0.000000","0.000000","804308","906091","761538","0.000000","0.000000","0.000000","899715","909260","813547","0.000000","0.000000","0.000000","879739","924048","860295","0.000000","0.000000","0.000000","747101","858507","953188","0.000000","0.000000","0.000000","","","","","","","","","","","","","","","","Start up"
"MA200-0416","26435","75","1","1.10","1.4","2023-05-22T10:38:03","120","2023/05/22","10:38:03","0","0","0.0","3","30","66","92","-9080","13120","16724","1","150","150.24","114.99","35.25","28.77","48.1","16.71","89528","28.94","DUALSPOT-UV-BLUE-GREEN-RED-IR","851133","729126","908058","0.000000","0.000000","0.000000","808579","911140","765847","0.000000","0.000000","0.000000","901269","911067","815211","0.000000","0.000000","0.000000","883901","928571","864535","0.000000","0.000000","0.000000","748199","859906","954782","0.000000","0.000000","0.000000","","","","","","","","","","","","","","","","Start up"
"MA200-0416","26436","75","1","1.10","1.4","2023-05-22T10:38:33","120","2023/05/22","10:38:33","0","0","0.0","3","30","64","92","-9084","13848","16176","1","150","149.87","114.42","35.45","28.99","47.0","16.54","89520","29.31","DUALSPOT-UV-BLUE-GREEN-RED-IR","852030","730183","909510","0.000000","0.000000","0.000000","805117","907447","762774","0.000000","0.000000","0.000000","901488","911444","815584","0.000000","0.000000","0.000000","880912","925611","861750","0.000000","0.000000","0.000000","748985","860910","955909","0.000000","0.000000","0.000000","","","","","","","","","","","","","","","",""
"MA200-0416","26437","75","1","1.10","1.4","2023-05-22T10:39:03","120","2023/05/22","10:39:03","0","0","0.0","3","30","64","91","-9120","14072","16064","1","150","149.09","114.00","35.08","29.22","46.3","16.50","89516","29.69","DUALSPOT-UV-BLUE-GREEN-RED-IR","852430","730795","910436","0.046339","0.012681","0.000000","805573","908127","763400","0.020056","0.001234","0.000000","901686","911752","815855","0.014411","-0.000321","0.000000","882089","926944","863008","0.009679","-0.002849","0.000000","748096","859985","954938","0.014303","0.003094","0.000000","2387","2123","2387","1304","260","1304","1049","-76","1049","851","-814","851","1752","1232","1752",""
"MA200-0416","26438","75","1","1.10","1.4","2023-05-22T10:39:33","120","2023/05/22","10:39:33","0","0","0.0","3","30","64","91","-9096","14040","15864","1","150","149.53","114.59","34.94","29.47","45.3","16.38","89504","30.06","DUALSPOT-UV-BLUE-GREEN-RED-IR","846869","727079","906319","0.215491","0.060676","0.000000","803339","906541","762342","0.135135","0.033599","0.000000","897742","908530","813219","0.103455","0.022572","0.000000","879738","925057","861400","0.076597","0.012094","0.000000","744664","856393","951160","0.065765","0.017974","0.000000","8670","8068","8670","7445","6867","7445","6451","5439","6451","5859","4290","5859","6273","5949","6273",""
"MA200-0416","26439","75","1","1.10","1.4","2023-05-22T10:40:03","120","2023/05/22","10:40:03","0","0","0.0","3","30","64","91","-9088","14204","15900","1","150","149.83","114.40","35.43","29.74","44.5","16.36","89508","30.44","DUALSPOT-UV-BLUE-GREEN-RED-IR","848610","728873","908700","0.314979","0.090570","0.000000","805450","909172","764606","0.199294","0.050045","0.000000","903156","914213","818347","0.154750","0.034356","0.000000","880878","926443","862703","0.117218","0.018978","0.000000","740081","851279","945515","0.101089","0.027375","0.000000","5107","4955","5107","4157","3440","4157","3722","2761","3722","3562","1949","3562","4313","3706","4313",""
"MA200-0416","26440","75","1","1.10","1.4","2023-05-22T10:40:33","120","2023/05/22","10:40:33","0","0","0.0","3","30","64","91","-8908","14316","15612","1","150","149.76","114.44","35.32","30.01","43.8","16.36","89504","30.75","DUALSPOT-UV-BLUE-GREEN-RED-IR","849452","729819","910075","0.363179","0.107130","0.000000","802371","905808","761838","0.219946","0.053983","0.000000","898152","909280","813926","0.168865","0.033891","0.000000","882368","928155","864287","0.126564","0.015312","0.000000","744896","856972","951856","0.116657","0.030897","0.000000","2473","2753","2473","1337","826","1337","1023","-109","1023","819","-1041","819","1900","1392","1900",""
"MA200-0416","26441","75","1","1.10","1.4","2023-05-22T10:41:03","120","2023/05/22","10:41:03","0","0","0.0","3","30","64","91","-8964","14336","15480","1","150","149.59","114.46","35.13","30.27","43.2","16.39","89496","31.06","DUALSPOT-UV-BLUE-GREEN-RED-IR","843054","724624","903679","0.412332","0.121278","0.000000","804138","908081","763745","0.246405","0.058883","0.000000","898580","909915","814501","0.187223","0.034994","0.000000","883409","929403","865396","0.140047","0.013852","0.000000","744384","856496","951403","0.138563","0.038948","0.000000","2522","2365","2522","1713","1034","1713","1331","260","1331","1181","-417","1181","2673","3201","2673",""
"MA200-0416","26442","75","1","1.10","1.4","2023-05-22T10:41:33","120","2023/05/22","10:41:33","0","0","0.0","3","30","64","91","-10442","8407","18661","1","150","150.58","115.31","35.27","30.55","42.9","16.51","89504","31.38","DUALSPOT-UV-BLUE-GREEN-RED-IR","844159","725805","905289","0.459862","0.133531","0.000000","800735","904373","760643","0.267887","0.059288","0.000000","898886","910374","814890","0.204205","0.032729","0.000000","884487","930647","866542","0.149792","0.007331","0.000000","744012","856199","951110","0.157547","0.043304","0.000000","2420","2040","2420","1380","84","1380","1222","-533","1222","847","-1854","847","2299","1725","2299",""
"MA200-0416","26443","75","1","1.10","1.4","2023-05-22T10:42:03","120","2023/05/22","10:42:03","0","0","0.0","7","30","64","91","-10160","7811","19344","1","150","149.66","115.00","34.66","30.83","42.5","16.63","89516","31.75","DUALSPOT-UV-BLUE-GREEN-RED-IR","846410","727905","907983","0.492349","0.142171","0.000000","802753","906786","762651","0.280499","0.058662","0.000000","899431","911032","815418","0.211685","0.027441","0.000000","878298","924291","860547","0.156223","0.001198","0.000000","743875","856143","951085","0.174949","0.044443","0.000000","1659","1464","1659","813","-133","813","539","-1266","539","561","-1775","561","2113","458","2113",""
"MA200-0416","26444","75","1","1.10","1.4","2023-05-22T10:42:33","120","2023/05/22","10:42:33","0","0","0.0","7","30","64","90","-9716","8008","19512","1","150","147.77","115.75","32.02","31.12","41.9","16.67","89520","32.13","DUALSPOT-UV-BLUE-GREEN-RED-IR","846727","728430","908824","0.541745","0.161279","0.000000","802992","907230","763095","0.303339","0.064283","0.000000","899051","910753","815223","0.226640","0.028592","0.000000","878739","924843","861063","0.164997","-0.003182","0.000000","742957","855259","950152","0.195528","0.049885","0.000000","2506","3505","2506","1462","1301","1462","1072","298","1072","760","-1372","760","2483","2374","2483",""
"MA200-0416","26445","75","1","1.10","1.4","2023-05-22T10:43:03","120","2023/05/22","10:43:03","0","0","0.0","8","30","64","91","-11288","21044","-6072","1","150","149.35","114.83","34.52","31.43","41.2","16.65","89516","32.50","DUALSPOT-UV-BLUE-GREEN-RED-IR","843368","726051","906081","0.638370","0.189363","0.000000","800383","904692","761065","0.360494","0.081193","0.000000","896914","908965","813662","0.271612","0.039320","0.000000","884648","931390","867187","0.202220","0.001603","0.000000","745371","858277","953628","0.242002","0.064441","0.000000","4942","4778","4942","3689","3631","3689","3251","2580","3251","3252","1391","3252","5653","5891","5653",""
"MA200-0416","26446","75","1","1.10","1.4","2023-05-22T10:43:33","120","2023/05/22","10:43:33","0","0","0.0","8","30","64","91","-9980","22120","-3188","1","150","150.32","114.62","35.70","31.70","40.6","16.68","89512","32.81","DUALSPOT-UV-BLUE-GREEN-RED-IR","840763","727022","908998","1.027172","0.302995","0.000000","798126","905302","762716","0.660276","0.164741","0.000000","894736","909431","815029","0.512754","0.104344","0.000000","874735","923122","860204","0.386959","0.047969","0.000000","743682","857704","953614","0.379940","0.106107","0.000000","19923","18695","19923","19389","17349","19389","17466","15121","17466","16170","13030","16170","16811","16303","16811",""
"MA200-0416","26447","75","1","1.10","1.4","2023-05-22T10:44:03","120","2023/05/22","10:44:03","0","0","0.0","6","30","64","90","-12764","20444","-2940","1","150","149.66","114.34","35.32","31.95","40.3","16.76","89516","33.00","DUALSPOT-UV-BLUE-GREEN-RED-IR","829300","722343","906235","2.161230","0.657989","0.000000","789540","900759","760826","1.553482","0.438476","0.000000","887469","906399","814056","1.260566","0.328743","0.000000","875063","927023","865260","0.976020","0.219983","0.000000","738767","854101","950700","0.767871","0.226971","0.000000","58258","59026","58258","57913","57446","57913","54301","52740","54301","51689","48854","51689","47397","47797","47397",""
"MA200-0416","26448","75","1","1.10","1.4","2023-05-22T10:44:33","120","2023/05/22","10:44:33","0","0","0.0","6","30","64","91","-9128","22160","-1992","1","150","149.40","114.25","35.15","32.16","39.9","16.80","89508","33.13","DUALSPOT-UV-BLUE-GREEN-RED-IR","803133","714145","904664","5.019173","1.564601","0.008634","774020","898420","764899","3.917187","1.177389","0.005768","871464","903325","816739","3.271871","0.949442","0.001353","859312","921288","864452","2.586504","0.708150","0.000000","732679","853703","953614","1.818832","0.552482","0.000000","146924","151505","153579","153370","155849","156915","146154","146615","146804","141420","139344","141420","128500","129374","128500",""
"MA200-0416","26449","75","1","1.10","1.4","2023-05-22T10:45:03","120","2023/05/22","10:45:03","0","0","0.0","7","30","64","90","-11652","20284","-2544","1","150","149.57","114.20","35.36","32.34","39.6","16.85","89516","33.13","DUALSPOT-UV-BLUE-GREEN-RED-IR","800844","715386","908149","6.036538","1.894928","0.010939","766814","893292","761822","4.742062","1.441223","0.009510","864904","899485","814357","3.988277","1.172471","0.001876","857906","922268","866292","3.168713","0.881833","-0.016887","731128","853493","954120","2.218902","0.674808","0.000000","52325","54863","56024","53546","55306","56075","52082","52359","52474","51148","49273","48550","48938","48320","48938",""
"MA200-0416","26450","75","1","1.10","1.4","2023-05-22T10:45:33","120","2023/05/22","10:45:33","0","0","0.0","8","30","64","90","-11664","21280","-3084","1","150","149.53","114.42","35.11","32.50","39.1","16.80","89480","33.19","DUALSPOT-UV-BLUE-GREEN-RED-IR","801825","716553","909838","6.101400","1.915268","0.005101","767717","894626","762955","4.777104","1.448238","-0.208148","865539","900323","815142","4.014963","1.174515","4.365191","853192","917424","861700","3.189178","0.880444","0.770027","731871","854578","955434","2.253128","0.684044","0.000000","3329","3403","3436","2270","1481","1138","1936","483","-117","1794","-396","-1232","4178","3675","4178",""
"MA200-0416","26451","75","1","1.10","1.4","2023-05-22T10:46:03","120","2023/05/22","10:46:03","0","0","0.0","8","30","64","90","-10948","21492","-1120","1","150","149.46","114.79","34.67","32.64","38.9","16.85","89460","33.19","DUALSPOT-UV-BLUE-GREEN-RED-IR","796871","712560","904891","6.181024","1.931980","-0.129051","768940","896355","764466","4.816651","1.450813","1.902021","864422","899423","814287","4.041892","1.171154","0.497333","854927","919493","863582","3.206552","0.872665","0.441237","733542","856734","957881","2.284145","0.689668","0.000000","4074","2831","2266","2553","550","-312","1947","-805","-1928","1518","-2250","-3660","3774","2266","3774",""
"MA200-0416","26452","75","1","1.10","1.4","2023-05-22T10:46:33","120","2023/05/22","10:46:33","0","0","0.0","8","30","64","90","-8888","22488","404","1","150","150.14","114.17","35.98","32.76","38.8","16.89","89460","33.19","DUALSPOT-UV-BLUE-GREEN-RED-IR","796428","712526","904938","6.239271","1.943727","-0.175623","763772","890598","759563","4.847669","1.449859","0.570804","863057","898285","813212","4.066645","1.167207","0.467007","853878","918618","862681","3.223785","0.863552","0.426884","731892","855022","955998","2.311918","0.691868","0.000000","2996","1917","1429","2014","-196","-1139","1800","-910","-2001","1514","-2541","-4025","3398","854","3398",""
"MA200-0416","26453","75","1","1.10","1.4","2023-05-22T10:47:03","120","2023/05/22","10:47:03","-15.829183280467987","35.08774948120117","0.6","8","30","64","90","-12696","20112","-588","1","150","150.24","114.80","35.44","32.87","38.4","16.84","89456","33.19","DUALSPOT-UV-BLUE-GREEN-RED-IR","800124","716045","909513","6.286647","1.956020","-0.047892","766246","893672","762181","4.870790","1.451612","2.947575","865563","901075","815717","4.083835","1.164639","0.472427","858413","923627","867304","3.234830","0.857234","0.416401","729134","851972","952625","2.337989","0.696826","0.000000","2423","2037","1862","1493","366","-111","1243","-601","-1337","965","-1788","-2781","3172","1954","3172",""
"MA200-0416","26454","75","1","1.10","1.4","2023-05-22T10:47:33","120","2023/05/22","10:47:33","-15.82893830537796","35.08802832663059","1.1","7","30","64","90","-10136","21420","-1340","1","150","150.43","114.72","35.71","32.96","38.1","16.79","89448","33.19","DUALSPOT-UV-BLUE-GREEN-RED-IR","800487","716715","910490","6.345403","1.967891","-0.163128","766699","894470","762875","4.900163","1.454013","4.429077","864853","900580","815249","4.105806","1.161533","0.480502","850472","915289","859442","3.249549","0.851017","0.448059","728295","851170","951795","2.362236","0.702705","0.000000","3008","1952","1478","1898","498","-91","1590","-722","-1634","1287","-1746","-2823","2952","2299","2952",""
"MA200-0416","26455","75","1","1.10","1.4","2023-05-22T10:48:03","120","2023/05/22","10:48:03","-15.828753590583801","35.0882321447134","1.0","8","30","64","89","-11992","21436","-1792","1","150","149.57","114.40","35.17","33.04","37.8","16.75","89444","33.25","DUALSPOT-UV-BLUE-GREEN-RED-IR","798058","714832","908136","6.390425","1.972681","-2.737991","764640","892234","760963","4.922533","1.452350","0.469874","864294","900154","814835","4.124617","1.156437","0.392648","856330","921776","865445","3.258573","0.842291","0.373722","731580","855166","956266","2.384674","0.704063","0.000000","2311","799","124","1449","-350","-1104","1365","-1203","-2203","791","-2489","-3633","2739","539","2739",""
"MA200-0416","26456","75","1","1.10","1.4","2023-05-22T10:48:33","120","2023/05/22","10:48:33","-15.82857197523117","35.088442139327526","1.2","7","30","64","90","-9124","20112","-1380","1","150","149.39","114.54","34.85","33.13","37.5","16.69","89448","33.25","DUALSPOT-UV-BLUE-GREEN-RED-IR","792747","710343","902490","6.435427","1.979736","-0.362733","766459","894580","762986","4.946870","1.453399","1.140552","864832","900892","815514","4.143542","1.155841","0.696327","850098","915209","859277","3.268729","0.836473","0.412382","731743","855497","956713","2.404651","0.706796","0.000000","2307","1189","692","1575","223","-339","1371","-141","-727","889","-1674","-2556","2436","1095","2436",""
"MA200-0416","26457","75","1","1.10","1.4","2023-05-22T10:49:03","120","2023/05/22","10:49:03","-15.828366041183472","35.08864064514637","1.2","7","30","64","90","-10472","21976","176","1","150","149.34","114.92","34.42","33.18","37.5","16.73","89456","33.25","DUALSPOT-UV-BLUE-GREEN-RED-IR","792672","710519","902717","6.473471","1.983038","6.620623","766282","894598","762965","4.966992","1.451015","0.408553","864746","901020","815557","4.158681","1.148295","0.330166","858455","924326","867745","3.277658","0.828409","0.374847","731672","855564","956702","2.420810","0.706330","0.000000","1944","563","-46","1298","-513","-1261","1093","-1820","-2931","779","-2350","-3409","1964","-189","1964",""
"MA200-0416","26458","75","1","1.10","1.4","2023-05-22T10:49:33","120","2023/05/22","10:49:33","-15.828150033950806","35.088834315538406","1.0","7","30","64","90","-13187","20929","-1275","1","150","149.90","114.56","35.34","33.26","37.3","16.71","89444","33.25","DUALSPOT-UV-BLUE-GREEN-RED-IR","792955","710994","903401","6.511153","1.988840","-0.397029","766687","895235","763514","4.987568","1.450796","0.637170","864297","900699","815237","4.174417","1.145971","0.470249","857899","923912","867258","3.285358","0.820457","0.367863","730200","853952","954965","2.438211","0.707917","0.000000","1931","964","538","1331","-46","-611","1140","-546","-1184","674","-2257","-3233","2121","627","2121",""
"MA200-0416","26459","75","1","1.10","1.4","2023-05-22T10:50:03","120","2023/05/22","10:50:03","-15.828039705753326","35.08897314965725","0.8","8","30","64","90","-16620","17820","-2508","1","150","150.20","114.92","35.28","33.31","37.2","16.74","89448","33.19","DUALSPOT-UV-BLUE-GREEN-RED-IR","793036","711298","903816","6.547527","1.993927","-0.550601","766942","895751","763909","5.006319","1.446260","0.331659","863935","900501","815016","4.189491","1.139778","0.346588","851083","916671","860419","3.295012","0.812983","0.386052","730138","854036","955021","2.452509","0.708528","0.000000","1859","846","403","1209","-953","-1831","1088","-1457","-2409","842","-2125","-3097","1737","242","1737",""
"MA200-0416","26460","75","1","1.10","1.4","2023-05-22T10:50:33","120","2023/05/22","10:50:33","-15.827857553958893","35.089123979210854","0.9","8","30","64","90","-14931","20580","-2548","1","150","150.35","114.79","35.56","33.35","37.2","16.78","89428","33.25","DUALSPOT-UV-BLUE-GREEN-RED-IR","793722","712056","904877","6.578792","2.002170","-0.041352","767342","896342","764417","5.023277","1.447534","3.319294","865051","901804","816162","4.200440","1.137948","0.452226","852999","918890","862453","3.303087","0.808167","0.408121","730344","854378","955436","2.467197","0.710049","0.000000","1599","1361","1257","1095","265","-69","791","-427","-880","705","-1358","-2027","1787","597","1787",""
"MA200-0416","26461","75","1","1.10","1.4","2023-05-22T10:51:03","120","2023/05/22","10:51:03","-15.827830195426941","35.089343816041946","0.8","8","30","64","89","-11612","20412","-1903","1","150","149.40","114.88","34.52","33.42","37.0","16.74","89400","33.25","DUALSPOT-UV-BLUE-GREEN-RED-IR","794956","713367","906611","6.610367","2.011652","-0.000167","768132","897417","765362","5.039572","1.449413","-1.276682","864565","901401","815820","4.211694","1.138311","1.301479","852735","918719","862270","3.311850","0.805849","0.505274","730247","854391","955500","2.484226","0.713796","0.000000","1614","1613","1612","1051","403","141","813","87","-181","765","-673","-1136","2070","1516","2070",""
"MA200-0416","26462","75","1","1.10","1.4","2023-05-22T10:51:33","120","2023/05/22","10:51:33","-15.827576220035553","35.08927030861378","1.3","7","30","64","89","-14295","20612","-2762","1","150","149.33","114.64","34.69","33.48","36.9","16.75","89380","33.25","DUALSPOT-UV-BLUE-GREEN-RED-IR","795332","713874","907396","6.653618","2.024076","-0.011792","762651","891172","760051","5.063784","1.453149","-0.433389","865637","902677","816953","4.229063","1.137775","0.702318","853379","919559","863001","3.322844","0.801712","0.454732","731097","855466","956701","2.499670","0.716408","0.000000","2216","2103","2054","1565","798","490","1257","-128","-638","962","-1196","-1882","1881","1051","1881",""
"MA200-0416","26463","75","1","1.10","1.4","2023-05-22T10:52:03","120","2023/05/22","10:52:03","-15.827434957027435","35.08944547921419","0.8","8","30","64","89","-16944","18100","-5884","1","150","149.76","115.00","34.77","33.49","36.9","16.75","89352","33.25","DUALSPOT-UV-BLUE-GREEN-RED-IR","796442","715069","909044","6.694071","2.035682","-0.011821","763441","892252","761040","5.084336","1.457405","-0.155660","865597","902759","817042","4.244071","1.139033","-19.273275","854496","920834","864227","3.333585","0.800973","0.787095","730435","854808","956007","2.515358","0.717794","0.000000","2066","1960","1914","1324","907","739","1083","300","13","937","-213","-577","1905","556","1905",""
"MA200-0416","26464","75","1","1.10","1.4","2023-05-22T10:52:33","120","2023/05/22","10:52:33","-15.82744824886322","35.08966064453125","0.8","8","30","64","89","-12404","20888","-1348","1","150","149.80","114.13","35.67","33.55","36.7","16.73","89316","33.25","DUALSPOT-UV-BLUE-GREEN-RED-IR","797043","715806","910015","6.726840","2.045078","-0.020036","763944","892969","761633","5.099386","1.457561","0.750131","865370","902639","816927","4.255711","1.137703","0.507070","855221","921734","864998","3.340024","0.796121","0.385475","730449","854940","956146","2.528469","0.720076","0.000000","1686","1547","1486","977","32","-346","846","-309","-731","566","-1364","-1968","1604","893","1604",""
"MA200-0416","26465","75","1","1.10","1.4","2023-05-22T10:53:03","120","2023/05/22","10:53:03","-15.827492713928223","35.0899743065238","0.8","7","30","64","89","-11704","19888","-1096","1","150","150.14","115.00","35.14","33.59","36.5","16.69","89292","33.25","DUALSPOT-UV-BLUE-GREEN-RED-IR","793526","712813","906287","6.759701","2.053020","-0.063484","767464","897257","765321","5.116904","1.458639","1.867280","860360","897569","812340","4.269814","1.137703","0.878963","852855","919270","862718","3.349875","0.795018","0.675644","729120","853480","954549","2.541313","0.722569","0.000000","1678","1327","1174","1129","227","-132","1018","0","-369","859","-314","-680","1560","990","1560",""
"MA200-0416","26466","75","1","1.10","1.4","2023-05-22T10:53:33","120","2023/05/22","10:53:33","-15.827637732028961","35.090089313685894","0.6","7","30","64","89","-11200","21664","-1056","1","150","150.35","115.04","35.31","33.62","36.5","16.72","89292","33.25","DUALSPOT-UV-BLUE-GREEN-RED-IR","796104","715352","909667","6.798439","2.063947","-0.019341","762788","891951","760801","5.138975","1.461143","-1.439461","861234","898625","813323","4.286491","1.137608","0.836677","855203","921980","865235","3.360837","0.791990","0.497810","730025","854623","955868","2.556339","0.725315","0.000000","1977","1817","1747","1422","525","169","1203","-22","-465","955","-860","-1420","1824","1086","1824",""
"MA200-0416","26467","75","1","1.10","1.4","2023-05-22T10:54:03","120","2023/05/22","10:54:03","-15.82747620344162","35.09008998423815","1.2","8","30","64","89","-14608","19628","-1664","1","150","150.49","114.93","35.56","33.65","36.5","16.74","89276","33.25","DUALSPOT-UV-BLUE-GREEN-RED-IR","794181","713927","907984","6.859026","2.079530","-0.046606","761527","890673","759787","5.174667","1.470007","-0.073591","863680","901382","815843","4.315996","1.140708","-2.035135","853508","920286","863636","3.380123","0.793159","6.118134","728329","852799","953828","2.575449","0.727767","0.000000","3096","2573","2346","2302","1847","1667","2131","723","217","1683","329","-85","2322","963","2322",""
"MA200-0416","26468","75","1","1.10","1.4","2023-05-22T10:54:33","120","2023/05/22","10:54:33","-15.82719737291336","35.090044148266315","0.9","8","30","64","89","-10841","22962","-683","1","150","149.40","114.67","34.73","33.67","36.5","16.73","89264","33.25","DUALSPOT-UV-BLUE-GREEN-RED-IR","795182","715141","909632","6.917806","2.092935","-0.079301","762556","892128","761045","5.205166","1.473081","-2.566623","864711","902668","817007","4.339355","1.144093","-0.559329","855356","922395","865603","3.391330","0.790113","0.494978","729408","854173","955388","2.592138","0.730382","0.000000","3010","2266","1944","1971","656","137","1691","809","493","980","-879","-1444","2033","1051","2033",""
"MA200-0416","26469","75","1","1.10","1.4","2023-05-22T10:55:03","120","2023/05/22","10:55:03","-15.827189683914185","35.089808978140354","0.8","8","30","64","89","-11900","20796","-1020","1","150","150.30","114.69","35.61","33.70","36.3","16.68","89288","33.25","DUALSPOT-UV-BLUE-GREEN-RED-IR","795892","716091","911030","6.976866","2.110117","-0.014274","763416","893417","762207","5.240357","1.482677","-0.039084","860765","898757","813525","4.366499","1.150030","-0.153593","854713","921901","865164","3.412045","0.792157","-2.335574","729133","853972","955194","2.608427","0.733075","0.000000","3024","2833","2750","2274","1997","1888","1964","1383","1176","1812","575","202","1984","1056","1984",""
"MA200-0416","26470","75","1","1.10","1.4","2023-05-22T10:55:33","120","2023/05/22","10:55:33","-15.826984405517578","35.08991597592831","0.8","8","30","64","89","-14500","17912","-1903","1","150","149.62","114.75","34.87","33.73","36.3","16.71","89272","33.31","DUALSPOT-UV-BLUE-GREEN-RED-IR","789369","710725","904389","7.063719","2.133609","-0.026480","764126","894648","763345","5.294555","1.495004","-0.102006","861417","899709","814466","4.407471","1.157630","-0.254281","849599","916611","860264","3.439451","0.797283","-0.291444","730239","855453","956890","2.630804","0.736834","0.000000","4445","3956","3745","3501","2620","2273","2964","1809","1397","2396","1474","1196","2724","1505","2724",""
"MA200-0416","26471","75","1","1.10","1.4","2023-05-22T10:56:03","120","2023/05/22","10:56:03","-15.826727867126465","35.089821480214596","1.1","7","30","64","89","-11632","21776","-488","1","150","150.14","114.71","35.43","33.75","36.4","16.77","89268","33.44","DUALSPOT-UV-BLUE-GREEN-RED-IR","792714","713969","908649","7.117864","2.146839","-0.060010","761203","891392","760618","5.326551","1.501579","-0.163977","863105","901661","816259","4.432064","1.161008","-0.685236","852317","919673","863089","3.456302","0.797092","1.122218","727095","851803","952848","2.644586","0.739395","0.000000","2772","2192","1942","2067","1375","1103","1779","791","440","1473","-54","-511","1678","1009","1678",""
"MA200-0416","26472","75","1","1.10","1.4","2023-05-22T10:56:33","120","2023/05/22","10:56:33","-15.826525270938873","35.08961396664381","1.1","7","30","64","89","-10612","22260","-640","1","150","150.30","114.65","35.65","33.79","36.3","16.76","89276","33.56","DUALSPOT-UV-BLUE-GREEN-RED-IR","787569","709887","903741","7.222172","2.178613","-0.004168","762875","893738","762718","5.379176","1.514375","-0.080975","860905","899636","814498","4.470128","1.169580","-0.133417","855198","923006","866241","3.480532","0.800413","-0.762850","728661","853797","955085","2.660566","0.742288","0.000000","5343","5234","5187","3402","2660","2370","2756","1996","1726","2120","934","580","1947","1133","1947",""
"MA200-0416","26473","75","1","1.10","1.4","2023-05-22T10:57:03","120","2023/05/22","10:57:03","-15.826334595680237","35.089365147054195","1.0","6","30","64","88","-12660","20740","-636","1","150","149.94","114.34","35.60","33.83","36.1","16.73","89260","33.63","DUALSPOT-UV-BLUE-GREEN-RED-IR","789594","712000","906570","7.285420","2.195718","-0.031817","764864","896255","764931","5.409336","1.521778","-0.077230","861957","900881","815626","4.492485","1.172173","-1.252101","850157","917679","861279","3.496556","0.801265","4.062350","729713","855101","956570","2.674627","0.743903","0.000000","3249","2822","2637","1955","1541","1379","1623","604","245","1406","240","-106","1717","633","1717",""
"MA200-0416","26474","75","1","1.10","1.4","2023-05-22T10:57:33","120","2023/05/22","10:57:33","-15.826094388961792","35.089218974113464","1.2","7","30","64","88","-10616","21564","-516","1","150","150.08","114.54","35.53","33.87","35.9","16.68","89252","33.69","DUALSPOT-UV-BLUE-GREEN-RED-IR","789177","711816","906402","7.320780","2.204277","-0.062644","764257","895695","764484","5.432276","1.526035","-0.233217","862000","901085","815852","4.511183","1.175344","-0.351148","850924","918593","862145","3.508259","0.799953","0.658486","725010","849700","950572","2.686992","0.746609","0.000000","1813","1414","1243","1484","888","654","1355","740","524","1025","-370","-782","1508","1064","1508",""
"MA200-0416","26475","75","1","1.10","1.4","2023-05-22T10:58:03","120","2023/05/22","10:58:03","-15.825916707515717","35.08902081847191","0.6","7","30","64","88","-11432","21984","-796","1","150","149.80","114.50","35.30","33.91","36.0","16.73","89268","33.75","DUALSPOT-UV-BLUE-GREEN-RED-IR","786234","709439","903432","7.360929","2.209861","-0.493645","762000","893281","762431","5.455888","1.527441","1.705337","860100","899283","814215","4.529964","1.176792","17.022423","854353","922447","865704","3.516702","0.797611","0.479481","727574","852781","953984","2.695152","0.746089","0.000000","2059","929","444","1528","295","-184","1361","340","-17","739","-665","-1078","995","-205","995",""
"MA200-0416","26476","75","1","1.10","1.4","2023-05-22T10:58:33","120","2023/05/22","10:58:33","-15.825811684131622","35.08880231529474","1.5","7","30","64","88","-10424","22176","-468","1","150","149.73","114.53","35.20","33.94","35.8","16.69","89300","33.81","DUALSPOT-UV-BLUE-GREEN-RED-IR","788424","711655","906356","7.410139","2.218851","-0.185528","763611","895386","764246","5.485627","1.532077","-0.393754","861509","900893","815698","4.550642","1.177329","1.154757","849442","917239","860849","3.532152","0.797748","1.395492","728657","854137","955533","2.707544","0.748383","0.000000","2523","1500","1062","1924","976","609","1498","126","-352","1353","39","-344","1511","910","1511",""
"MA200-0416","26477","75","1","1.10","1.4","2023-05-22T10:59:03","120","2023/05/22","10:59:03","-15.825594067573547","35.08867248892784","0.9","7","30","64","88","-11176","22152","-1108","1","150","149.73","114.38","35.35","33.99","35.6","16.63","89312","33.88","DUALSPOT-UV-BLUE-GREEN-RED-IR","790614","713932","909370","7.449009","2.228942","-0.039719","759845","891156","760695","5.507367","1.536001","-0.247932","859411","898885","813922","4.568087","1.180357","-0.316640","853523","921832","865156","3.544172","0.798195","2.367476","726208","851369","952472","2.718204","0.749704","0.000000","1996","1676","1540","1409","822","595","1266","711","517","1054","126","-142","1301","521","1301",""
"MA200-0416","26478","75","1","1.10","1.4","2023-05-22T10:59:33","120","2023/05/22","10:59:33","-15.825432121753693","35.088484317064285","1.1","7","30","64","88","-11723","21269","-1580","1","150","149.63","114.68","34.95","34.03","35.4","16.57","89316","34.00","DUALSPOT-UV-BLUE-GREEN-RED-IR","786008","710415","905231","7.592778","2.270647","-0.009744","762207","894365","763546","5.579112","1.555103","-0.038091","861539","901418","816277","4.619443","1.192015","-0.113476","849280","917467","861100","3.581187","0.804781","-0.323696","728292","853965","955411","2.745536","0.755264","0.000000","7363","7008","6856","4637","4051","3825","3717","2769","2439","3238","1890","1499","3329","2222","3329",""
"MA200-0416","26479","75","1","1.10","1.4","2023-05-22T11:00:03","120","2023/05/22","11:00:03","-15.825338363647461","35.08849165588617","0.9","9","30","64","88","-14240","19732","-2736","1","150","150.14","115.09","35.06","34.07","35.4","16.60","89308","34.13","DUALSPOT-UV-BLUE-GREEN-RED-IR","790115","714322","910282","7.629369","2.280489","-0.026280","759711","891592","761233","5.601732","1.556808","4.390302","859844","899822","814821","4.634356","1.190715","0.511036","851716","920222","863694","3.591642","0.801509","0.451395","725513","850748","951840","2.756265","0.756011","0.000000","1867","1648","1555","1457","360","-61","1075","-307","-786","911","-936","-1467","1302","297","1302",""
"MA200-0416","26480","75","1","1.10","1.4","2023-05-22T11:00:33","120","2023/05/22","11:00:33","-15.82536369562149","35.08879681676626","1.0","9","30","64","88","-12900","18348","-1935","1","150","149.63","114.80","34.83","34.12","35.4","16.67","89284","34.19","DUALSPOT-UV-BLUE-GREEN-RED-IR","783246","708344","902736","7.666290","2.288053","-0.112444","760071","892197","761752","5.620343","1.557607","1.126246","859953","900095","815042","4.652887","1.190656","0.815206","854541","923359","866594","3.599476","0.798404","0.419272","726339","851852","953013","2.764785","0.755373","0.000000","1889","1275","1014","1201","170","-225","1340","-14","-479","684","-894","-1344","1036","-255","1036",""
"MA200-0416","26481","75","1","1.10","1.4","2023-05-22T11:01:03","120","2023/05/22","11:01:03","-15.825418829917908","35.0890596434474","1.1","9","30","64","88","-11880","19708","-1484","1","150","149.87","114.96","34.91","34.18","35.2","16.64","89260","34.13","DUALSPOT-UV-BLUE-GREEN-RED-IR","787857","712709","908347","7.703859","2.294454","-0.216375","758557","890575","760376","5.643929","1.560199","-1.319930","858146","898336","813482","4.670941","1.192074","-45.685719","850463","919083","862566","3.611964","0.797933","0.902015","728149","854033","955491","2.778226","0.758318","0.000000","1919","1077","719","1520","550","180","1303","337","6","1089","-135","-482","1633","1178","1633",""
"MA200-0416","26482","75","1","1.10","1.4","2023-05-22T11:01:33","120","2023/05/22","11:01:33","-15.825376868247986","35.089053981006145","1.2","9","30","64","88","-10196","22228","-1012","1","150","149.73","114.54","35.19","34.20","35.1","16.61","89256","34.06","DUALSPOT-UV-BLUE-GREEN-RED-IR","788283","713217","909175","7.738100","2.311182","0.059065","758322","890338","760322","5.665776","1.578493","0.124471","858728","898954","814175","4.687529","1.206672","0.152576","851022","919693","863237","3.624454","0.808870","0.194332","728977","855078","956717","2.787860","0.761200","0.000000","1755","2792","3233","1413","3854","4796","1202","3444","4221","1093","3118","3700","1174","1144","1174",""
"MA200-0416","26483","75","1","1.10","1.4","2023-05-22T11:02:03","120","2023/05/22","11:02:03","-15.825114071369171","35.088777147233486","1.5","9","30","64","87","-16048","18044","-3336","1","150","149.09","113.13","35.96","34.23","35.1","16.65","89252","34.06","DUALSPOT-UV-BLUE-GREEN-RED-IR","783538","709098","903958","7.764265","2.314827","-0.516365","760562","893127","762697","5.682103","1.578737","0.726644","860002","900425","815477","4.699426","1.204448","0.400211","847761","916289","860018","3.633233","0.805377","0.420638","726525","852252","953527","2.795059","0.761493","0.000000","1358","595","271","1069","50","-341","873","-513","-991","778","-974","-1473","888","113","888",""
"MA200-0416","26484","75","1","1.10","1.4","2023-05-22T11:02:33","120","2023/05/22","11:02:33","-15.824912130832672","35.08889281004667","0.8","9","30","64","88","-13772","19808","-5120","1","150","149.51","114.00","35.50","34.24","35.0","16.58","89228","34.00","DUALSPOT-UV-BLUE-GREEN-RED-IR","784031","709757","904889","7.806520","2.327045","-0.014530","760734","893489","763029","5.703229","1.583070","-0.157023","860122","900684","815718","4.716706","1.207428","-0.317607","847201","915778","859514","3.641820","0.805050","0.897146","726888","852736","954101","2.803913","0.762973","0.000000","2177","2021","1955","1373","904","724","1258","696","503","755","-92","-333","1084","582","1084",""
"MA200-0416","26485","75","1","1.10","1.4","2023-05-22T11:03:03","120","2023/05/22","11:03:03","-15.82467782497406","35.08896981179714","1.0","9","30","64","88","-15536","19700","-1611","1","150","150.56","115.04","35.52","34.26","34.7","16.46","89208","33.94","DUALSPOT-UV-BLUE-GREEN-RED-IR","788764","714354","910899","7.860507","2.341058","-0.037353","759169","891843","761715","5.735015","1.592279","-0.016303","858199","898827","814129","4.739952","1.214641","0.001365","852559","921615","865049","3.653648","0.806945","-0.441692","725076","850685","951834","2.817731","0.765320","0.000000","2756","2317","2130","2048","1921","1873","1677","1685","1688","1031","535","394","1678","923","1678",""
"MA200-0416","26486","75","1","1.10","1.4","2023-05-22T11:03:33","120","2023/05/22","11:03:33","-15.824402809143066","35.088999815285206","1.0","9","30","64","86","-16040","18488","-2472","1","150","149.76","114.51","35.25","34.26","34.4","16.33","89188","33.88","DUALSPOT-UV-BLUE-GREEN-RED-IR","784260","710539","906121","7.910500","2.351623","-0.101834","761193","894422","763951","5.764238","1.600271","-0.031677","859406","900239","815413","4.761654","1.218337","-0.315662","847939","916777","860496","3.667994","0.808262","-2.457214","726140","852029","953363","2.827039","0.766363","0.000000","2564","1760","1420","1891","1680","1599","1573","870","628","1256","374","125","1135","413","1135",""
"MA200-0416","26487","75","1","1.10","1.4","2023-05-22T11:04:03","120","2023/05/22","11:04:03","-15.824134051799774","35.08890897780657","0.9","9","30","64","88","-11716","22496","-1544","1","150","150.24","114.65","35.59","34.26","34.1","16.20","89192","33.88","DUALSPOT-UV-BLUE-GREEN-RED-IR","784250","710680","906302","7.939561","2.355608","-0.484970","761300","894645","764159","5.781624","1.604080","-0.118793","859560","900498","815655","4.775702","1.221293","-0.159739","849457","918479","862068","3.674817","0.807368","0.602944","727342","853495","954977","2.835071","0.766468","0.000000","1488","657","306","1124","793","666","1017","689","577","597","-252","-491","978","41","978",""
"MA200-0416","26488","75","1","1.10","1.4","2023-05-22T11:04:33","120","2023/05/22","11:04:33","-15.823868215084076","35.088847145438194","1.6","9","30","64","87","-10408","21572","-1672","1","150","150.49","114.48","36.01","34.26","33.9","16.11","89196","33.94","DUALSPOT-UV-BLUE-GREEN-RED-IR","785256","711699","907689","7.960421","2.359394","-0.189410","761817","895371","764836","5.794392","1.604719","1.229185","860047","901056","816198","4.785972","1.222109","58.574070","850370","919522","863050","3.680939","0.805938","0.492289","727782","854048","955608","2.838270","0.765694","0.000000","1070","617","426","826","131","-135","744","188","-2","536","-398","-660","390","-300","390",""
"MA200-0416","26489","75","1","1.10","1.4","2023-05-22T11:05:03","120","2023/05/22","11:05:03","-15.823580503463745","35.08882464468479","1.1","9","30","64","86","-12692","20512","-1580","1","150","149.87","114.50","35.37","34.26","33.6","15.96","89192","34.00","DUALSPOT-UV-BLUE-GREEN-RED-IR","785623","712236","908401","7.992641","2.367332","-0.050468","756302","889008","759444","5.814894","1.612640","0.044317","860061","901182","816357","4.801332","1.228266","0.059526","850650","919874","863433","3.691199","0.811583","0.135558","727727","854057","955645","2.847719","0.768096","0.000000","1652","1318","1177","1327","1660","1788","1113","1445","1559","898","1601","1799","1152","948","1152",""
"MA200-0416","26490","75","1","1.10","1.4","2023-05-22T11:05:33","120","2023/05/22","11:05:33","-15.823507368564606","35.08863931149244","1.0","9","30","64","87","-9732","23420","316","1","150","150.03","115.04","34.99","34.29","33.3","15.83","0","0.00","DUALSPOT-UV-BLUE-GREEN-RED-IR","782250","709306","904771","8.019194","2.374340","-0.028889","759736","893169","762991","5.831139","1.616127","-0.117837","858609","899753","815089","4.813992","1.231556","-0.050539","847021","916016","859789","3.701509","0.812721","-1.200302","725343","851300","952563","2.855220","0.768427","0.000000","1355","1176","1100","1046","738","620","913","780","734","899","326","165","910","132","910",""
"MA200-0416","26491","75","1","1.10","1.4","2023-05-22T11:06:03","120","2023/05/22","11:06:03","-15.823595702648163","35.08838665485382","0.9","9","30","64","87","-9264","23300","-88","1","150","149.99","114.61","35.37","34.31","33.2","15.81","0","0.00","DUALSPOT-UV-BLUE-GREEN-RED-IR","784973","711892","908098","8.037214","2.375921","7.869082","762004","895942","765376","5.842825","1.615394","0.429374","856461","897601","813092","4.821748","1.228464","0.307304","849937","919299","862886","3.709205","0.812745","1.276518","726967","853255","954734","2.857662","0.767629","0.000000","923","262","-14","755","-153","-500","561","-725","-1166","673","6","-180","297","-315","297",""
"MA200-0416","26492","75","1","1.10","1.4","2023-05-22T11:06:33","120","2023/05/22","11:06:33","-15.823684513568878","35.08828213810921","0.1","10","30","64","87","-9804","22184","-404","1","150","149.76","114.56","35.20","34.34","33.5","15.97","89228","34.25","DUALSPOT-UV-BLUE-GREEN-RED-IR","780220","707785","902833","8.062452","2.378568","-1.763495","757783","891128","761269","5.858762","1.613439","0.354035","858041","899345","814690","4.834228","1.226717","0.424501","852301","921913","865351","3.717109","0.809520","0.405196","728148","854667","956308","2.862213","0.767335","0.000000","1293","441","85","1031","-411","-960","904","-412","-859","692","-918","-1367","554","-116","554",""
"MA200-0416","26493","75","1","1.10","1.4","2023-05-22T11:07:03","120","2023/05/22","11:07:03","-15.823721528053284","35.0880171507597","1.0","9","30","64","87","-10564","22224","-596","1","150","149.51","114.48","35.03","34.37","33.2","15.89","89248","34.25","DUALSPOT-UV-BLUE-GREEN-RED-IR","781066","708715","904220","8.110918","2.397422","0.034297","758977","892702","762696","5.888873","1.626754","0.064685","857931","899417","814859","4.858059","1.237917","0.086130","852829","922610","866038","3.736705","0.818109","0.095374","728593","855263","957031","2.875980","0.771830","0.000000","2486","3161","3444","1949","2818","3149","1728","2654","2971","1717","2460","2668","1679","1792","1679",""
"MA200-0416","26494","75","1","1.10","1.4","2023-05-22T11:07:33","120","2023/05/22","11:07:33","-15.823771297931671","35.08776331692934","1.1","9","30","64","86","-11036","21000","-908","1","150","150.30","114.42","35.88","34.41","33.3","15.97","89264","34.25","DUALSPOT-UV-BLUE-GREEN-RED-IR","779980","708011","903396","8.159739","2.408527","-0.078255","758139","891912","762065","5.918836","1.631408","-0.387917","857462","899068","814557","4.881006","1.239365","3.110373","853380","923330","866743","3.752843","0.817758","0.991726","728269","854993","956729","2.886659","0.773005","0.000000","2506","1817","1529","1941","961","588","1665","335","-117","1415","-98","-519","1303","457","1303",""
"MA200-0416","26495","75","1","1.10","1.4","2023-05-22T11:08:03","120","2023/05/22","11:08:03","-15.823736310005188","35.087590642273426","1.2","9","30","64","86","-12480","20468","-292","1","150","149.51","114.32","35.19","34.45","33.4","16.05","89264","34.19","DUALSPOT-UV-BLUE-GREEN-RED-IR","779129","707637","903096","8.220876","2.424619","-0.031433","757465","891473","761757","5.958015","1.639020","-0.173738","857488","899372","814871","4.912149","1.243907","-0.485677","851713","921786","865286","3.775535","0.820803","-0.683007","728191","855007","956779","2.902820","0.775778","0.000000","3141","2686","2496","2540","1603","1248","2261","1071","668","1991","868","556","1974","1101","1974",""
"MA200-0416","26496","75","1","1.10","1.4","2023-05-22T11:08:33","120","2023/05/22","11:08:33","-15.823513686656952","35.08753614127636","0.9","9","30","64","86","-12424","22152","-2316","1","150","149.67","114.00","35.67","34.49","33.3","16.03","89244","34.25","DUALSPOT-UV-BLUE-GREEN-RED-IR","778738","707835","903681","8.339796","2.460485","-0.006452","757523","892061","762440","6.038985","1.662040","-0.023873","856595","898863","814525","4.974853","1.260495","-0.052415","852281","922717","866311","3.825708","0.834042","-0.065469","727934","854928","956789","2.938535","0.785224","0.000000","6126","5906","5814","5265","4784","4601","4566","3861","3622","4415","3723","3531","4376","3699","4376",""
"MA200-0416","26497","75","1","1.10","1.4","2023-05-22T11:09:03","120","2023/05/22","11:09:03","-15.823277354240417","35.087505146861076","0.9","9","30","64","86","-11012","21944","-916","1","150","149.86","114.27","35.59","34.53","33.5","16.15","89228","34.38","DUALSPOT-UV-BLUE-GREEN-RED-IR","782564","711700","908846","8.414279","2.482793","-0.006842","760362","895750","765695","6.087140","1.673025","-0.096059","859102","901803","817301","5.015057","1.269901","-0.099639","848357","918722","862633","3.857275","0.839912","-0.275330","725831","852657","954295","2.961334","0.790185","0.000000","3828","3681","3620","3124","2288","1971","2921","2194","1947","2771","1654","1344","2787","1947","2787",""
"MA200-0416","26498","75","1","1.10","1.4","2023-05-22T11:09:33","120","2023/05/22","11:09:33","-15.823062717914581","35.087448477745056","1.0","9","30","64","86","-10308","22056","-479","1","150","150.55","114.76","35.79","34.59","33.5","16.22","89228","34.56","DUALSPOT-UV-BLUE-GREEN-RED-IR","778457","708806","905614","8.571600","2.529873","-0.007104","757040","892614","763286","6.204211","1.706714","-0.019240","857099","900381","816251","5.114120","1.297712","-0.030194","845552","916282","860521","3.938500","0.861996","-0.049862","723458","850279","951791","3.027792","0.807478","-0.096378","8051","7725","7589","7562","6977","6755","7166","6451","6207","7100","6190","5935","8089","6749","6262",""
"MA200-0416","26499","75","1","1.10","1.4","2023-05-22T11:10:03","120","2023/05/22","11:10:03","-15.822781801223755","35.08739499002695","1.0","9","30","64","86","-9868","22944","-1368","1","150","149.84","114.22","35.62","34.67","33.5","16.30","89224","34.81","DUALSPOT-UV-BLUE-GREEN-RED-IR","774960","706224","902545","8.710672","2.568943","-0.018759","754644","890285","761390","6.290275","1.727785","-0.066908","855547","899113","815179","5.182111","1.313567","-0.098421","848987","920311","864348","3.992323","0.873607","-0.163174","725374","852750","954630","3.067001","0.817194","-0.126715","7151","6443","6147","5585","4385","3931","4942","3695","3272","4727","3270","2862","4795","3810","3453",""
"MA200-0416","26500","75","1","1.10","1.4","2023-05-22T11:10:33","120","2023/05/22","11:10:33","-15.82252323627472","35.08726914227009","1.0","9","30","64","86","-10633","22054","-1183","1","150","149.51","114.00","35.50","34.75","33.7","16.45","89228","35.06","DUALSPOT-UV-BLUE-GREEN-RED-IR","774681","706770","903739","8.865194","2.613802","-0.012002","754006","890329","761656","6.402153","1.756609","-0.048785","855821","900086","816288","5.276030","1.335299","-0.099420","850360","922340","866399","4.062836","0.886649","-0.266092","725680","853408","955497","3.114536","0.828044","-0.183597","7961","7421","7195","7275","6018","5543","6839","5082","4486","6205","3685","2981","5824","4269","3705",""
"MA200-0416","26501","75","1","1.10","1.4","2023-05-22T11:11:03","120","2023/05/22","11:11:03","-15.822242856025696","35.08724631369114","1.0","9","30","64","86","-10920","21952","-1184","1","150","150.49","113.13","37.36","34.83","33.8","16.54","89228","35.25","DUALSPOT-UV-BLUE-GREEN-RED-IR","776382","708913","906753","8.976533","2.646427","-0.021212","755301","892334","763555","6.477085","1.775468","-0.075308","853511","898064","814544","5.334770","1.348942","-0.123518","845229","917123","861562","4.108159","0.895559","-0.261153","722758","850227","951982","3.147909","0.834959","-0.327050","5780","5128","4856","4910","3741","3300","4310","3031","2598","4019","2392","1939","4121","2585","2030",""
"MA200-0416","26502","75","1","1.10","1.4","2023-05-22T11:11:33","120","2023/05/22","11:11:33","-15.822054982185364","35.08722481131554","0.3","9","30","64","86","-9884","22800","424","1","150","149.58","114.11","35.47","34.91","33.7","16.60","89224","35.38","DUALSPOT-UV-BLUE-GREEN-RED-IR","773236","706729","904264","9.117205","2.685295","-0.020504","753698","891032","762572","6.569850","1.798452","-0.059021","855038","900230","816589","5.413204","1.365595","-0.135919","848967","921561","865842","4.164978","0.905078","-0.344127","724298","852345","954447","3.193042","0.843782","-0.318681","7240","6436","6100","6026","4803","4342","5706","3897","3287","4995","2692","2053","5525","3474","2738",""
"MA200-0416","26503","75","1","1.10","1.4","2023-05-22T11:12:03","120","2023/05/22","11:12:03","-15.821978032588959","35.08701166510582","1.1","10","30","64","86","-9464","22884","-1444","1","150","149.44","113.71","35.73","34.97","33.6","16.60","89264","35.38","DUALSPOT-UV-BLUE-GREEN-RED-IR","774794","708482","906688","9.184175","2.703161","-0.029619","754782","892599","763961","6.611516","1.805442","-0.270048","852628","897939","814565","5.447632","1.370984","-0.373788","843525","915872","860493","4.189576","0.906402","4.383340","725464","853842","956170","3.214391","0.846612","-1.135134","3459","2937","2719","2716","1450","975","2513","1252","827","2170","371","-124","2622","1106","564",""
"MA200-0416","26504","75","1","1.10","1.4","2023-05-22T11:12:33","120","2023/05/22","11:12:33","-15.822141110897064","35.086949810385704","1.1","10","30","64","86","-9964","22152","-116","1","150","149.90","113.92","35.97","35.04","33.4","16.55","89280","35.44","DUALSPOT-UV-BLUE-GREEN-RED-IR","774562","708667","907202","9.273221","2.731660","0.002034","754608","892712","764189","6.659694","1.818597","-0.034337","852415","897971","814694","5.485612","1.378334","-0.195177","845053","917810","862339","4.220285","0.910049","-0.920768","725620","854194","956599","3.237066","0.852324","-0.116831","4591","4653","4679","3135","2710","2551","2767","1696","1336","2704","1017","553","2780","2218","2017",""
"MA200-0416","26505","75","1","1.10","1.4","2023-05-22T11:13:03","120","2023/05/22","11:13:03","-15.82236659526825","35.08697347342968","1.1","10","30","64","86","-10400","22092","-552","1","150","149.90","113.92","35.97","35.09","33.2","16.48","89284","35.44","DUALSPOT-UV-BLUE-GREEN-RED-IR","774624","708961","907728","9.322304","2.747671","0.004794","754871","893236","764676","6.689576","1.826204","-0.054394","852808","898571","815230","5.506020","1.381116","-0.570189","844266","917050","861638","4.236003","0.911480","-2.299929","725989","854716","957190","3.249952","0.854312","-0.696788","2530","2614","2648","1944","1567","1425","1487","642","359","1384","398","128","1580","772","484",""
"MA200-0416","26506","75","1","1.10","1.4","2023-05-22T11:13:33","120","2023/05/22","11:13:33","-15.822630047798157","35.08701615035534","1.1","10","30","64","85","-10680","21572","100","1","150","149.62","114.35","35.27","35.14","32.7","16.29","89284","35.38","DUALSPOT-UV-BLUE-GREEN-RED-IR","771097","706213","904497","9.423216","2.782840","0.016537","752229","890382","762369","6.740473","1.842927","0.012264","850244","896070","813061","5.543142","1.392835","0.005517","840565","913253","858110","4.264135","0.917524","-0.147766","722380","850588","952636","3.270248","0.859293","-0.117278","5183","5857","6140","3299","3515","3596","2695","2758","2780","2468","1719","1514","2479","1972","1792",""
"MA200-0416","26507","75","1","1.10","1.4","2023-05-22T11:14:03","120","2023/05/22","11:14:03","-15.822860777378082","35.087101481854916","0.8","10","30","64","86","-13084","21364","-112","1","150","150.08","114.09","35.99","35.18","32.7","16.34","89280","35.31","DUALSPOT-UV-BLUE-GREEN-RED-IR","770047","705509","903678","9.471257","2.793434","-0.078657","751604","889879","761916","6.767310","1.844621","1.627816","853658","899867","816501","5.564510","1.393008","0.779192","848677","922205","866515","4.277485","0.916129","0.570660","722989","851393","953544","3.282096","0.861430","-0.421803","2473","1728","1417","1743","348","-174","1555","39","-466","1174","-388","-814","1450","829","608",""
"MA200-0416","26508","75","1","1.10","1.4","2023-05-22T11:14:33","120","2023/05/22","11:14:33","-15.822865724563599","35.08709431439638","0.1","10","30","64","86","-10400","21932","-1312","1","150","149.86","114.34","35.51","35.21","32.4","16.23","89276","35.25","DUALSPOT-UV-BLUE-GREEN-RED-IR","774335","709830","909493","9.544596","2.819074","0.015855","755024","894193","765764","6.808152","1.858593","0.017979","851446","897749","814671","5.595361","1.402777","0.004545","844881","918235","862841","4.300138","0.921947","-0.065750","720255","848329","950100","3.300130","0.865782","-0.131226","3767","4240","4439","2647","2916","3017","2240","2283","2298","1987","1643","1549","2203","1712","1537",""
"MA200-0416","26509","75","1","1.10","1.4","2023-05-22T11:15:03","120","2023/05/22","11:15:03","-15.82288509607315","35.08695464581251","1.0","10","30","64","86","-10904","22932","716","1","150","149.91","114.47","35.44","35.24","32.5","16.31","89296","35.19","DUALSPOT-UV-BLUE-GREEN-RED-IR","772238","708223","907582","9.617292","2.838108","-0.029151","753317","892458","764308","6.847487","1.863552","-0.641000","853854","900491","817174","5.624908","1.405304","-4.867612","843311","916697","861363","4.319484","0.921649","0.923617","723889","852686","955044","3.315464","0.868533","-0.399719","3730","3154","2913","2547","1037","472","2142","592","75","1695","-84","-567","1871","1084","804",""
"MA200-0416","26510","75","1","1.10","1.4","2023-05-22T11:15:33","120","2023/05/22","11:15:33","-15.822851955890656","35.086814649403095","1.1","10","30","64","85","-11908","22325","-1016","1","150","150.68","114.53","36.15","35.27","32.6","16.37","89320","35.13","DUALSPOT-UV-BLUE-GREEN-RED-IR","769347","705761","904494","9.652279","2.849153","0.000054","750945","889789","762042","6.868279","1.868015","-0.113984","852182","898870","815707","5.641490","1.406854","-2.668222","840588","913851","858713","4.330991","0.921893","1.478869","722498","851093","953296","3.324840","0.870736","-0.159261","1794","1794","1795","1345","915","754","1201","355","74","1007","67","-186","1143","851","747",""
"MA200-0416","26511","75","1","1.10","1.4","2023-05-22T11:16:03","120","2023/05/22","11:16:03","-15.822868943214417","35.086568638682365","0.9","10","30","64","86","-11204","22491","-41","1","150","149.81","113.90","35.91","35.29","32.6","16.39","89364","35.06","DUALSPOT-UV-BLUE-GREEN-RED-IR","769805","706338","905392","9.693769","2.865150","0.024804","751086","890152","762423","6.897872","1.878107","0.014636","852256","899043","815980","5.664873","1.415353","0.029900","848680","922745","867095","4.348650","0.926852","-0.037059","722298","850966","953177","3.339702","0.873861","-0.245969","2139","2616","2816","1926","2083","2142","1704","1965","2051","1555","1385","1339","1822","1215","1000",""
"MA200-0416","26512","75","1","1.10","1.4","2023-05-22T11:16:33","120","2023/05/22","11:16:33","-15.82299256324768","35.08646948635578","0.6","10","30","64","85","-11464","21504","-184","1","150","150.25","114.18","36.06","35.30","32.7","16.44","89372","35.00","DUALSPOT-UV-BLUE-GREEN-RED-IR","768437","705290","904166","9.733522","2.878475","0.008221","750522","889628","762072","6.924158","1.884384","-0.072842","851404","898289","815327","5.685276","1.419175","-0.208479","846860","920898","865404","4.365070","0.928914","-0.746404","721265","849836","951984","3.353357","0.878134","-0.003729","2044","2170","2222","1706","1290","1134","1483","879","678","1442","573","338","1670","1655","1649",""
"MA200-0416","26513","75","1","1.10","1.4","2023-05-22T11:17:03","120","2023/05/22","11:17:03","-15.823200047016144","35.08657564222813","1.2","10","30","64","85","-14350","18569","-2323","1","150","149.87","114.25","35.62","35.31","32.9","16.57","89364","35.00","DUALSPOT-UV-BLUE-GREEN-RED-IR","766961","704072","902711","9.765770","2.887598","-0.015476","749258","888261","760867","6.943331","1.888359","-0.122626","850640","897634","814728","5.700165","1.421607","-0.304179","846937","921082","865583","4.376229","0.930077","-1.250598","721153","849759","951899","3.363189","0.879175","-2.516314","1657","1504","1440","1244","827","671","1081","566","395","979","327","151","1202","408","127",""
"MA200-0416","26514","75","1","1.10","1.4","2023-05-22T11:17:33","120","2023/05/22","11:17:33","-15.82316917181015","35.0867804735899","0.7","10","30","64","85","-13512","21228","904","1","150","149.63","114.12","35.51","35.33","32.8","16.53","89320","35.00","DUALSPOT-UV-BLUE-GREEN-RED-IR","773696","710426","910987","9.803082","2.900161","0.010658","748795","887830","760607","6.966542","1.895671","0.002439","849968","897038","814229","5.719047","1.426542","-0.047386","845022","919082","863728","4.388108","0.931579","-0.697115","724335","853568","956190","3.373294","0.882181","-0.018779","1920","2078","2144","1507","1526","1533","1373","1153","1080","1044","424","257","1236","1182","1163",""
"MA200-0416","26515","75","1","1.10","1.4","2023-05-22T11:18:03","120","2023/05/22","11:18:03","-15.823096990585327","35.08697081357241","0.5","10","30","72","85","-16408","17716","-2100","1","150","149.67","113.51","36.16","35.34","32.9","16.57","89280","34.94","DUALSPOT-UV-BLUE-GREEN-RED-IR","890678","818198","1049302","9.860167","2.916690","-0.015073","753506","893657","765672","6.998901","1.904142","-0.046366","979099","1033518","938133","5.740827","1.429957","-0.363848","973154","1058571","994843","4.404753","0.935947","-0.065408","834665","983736","1102055","3.387491","0.886639","-0.005793","2953","2684","2571","2113","1736","1595","1593","784","515","1471","1212","1142","1747","1722","1713",""
"MA200-0416","26516","75","1","1.10","1.4","2023-05-22T11:18:33","120","2023/05/22","11:18:33","-15.82313221693039","35.08709514886141","1.3","10","30","64","85","-11358","19916","-1012","1","150","150.43","114.16","36.26","35.34","32.9","16.57","89256","34.88","DUALSPOT-UV-BLUE-GREEN-RED-IR","771108","708532","908805","9.899986","2.929853","0.005509","752775","892930","765056","7.019470","1.908851","-0.088718","851808","899276","816303","5.760347","1.435995","-0.006298","842298","916365","861197","4.417099","0.936710","10.409838","722592","851649","954088","3.396999","0.888857","-0.165343","2048","2131","2166","1335","962","823","1419","1382","1369","1084","211","-24","1163","854","745",""
"MA200-0416","26517","75","1","1.10","1.4","2023-05-22T11:19:03","120","2023/05/22","11:19:03","-15.823408722877502","35.0870878174901","0.9","10","30","64","85","-8969","21676","442","1","150","149.54","113.77","35.77","35.34","32.5","16.37","89256","34.81","DUALSPOT-UV-BLUE-GREEN-RED-IR","769946","707694","907897","9.952414","2.949150","0.019615","751897","892065","764403","7.050066","1.921392","0.041778","851594","899161","816300","5.782890","1.445245","0.050015","841448","915530","860506","4.434408","0.942647","0.023343","722441","851548","954019","3.408867","0.892797","0.020645","2706","3168","3363","1993","2599","2825","1644","2147","2314","1526","1665","1702","1457","1538","1567",""
"MA200-0416","26518","75","1","1.10","1.4","2023-05-22T11:19:33","120","2023/05/22","11:19:33","-15.823644042015076","35.08707181364298","1.2","10","30","64","85","-10616","22720","168","1","150","150.23","114.24","35.99","35.35","32.4","16.34","89268","34.81","DUALSPOT-UV-BLUE-GREEN-RED-IR","768828","706954","907101","10.008883","2.965284","-0.015206","751219","891448","763962","7.083773","1.929302","-0.076188","850901","898608","815832","5.806512","1.449049","-0.321861","841190","915379","860349","4.448867","0.943810","-3.883713","722097","851253","953726","3.419757","0.894091","-1.572918","2903","2633","2519","2187","1629","1420","1716","877","598","1269","324","69","1331","502","208",""
"MA200-0416","26519","75","1","1.10","1.4","2023-05-22T11:20:03","120","2023/05/22","11:20:03","-15.823730170726776","35.08700814843178","0.7","10","30","64","85","-11188","21316","-320","1","150","150.62","113.93","36.69","35.36","32.3","16.29","89280","34.81","DUALSPOT-UV-BLUE-GREEN-RED-IR","769054","707423","907845","10.056288","2.980276","-0.002620","751415","891910","764385","7.111927","1.936489","-0.055998","851004","898874","816151","5.831194","1.455825","-0.041955","840968","915260","860283","4.467010","0.948905","-0.043401","721815","851001","953447","3.431127","0.896576","-0.224343","2444","2399","2381","1831","1452","1310","1798","1533","1445","1597","1393","1338","1394","946","787",""
"MA200-0416","26520","75","1","1.10","1.4","2023-05-22T11:20:33","120","2023/05/22","11:20:33","-15.82370114326477","35.086766481399536","0.8","10","30","64","85","-10132","22216","-1340","1","150","149.57","113.92","35.64","35.37","32.3","16.33","89304","34.81","DUALSPOT-UV-BLUE-GREEN-RED-IR","768210","706862","907256","10.103844","2.994794","-0.003525","750884","891484","764077","7.142817","1.944768","-0.034322","850396","898394","815718","5.852353","1.459890","-0.180960","841294","915731","860738","4.483766","0.952124","-0.214379","721902","851122","953617","3.442546","0.900369","0.022361","2451","2392","2367","2010","1722","1614","1542","946","748","1475","905","752","1400","1486","1517",""
"MA200-0416","26521","75","1","1.10","1.4","2023-05-22T11:21:03","120","2023/05/22","11:21:03","-15.82382583618164","35.0865973085165","1.2","10","30","64","85","-11684","22164","332","1","150","149.76","113.60","36.16","35.38","32.2","16.26","89316","34.81","DUALSPOT-UV-BLUE-GREEN-RED-IR","768899","707744","908526","10.157774","3.013338","0.010083","751269","892098","764685","7.173608","1.955284","0.012686","851285","899467","816792","5.876487","1.469100","0.035670","841688","916248","861285","4.499134","0.957674","0.032427","722411","851832","954448","3.455251","0.904255","-0.016131","2788","3012","3106","2009","2155","2210","1763","2114","2231","1357","1539","1589","1562","1501","1479",""
"MA200-0416","26522","75","1","1.10","1.4","2023-05-22T11:21:33","120","2023/05/22","11:21:33","-15.823974013328552","35.08645165711641","0.7","10","30","64","85","-11296","21356","-816","1","150","149.76","113.67","36.09","35.39","31.9","16.13","89376","34.81","DUALSPOT-UV-BLUE-GREEN-RED-IR","768724","707779","908816","10.212790","3.033861","0.019517","751439","892443","765126","7.206471","1.970577","0.054212","851262","899552","816950","5.900383","1.478510","0.041175","841708","916385","861480","4.518641","0.964140","0.011783","722909","852489","955210","3.468591","0.908396","-0.008975","2842","3340","3550","2143","3141","3517","1745","2164","2305","1721","1797","1818","1639","1602","1589",""
"MA200-0416","26523","75","1","1.10","1.4","2023-05-22T11:22:03","120","2023/05/22","11:22:03","-15.823993384838104","35.08626464009285","0.7","10","30","64","84","-9844","21500","-100","1","150","149.09","113.56","35.52","35.40","31.9","16.14","89424","34.81","DUALSPOT-UV-BLUE-GREEN-RED-IR","766220","705635","906069","10.238556","3.040487","-0.033074","749272","890034","763025","7.222689","1.971149","0.767195","849664","897993","815509","5.913925","1.479643","-7.170765","840459","915110","860262","4.528280","0.964683","5.477807","720901","850139","952604","3.476909","0.909292","-2.281703","1332","1095","995","1058","119","-233","990","264","22","851","153","-35","1023","352","114",""
"MA200-0416","26524","75","1","1.10","1.4","2023-05-22T11:22:33","120","2023/05/22","11:22:33","-15.82404500246048","35.085999481379986","0.7","10","30","64","85","-10852","21240","2124","1","150","150.21","114.25","35.96","35.42","32.1","16.28","89452","34.88","DUALSPOT-UV-BLUE-GREEN-RED-IR","768662","708182","909537","10.276524","3.052059","-0.004594","751101","892443","765176","7.244956","1.975584","-0.140802","847695","896092","813834","5.931568","1.482957","-0.196048","843433","918490","863436","4.538822","0.965756","-1.348750","723323","853109","955909","3.483951","0.909558","1.790947","1951","1890","1863","1444","914","715","1282","765","592","925","299","129","861","103","-164",""
"MA200-0416","26525","75","1","1.10","1.4","2023-05-22T11:23:03","120","2023/05/22","11:23:03","-15.82401031255722","35.08586931228638","0.4","10","30","64","85","-10352","22304","-448","1","150","150.55","114.23","36.32","35.42","32.1","16.24","89460","34.88","DUALSPOT-UV-BLUE-GREEN-RED-IR","768227","708024","909519","10.355185","3.081382","0.019024","751024","892500","765317","7.286297","1.991266","0.028791","847536","896066","813878","5.963498","1.493078","-0.000733","843341","918473","863497","4.562206","0.973069","-0.004687","723249","853118","955967","3.501976","0.914048","-0.118427","4044","4741","5036","2682","3200","3395","2320","2313","2310","2053","2019","2010","2204","1726","1558",""
"MA200-0416","26526","75","1","1.10","1.4","2023-05-22T11:23:33","120","2023/05/22","11:23:33","-15.824022471904755","35.08563498407602","1.1","10","30","64","85","-11180","21896","-888","1","150","149.37","113.69","35.68","35.43","32.1","16.25","89500","34.88","DUALSPOT-UV-BLUE-GREEN-RED-IR","768744","708672","910479","10.389879","3.092697","0.005082","751189","892827","765638","7.304933","1.995998","-0.048752","847556","896170","814017","5.980181","1.498478","0.006750","843486","918702","863694","4.567821","0.972682","0.617150","723369","853327","956236","3.510814","0.916584","-0.037249","1792","1862","1892","1215","983","896","1218","1256","1269","495","-108","-272","1086","993","960",""
"MA200-0416","26527","75","1","1.10","1.4","2023-05-22T11:24:03","120","2023/05/22","11:24:03","-15.823948800563812","35.085358649492264","0.6","10","30","64","85","-13368","21504","-1996","1","150","150.64","114.35","36.28","35.43","31.9","16.17","89500","34.88","DUALSPOT-UV-BLUE-GREEN-RED-IR","769221","709332","911409","10.431492","3.103790","-0.028243","746516","887448","761083","7.332504","2.004325","-0.009676","846876","895582","813534","6.001234","1.503914","-0.055105","843007","918285","863336","4.582323","0.975704","-0.168846","722267","852079","954879","3.521467","0.920726","0.066391","2137","1795","1650","1787","1701","1669","1528","1243","1148","1272","835","717","1301","1594","1698",""
"MA200-0416","26528","75","1","1.10","1.4","2023-05-22T11:24:33","120","2023/05/22","11:24:33","-15.8240265250206","35.08517748862505","0.5","10","30","64","84","-12341","21258","-458","1","150","149.89","114.31","35.58","35.42","31.7","16.06","89464","34.94","DUALSPOT-UV-BLUE-GREEN-RED-IR","762621","703374","903865","10.465027","3.116024","0.018800","747149","888342","761911","7.353519","2.011299","0.011334","848339","897257","815066","6.017584","1.509433","0.016835","845251","920781","865763","4.595118","0.979608","-0.005577","723931","854100","957166","3.530454","0.922264","-0.442562","1723","2019","2145","1362","1452","1486","1187","1287","1321","1122","1100","1094","1098","603","428",""
"MA200-0416","26529","75","1","1.10","1.4","2023-05-22T11:25:03","120","2023/05/22","11:25:03","-15.824118852615356","35.08500000089407","0.9","10","30","64","85","-10936","20724","-1320","1","150","150.62","114.04","36.58","35.43","31.7","16.07","89448","35.00","DUALSPOT-UV-BLUE-GREEN-RED-IR","764314","705119","906150","10.487410","3.118766","-0.696261","748184","889685","763045","7.368533","2.010721","0.386880","848774","897821","815578","6.027830","1.507705","0.326229","846039","921728","866623","4.603164","0.977766","0.401996","720201","849736","952265","3.535041","0.922596","6.291844","1152","440","138","975","-117","-527","745","-392","-771","707","-505","-832","561","127","-26",""
"MA200-0416","26530","75","1","1.10","1.4","2023-05-22T11:25:33","120","2023/05/22","11:25:33","-15.824182510375977","35.084789991378784","1.3","10","30","64","84","-11920","20300","-3541","1","150","150.69","114.18","36.51","35.43","31.5","15.99","89420","34.94","DUALSPOT-UV-BLUE-GREEN-RED-IR","763432","704418","905350","10.523481","3.131208","0.009574","747346","888841","762378","7.392462","2.018375","0.000051","848805","897963","815758","6.046515","1.513320","-0.014477","838959","914105","859463","4.617782","0.982439","-0.000053","720035","849571","952090","3.542072","0.923985","-0.302486","1855","2001","2063","1553","1554","1554","1358","1276","1249","1284","1284","1284","860","531","415",""
"MA200-0416","26531","75","1","1.10","1.4","2023-05-22T11:26:03","120","2023/05/22","11:26:03","-15.824292778968811","35.08453231304884","0.8","10","30","64","84","-10248","21332","-308","1","150","150.49","113.84","36.66","35.43","31.4","15.93","89408","34.94","DUALSPOT-UV-BLUE-GREEN-RED-IR","763165","704314","905281","10.549946","3.139345","-0.006514","746854","888351","761992","7.408818","2.023138","-0.020475","848266","897473","815340","6.058067","1.515674","-0.158226","845727","921547","866495","4.626636","0.984740","-0.070243","724055","854369","957469","3.549364","0.925589","-0.211327","1365","1303","1277","1065","963","924","842","533","430","780","629","588","894","611","511",""
"MA200-0416","26532","75","1","1.10","1.4","2023-05-22T11:26:33","120","2023/05/22","11:26:33","-15.824405491352081","35.084334157407284","0.3","10","30","64","85","-24940","5536","-3168","1","150","150.31","113.62","36.69","35.43","31.3","15.87","89404","34.88","DUALSPOT-UV-BLUE-GREEN-RED-IR","761213","702684","903308","10.584341","3.151235","0.008624","745531","886872","760819","7.429813","2.031435","0.031698","843736","892749","811111","6.072717","1.521218","0.030704","844680","920490","865544","4.638838","0.988662","-0.001273","723750","854068","957177","3.555954","0.927151","-0.157987","1778","1903","1956","1369","1676","1791","1070","1254","1315","1077","1072","1071","810","594","518",""
