"Serial number","Datum ID","Session ID","Data format version","Firmware version","App version","Date / time local","Timezone offset (mins)","Date local (yyyy/MM/dd)","Time local (hh:mm:ss)","GPS lat (ddmm.mmmmm)","GPS long (dddmm.mmmmm)","GPS speed (km/h)","GPS sat count","Timebase (s)","Status","Battery remaining (%)","Accel X","Accel Y","Accel Z","Tape position","Flow setpoint (mL/min)","Flow total (mL/min)","Flow1 (mL/min)","Flow2 (mL/min)","Sample temp (C)","Sample RH (%)","Sample dewpoint (C)","Internal pressure (Pa)","Internal temp (C)","Optical config","UV Sen1","UV Sen2","UV Ref","UV ATN1","UV ATN2","UV K","Blue Sen1","Blue Sen2","Blue Ref","Blue ATN1","Blue ATN2","Blue K","Green Sen1","Green Sen2","Green Ref","Green ATN1","Green ATN2","Green K","Red Sen1","Red Sen2","Red Ref","Red ATN1","Red ATN2","Red K","IR Sen1","IR Sen2","IR Ref","IR ATN1","IR ATN2","IR K","UV BC1","UV BC2","UV BCc","Blue BC1","Blue BC2","Blue BCc","Green BC1","Green BC2","Green BCc","Red BC1","Red BC2","Red BCc","IR BC1","IR BC2","IR BCc","Readable status"
"MA200-0416","59087","121","1","1.10","1.6","2023-08-19T20:50:00","120","2023/08/19","20:50:00","0","0","0.0","14","300","66","20","-1900","-6272","-25756","1","150","149.76","115.79","33.97","28.46","32.2","10.27","0","0.00","DUALSPOT-UV-BLUE-GREEN-RED-IR","795699","713000","908177","0.000000","0.000000","0.000000","748774","878853","765920","0.000000","0.000000","0.000000","837946","882540","815966","0.000000","0.000000","0.000000","826543","902616","863256","0.000000","0.000000","0.000000","701383","832701","950992","0.000000","0.000000","0.000000","","","","","","","","","","","","","","","","Start up-DualSpot on"
"MA200-0416","59088","121","1","1.10","1.6","2023-08-19T20:55:00","120","2023/08/19","20:55:00","0","0","0.0","14","300","66","19","-1932","-6396","-25708","1","150","149.33","116.35","32.98","28.33","30.9","9.52","0","0.00","DUALSPOT-UV-BLUE-GREEN-RED-IR","778902","709171","908634","0.000000","0.000000","0.000000","738585","875733","766164","0.000000","0.000000","0.000000","829908","881080","817118","0.000000","0.000000","0.000000","819360","900208","863009","0.000000","0.000000","0.000000","699299","833406","953083","0.000000","0.000000","0.000000","","","","","","","","","","","","","","","","Start up-DualSpot on"
"MA200-0416","59089","121","1","1.10","1.6","2023-08-19T21:00:00","120","2023/08/19","21:00:00","0","0","0.0","14","300","64","19","-2043","-6356","-25552","1","150","149.94","116.38","33.56","28.28","30.5","9.31","89508","27.75","DUALSPOT-UV-BLUE-GREEN-RED-IR","764566","705754","909115","0.000000","0.000000","0.000000","729398","872963","766545","0.000000","0.000000","0.000000","821503","878831","817470","0.000000","0.000000","0.000000","812846","898274","863118","0.000000","0.000000","0.000000","695953","832522","953299","0.000000","0.000000","0.000000","","","","","","","","","","","","","","","","DualSpot on"
"MA200-0416","59090","121","1","1.10","1.6","2023-08-19T21:05:00","120","2023/08/19","21:05:00","0","0","0.0","14","300","64","37","-2664","-5856","-25912","1","150","150.23","116.43","33.80","28.34","30.5","9.36","89524","28.38","DUALSPOT-UV-BLUE-GREEN-RED-IR","728823","696404","909122","4.713453","1.314300","-0.012280","702915","864246","766862","3.680584","1.028930","-0.014705","794849","870323","816764","3.159070","0.870996","-0.023590","793160","893529","864790","2.599114","0.709223","0.000000","682751","828331","953169","1.865284","0.478437","0.000000","23778","22840","22477","23435","22568","22231","22526","21395","20964","22396","21052","22396","22380","19774","22380","DualSpot on"
"MA200-0416","59091","121","1","1.10","1.6","2023-08-19T21:10:00","120","2023/08/19","21:10:00","0","0","0.0","14","300","64","41","-2592","-5848","-26040","1","150","149.83","116.87","32.96","29.29","30.0","9.92","89520","31.13","DUALSPOT-UV-BLUE-GREEN-RED-IR","701489","686114","904794","8.137010","2.352283","0.011709","684170","856423","765631","6.281443","1.791233","0.008254","778386","865607","817368","5.386638","1.505065","0.002323","777346","887061","862693","4.420469","1.208013","-0.009443","673649","825102","952604","3.183609","0.820380","-0.038182","17206","18494","19018","16498","17143","17400","15824","15969","16025","15636","15180","15009","15758","14490","14050","DualSpot on"
"MA200-0416","59092","121","1","1.10","1.6","2023-08-19T21:15:00","120","2023/08/19","21:15:00","0","0","0.0","14","300","64","42","-2512","-5916","-25912","1","150","150.62","116.59","34.04","30.23","29.1","10.26","89540","32.38","DUALSPOT-UV-BLUE-GREEN-RED-IR","688362","682413","905931","10.140770","3.015194","0.015718","674532","852625","765508","7.678501","2.217793","0.007891","767336","860483","815176","6.538959","1.829183","-0.008169","773519","888768","866359","5.331363","1.439637","-0.040257","669683","824157","953126","3.823291","0.985133","-0.049323","10094","11439","12008","8883","9290","9456","8205","7906","7789","7838","6827","6453","7664","6761","6448","DualSpot on"
"MA200-0416","59093","121","1","1.10","1.6","2023-08-19T21:20:00","120","2023/08/19","21:20:00","0","0","0.0","14","300","64","43","-2476","-5908","-25840","1","150","149.90","116.07","33.83","31.08","28.2","10.51","89552","33.38","DUALSPOT-UV-BLUE-GREEN-RED-IR","671176","676085","904974","12.564507","3.839210","0.015400","660949","844969","762548","9.322579","2.731114","0.009835","755276","855177","813365","7.900627","2.222841","-0.001421","764667","885605","865734","6.409615","1.721406","-0.025659","664848","822954","953622","4.598003","1.184476","-0.040709","12265","14308","15207","10500","11249","11560","9739","9662","9631","9320","8357","8003","9323","8232","7853","DualSpot on"
"MA200-0416","59094","121","1","1.10","1.6","2023-08-19T21:25:00","120","2023/08/19","21:25:00","0","0","0.0","14","300","64","45","-2445","-6025","-25787","1","150","150.69","116.83","33.86","31.86","27.4","10.77","89548","34.19","DUALSPOT-UV-BLUE-GREEN-RED-IR","657651","672842","908251","14.954056","4.675735","0.015520","651349","842357","764292","11.015265","3.272623","0.011667","744336","851257","813106","9.324386","2.647197","0.004070","751161","877232","860221","7.551607","2.031356","-0.012632","657400","818734","950787","5.428962","1.400468","-0.029778","12013","14509","15644","10741","11854","12325","10118","10403","10517","9807","9182","8953","9936","8910","8553","DualSpot on"
"MA200-0416","59095","121","1","1.10","1.6","2023-08-19T21:30:00","120","2023/08/19","21:30:00","0","0","0.0","14","300","64","45","-2394","-5927","-25869","1","150","149.09","116.63","32.46","32.54","26.7","10.93","89556","34.88","DUALSPOT-UV-BLUE-GREEN-RED-IR","629286","661132","905040","19.012214","6.075763","0.013696","629485","831110","761713","14.091085","4.273182","0.013840","726054","845610","814339","11.958948","3.465718","0.011766","738461","875728","864175","9.714728","2.664554","0.006852","646321","814522","950151","7.059097","1.850263","-0.001671","20437","25333","27633","19551","22851","24287","18754","20935","21825","18608","19571","19935","19525","19357","19298","DualSpot on"
"MA200-0416","59096","121","1","1.10","1.6","2023-08-19T21:35:00","120","2023/08/19","21:35:00","0","0","0.0","14","300","64","47","-2368","-5976","-25880","1","150","149.96","116.15","33.81","33.09","26.0","11.00","89576","35.44","DUALSPOT-UV-BLUE-GREEN-RED-IR","620647","660257","911039","21.060344","6.874157","0.015898","623198","830825","765486","15.592470","4.805755","0.015395","719254","844846","817033","13.236796","3.888094","0.012156","728764","870495","861675","10.748470","2.976596","0.004519","645535","817876","956127","7.811493","2.067534","-0.001414","10357","13868","15570","9582","11676","12609","9133","10371","10885","8929","9258","9385","9049","8976","8950","DualSpot on"
"MA200-0416","59097","121","1","1.10","1.6","2023-08-19T21:40:00","120","2023/08/19","21:40:00","0","0","0.0","13","300","64","48","-2388","-5988","-25832","1","150","150.36","116.40","33.97","33.56","25.4","11.08","89560","35.88","DUALSPOT-UV-BLUE-GREEN-RED-IR","608626","655146","911116","23.032356","7.661602","0.015443","613985","826098","765121","17.036014","5.328732","0.015266","710923","841840","817505","14.464044","4.302293","0.012602","721611","867827","861716","11.740194","3.283017","0.006433","639336","814183","953792","8.530972","2.274620","-0.002220","9950","13617","15444","9193","11414","12425","8753","10124","10704","8547","9051","9246","8634","8517","8474","DualSpot on"
"MA200-0416","59098","121","1","1.10","1.6","2023-08-19T21:45:00","120","2023/08/19","21:45:00","0","0","0.0","13","300","64","49","-2404","-6020","-25944","1","150","149.59","117.21","32.38","33.91","25.0","11.13","89572","36.19","DUALSPOT-UV-BLUE-GREEN-RED-IR","595778","647540","906762","24.689110","8.348552","0.017449","603993","818905","762029","18.277104","5.798185","0.019203","701960","836919","815779","15.522245","4.679787","0.018960","717639","868021","864313","12.597490","3.563320","0.016176","635704","812998","954178","9.144470","2.459861","0.012340","8302","12460","14585","7849","10747","12094","7495","9678","10621","7338","8684","9216","7311","7991","8241","DualSpot on"
"MA200-0416","59099","121","1","1.10","1.6","2023-08-19T21:50:00","120","2023/08/19","21:50:00","0","0","0.0","14","300","64","51","-2456","-6060","-25912","1","150","149.70","117.02","32.67","34.22","24.7","11.19","89572","36.50","DUALSPOT-UV-BLUE-GREEN-RED-IR","589116","645287","908908","26.054360","8.936138","0.017341","599212","817578","763848","19.311990","6.203139","0.019246","696571","835131","816705","16.407410","5.004960","0.019041","713855","867579","865961","13.315582","3.806400","0.017218","631594","810597","952883","9.659275","2.622587","0.015896","6852","10563","12500","6555","9188","10433","6279","8262","9133","6156","7464","7987","6145","6957","7260","DualSpot on"
"MA200-0416","59100","121","1","1.10","1.6","2023-08-19T21:55:00","120","2023/08/19","21:55:00","0","0","0.0","13","300","64","52","-2308","-5972","-26056","1","150","150.23","116.43","33.80","34.55","24.4","11.29","89580","36.81","DUALSPOT-UV-BLUE-GREEN-RED-IR","583447","643631","911667","27.323750","9.494537","0.016150","594046","815216","764596","20.276638","6.588340","0.017629","688728","829993","814153","17.230930","5.312222","0.016946","703832","859137","859517","13.986240","4.035719","0.014301","627926","808599","952005","10.147728","2.775898","0.009909","6403","9704","11461","6142","8448","9559","5872","7547","8294","5779","6807","7224","5860","6336","6515","DualSpot on"
"MA200-0416","59101","121","1","1.10","1.6","2023-08-19T22:00:00","120","2023/08/19","22:00:00","0","0","0.0","13","300","64","36","-2308","-6008","-25768","1","150","148.03","114.76","33.27","34.85","24.1","11.35","89592","37.13","DUALSPOT-UV-BLUE-GREEN-RED-IR","574144","637658","908068","28.539710","10.039352","0.016010","586642","809466","762088","21.202032","6.965864","0.017802","685136","829703","816326","18.021294","5.614257","0.017534","702702","861345","863678","14.630047","4.261274","0.015530","625972","808649","953533","10.614311","2.927219","0.013257","6223","9617","11459","5977","8411","9602","5717","7536","8359","5628","6801","7283","5679","6353","6609","DualSpot on"
"MA200-0416","59102","121","1","1.10","1.6","2023-08-19T22:05:00","120","2023/08/19","22:05:00","0","0","0.0","13","300","64","34","-2496","-5916","-25784","1","150","150.16","116.67","33.49","34.30","24.0","10.83","89548","34.50","DUALSPOT-UV-BLUE-GREEN-RED-IR","564809","631396","904193","29.750698","10.594135","0.016154","583376","809300","764966","22.131984","7.362133","0.019000","678710","825832","815185","18.822690","5.937516","0.019749","695574","856094","860514","15.284750","4.510127","0.020601","622376","806460","952462","11.083946","3.090654","0.020511","6096","9728","11737","5909","8770","10197","5702","8012","9077","5630","7454","8217","5623","6816","7277","DualSpot on"
"MA200-0416","59103","121","1","1.10","1.6","2023-08-19T22:10:00","120","2023/08/19","22:10:00","0","0","0.0","14","300","64","34","-2357","-5782","-25928","1","150","150.42","116.54","33.88","33.67","24.2","10.41","89548","33.50","DUALSPOT-UV-BLUE-GREEN-RED-IR","561509","631500","909279","30.897740","11.134796","0.015950","576941","804408","763389","23.033498","7.759338","0.018993","674754","824679","816739","19.596260","6.271118","0.021207","694331","857737","864507","15.924427","4.778666","0.024379","619758","805285","952575","11.517139","3.247263","0.021999","5780","9373","11397","5734","8691","10194","5510","8175","9429","5506","7952","9001","5192","6457","6954","DualSpot on"
"MA200-0416","59104","121","1","1.10","1.6","2023-08-19T22:15:00","120","2023/08/19","22:15:00","0","0","0.0","14","300","64","52","-1992","-6364","-25808","1","150","150.49","117.13","33.36","33.49","24.5","10.44","0","0.00","DUALSPOT-UV-BLUE-GREEN-RED-IR","550232","622500","901106","32.028290","11.673878","0.016069","572546","802091","764201","23.913422","8.155065","0.019554","667044","818709","813560","20.355856","6.603318","0.021717","684822","849042","858029","16.552940","5.047458","0.025315","615591","801957","950058","11.931335","3.396732","0.022771","5669","9490","11681","5569","8792","10460","5384","8266","9650","5383","8082","9266","4940","6258","6782","DualSpot on"
"MA200-0416","59105","121","1","1.10","1.6","2023-08-19T22:20:00","120","2023/08/19","22:20:00","0","0","0.0","14","300","64","55","-1950","-6383","-25937","1","150","149.67","116.67","33.00","33.77","24.4","10.64","0","0.00","DUALSPOT-UV-BLUE-GREEN-RED-IR","550176","625971","910772","33.104088","12.185764","0.015680","568301","799927","764886","24.746790","8.521396","0.018504","663996","818424","815712","21.077680","6.904936","0.019691","687905","855961","867038","17.147504","5.281431","0.021056","617077","806107","956283","12.338638","3.533865","0.017052","5416","9109","11261","5295","8228","9768","5136","7587","8781","5113","7112","8002","4877","5804","6176","DualSpot on"
"MA200-0416","59106","121","1","1.10","1.6","2023-08-19T22:25:00","120","2023/08/19","22:25:00","0","0","0.0","14","300","64","57","-1868","-6420","-25916","1","150","150.30","116.67","33.64","34.05","24.2","10.76","89568","36.13","DUALSPOT-UV-BLUE-GREEN-RED-IR","543294","621474","908849","34.150692","12.689060","0.015087","562533","795360","763237","25.555866","8.876747","0.017414","659367","816068","815694","21.774668","7.192588","0.017994","682583","852371","865291","17.719374","5.498223","0.017688","612954","802847","953757","12.745197","3.672308","0.015911","5269","8788","10869","5141","7831","9263","4960","7099","8155","4917","6466","7162","4868","5749","6106","DualSpot on"
"MA200-0416","59107","121","1","1.10","1.6","2023-08-19T22:30:00","120","2023/08/19","22:30:00","0","0","0.0","14","300","64","59","-1860","-6475","-25872","1","150","150.23","116.42","33.81","34.32","24.0","10.82","89572","36.44","DUALSPOT-UV-BLUE-GREEN-RED-IR","539356","620218","911577","35.174980","13.189632","0.014841","559492","794623","765235","26.354188","9.229511","0.016893","655689","814808","816775","22.467846","7.477562","0.017080","679912","852044","866847","18.295568","5.715534","0.016547","610314","801582","953606","13.163818","3.814029","0.014365","5167","8695","10811","5083","7734","9162","4943","6997","8021","4965","6447","7121","5023","5855","6194","DualSpot on"
"MA200-0416","59108","121","1","1.10","1.6","2023-08-19T22:35:00","120","2023/08/19","22:35:00","0","0","0.0","14","300","64","61","-1788","-6319","-25896","1","150","149.96","117.10","32.86","34.52","23.7","10.82","89576","36.69","DUALSPOT-UV-BLUE-GREEN-RED-IR","529580","611957","903749","36.141484","13.673283","0.015427","555592","792353","765673","27.111630","9.571350","0.017876","649008","809538","813731","23.125530","7.754663","0.018598","676263","850330","866923","18.840852","5.926488","0.018891","607187","799609","952551","13.566399","3.952602","0.017869","4847","8645","10956","4794","7712","9304","4662","7001","8181","4671","6441","7253","4802","5891","6339","DualSpot on"
"MA200-0416","59109","121","1","1.10","1.6","2023-08-19T22:40:00","120","2023/08/19","22:40:00","0","0","0.0","13","300","64","63","-1816","-6411","-25891","1","150","149.57","117.06","32.50","34.70","23.6","10.91","89576","36.88","DUALSPOT-UV-BLUE-GREEN-RED-IR","528185","613273","910157","37.114032","14.163353","0.015320","550082","787815","763907","27.877656","9.918339","0.017757","647059","810295","816779","23.793484","8.037245","0.018562","670887","846479","864869","19.400712","6.143283","0.018874","606931","801458","956108","13.982712","4.094568","0.017452","4879","8856","11310","4850","7914","9606","4737","7218","8484","4798","6692","7570","4967","6101","6571","DualSpot on"
"MA200-0416","59110","121","1","1.10","1.6","2023-08-19T22:45:00","120","2023/08/19","22:45:00","0","0","0.0","14","300","64","65","-1872","-6543","-25660","1","150","150.62","117.22","33.40","34.84","23.5","10.98","89580","37.00","DUALSPOT-UV-BLUE-GREEN-RED-IR","521165","607870","906474","38.049364","14.646923","0.014974","547874","787751","766505","28.617070","10.263968","0.017462","641911","806738","815500","24.437904","8.318639","0.018280","665368","842170","862347","19.937500","6.358951","0.018851","602549","797736","953000","14.378891","4.234997","0.017875","4686","8503","10893","4676","7671","9346","4564","6994","8249","4594","6478","7360","4721","5873","6354","DualSpot on"
"MA200-0416","59111","121","1","1.10","1.6","2023-08-19T22:50:00","120","2023/08/19","22:50:00","0","0","0.0","14","300","64","67","-1687","-6437","-25658","1","150","150.16","117.42","32.74","34.95","23.5","11.03","89580","37.06","DUALSPOT-UV-BLUE-GREEN-RED-IR","517944","606922","909508","39.000668","15.134872","0.014832","541520","781688","763255","29.365154","10.612935","0.017475","638997","806044","817111","25.090504","8.602857","0.018374","664084","843283","865361","20.480900","6.577910","0.019340","601206","798010","954684","14.778931","4.376510","0.018699","4758","8754","11288","4722","7902","9701","4614","7207","8560","4642","6710","7688","4759","6038","6576","DualSpot on"
"MA200-0416","59112","121","1","1.10","1.6","2023-08-19T22:55:00","120","2023/08/19","22:55:00","0","0","0.0","13","300","64","69","-1768","-6500","-25868","1","150","150.69","117.38","33.31","35.04","23.3","11.03","89596","37.13","DUALSPOT-UV-BLUE-GREEN-RED-IR","509638","599825","903172","39.924280","15.612843","0.014402","538365","780149","764393","30.098720","10.957253","0.016847","635197","804102","817473","25.728260","8.884297","0.017837","662075","843348","867315","21.009236","6.795266","0.019010","599083","797163","955006","15.166424","4.516567","0.018498","4621","8428","10873","4632","7663","9398","4510","7015","8336","4515","6547","7518","4611","5874","6409","DualSpot on"
"MA200-0416","59113","121","1","1.10","1.6","2023-08-19T23:00:00","120","2023/08/19","23:00:00","0","0","0.0","13","300","64","71","-1737","-6362","-25720","1","150","149.57","117.22","32.34","35.08","23.2","10.99","89588","37.19","DUALSPOT-UV-BLUE-GREEN-RED-IR","505915","597982","904696","40.825348","16.090927","0.014788","535169","778453","765410","30.824440","11.308915","0.017659","628811","798773","814374","26.362574","9.174056","0.019020","653021","834382","860015","21.541544","7.019533","0.020369","597076","796456","955478","15.553135","4.658291","0.020519","4514","8682","11393","4589","8060","10072","4492","7438","9010","4555","6956","8117","4608","6121","6768","DualSpot on"
"MA200-0416","59114","121","1","1.10","1.6","2023-08-19T23:05:00","120","2023/08/19","23:05:00","0","0","0.0","13","300","64","72","-1608","-6252","-25740","1","150","149.51","117.42","32.08","35.09","23.1","10.89","89592","37.19","DUALSPOT-UV-BLUE-GREEN-RED-IR","500380","593821","902630","41.692480","16.556107","0.014753","530961","775118","764740","31.523770","11.649520","0.017568","624346","795733","813554","26.976004","9.455686","0.018965","648210","830660","858064","22.054334","7.238418","0.020659","590416","789392","948352","15.926826","4.797897","0.021633","4337","8516","11268","4415","7870","9895","4337","7287","8880","4381","6844","8048","4445","6078","6782","DualSpot on"
"MA200-0416","59115","121","1","1.10","1.6","2023-08-19T23:10:00","120","2023/08/19","23:10:00","0","0","0.0","13","300","64","74","-1776","-6488","-25736","1","150","149.66","116.88","32.78","35.09","22.9","10.79","89596","37.13","DUALSPOT-UV-BLUE-GREEN-RED-IR","497033","592374","905033","42.625624","17.063000","0.014303","527803","773424","765930","32.274250","12.020785","0.017009","623516","797473","817891","27.636382","9.764367","0.018365","651376","837388","867116","22.611742","7.479741","0.019820","592218","793794","955118","16.328976","4.948929","0.020038","4689","9081","12013","4760","8395","10553","4690","7817","9525","4784","7385","8670","4806","6435","7144","DualSpot on"
"MA200-0416","59116","121","1","1.10","1.6","2023-08-19T23:15:00","120","2023/08/19","23:15:00","0","0","0.0","13","300","64","76","-1740","-6424","-25724","1","150","150.09","117.42","32.67","35.07","22.8","10.71","89592","37.06","DUALSPOT-UV-BLUE-GREEN-RED-IR","491197","588209","903971","43.695284","17.653180","0.014247","522587","769108","764927","33.137832","12.453240","0.016949","615981","791005","814157","28.392952","10.120004","0.018215","646457","834043","866060","23.250008","7.760012","0.019983","589446","792360","955059","16.791748","5.125660","0.020787","5350","10609","14175","5452","9812","12437","5349","9037","11079","5453","8606","10185","5505","7556","8457","DualSpot on"
"MA200-0416","59117","121","1","1.10","1.6","2023-08-19T23:20:00","120","2023/08/19","23:20:00","0","0","0.0","13","300","64","78","-1743","-6472","-25816","1","150","150.09","117.10","32.99","35.03","22.9","10.70","89588","37.06","DUALSPOT-UV-BLUE-GREEN-RED-IR","488879","588410","910038","44.829812","18.286664","0.013916","516858","764159","763555","34.061576","12.919009","0.016439","613046","790618","816910","29.206956","10.507363","0.017749","641613","830965","865462","23.934498","8.062609","0.019298","585967","790090","954162","17.289284","5.316681","0.019886","5690","11278","15128","5847","10466","13288","5771","9748","11983","5864","9202","10898","5935","8088","9045","DualSpot on"
"MA200-0416","59118","121","1","1.10","1.6","2023-08-19T23:25:00","120","2023/08/19","23:25:00","0","0","0.0","11","300","64","80","-1666","-6450","-25758","1","150","150.35","116.63","33.73","34.98","22.9","10.69","89576","36.94","DUALSPOT-UV-BLUE-GREEN-RED-IR","481481","582745","907643","46.093292","18.991200","0.013282","510300","758319","761805","35.108620","13.450620","0.015683","606675","786202","815928","30.131390","10.948472","0.016768","635347","826495","863857","24.723902","8.414482","0.018233","581835","787371","952999","17.874172","5.541565","0.018087","6363","12270","16409","6655","11685","14809","6580","10858","13300","6790","10467","12364","7005","9314","10352","DualSpot on"
"MA200-0416","59119","121","1","1.10","1.6","2023-08-19T23:30:00","120","2023/08/19","23:30:00","0","0","0.0","12","300","64","81","-1700","-6420","-25688","1","150","149.66","117.09","32.57","34.94","22.9","10.68","89572","36.88","DUALSPOT-UV-BLUE-GREEN-RED-IR","474991","577616","905475","47.216544","19.637906","0.013698","508664","759263","766395","36.026700","13.928592","0.016290","600891","781892","814704","30.942468","11.346375","0.017664","629121","821411","861224","25.410706","8.727807","0.019422","577850","784351","951223","18.375596","5.737806","0.020223","5634","11660","15951","5812","10877","14070","5751","10141","12683","5885","9650","11619","5982","8415","9520","DualSpot on"
"MA200-0416","59120","121","1","1.10","1.6","2023-08-19T23:35:00","120","2023/08/19","23:35:00","0","0","0.0","12","300","64","82","-1720","-6487","-25775","1","150","149.59","116.92","32.67","34.88","23.0","10.70","89572","36.81","DUALSPOT-UV-BLUE-GREEN-RED-IR","471493","576000","908847","48.320296","20.287326","0.013573","501621","751946","762695","36.937676","14.413284","0.016167","596866","779819","815804","31.747688","11.747454","0.017450","626805","821392","863980","26.093030","9.046642","0.019435","576600","784969","953878","18.872150","5.939909","0.021186","5544","11674","16111","5776","10997","14339","5717","10191","12819","5855","9790","11879","5932","8641","9885","DualSpot on"
"MA200-0416","59121","121","1","1.10","1.6","2023-08-19T23:40:00","120","2023/08/19","23:40:00","0","0","0.0","12","300","64","85","-1766","-6529","-25883","1","150","149.51","117.06","32.44","34.79","23.2","10.70","89564","36.69","DUALSPOT-UV-BLUE-GREEN-RED-IR","466325","572165","908541","49.391900","20.923504","0.013456","497327","748600","762902","37.824696","14.887545","0.015999","592228","776782","815853","32.535016","12.143298","0.017368","622437","818576","863721","26.763462","9.360031","0.019192","573889","783560","954062","19.361748","6.137922","0.020771","5376","11518","16032","5617","10837","14226","5583","10130","12838","5745","9691","11814","5842","8526","9772","DualSpot on"
"MA200-0416","59122","121","1","1.10","1.6","2023-08-19T23:45:00","120","2023/08/19","23:45:00","0","0","0.0","12","300","64","88","-1684","-6443","-25891","1","150","150.56","117.71","32.85","34.73","23.3","10.76","89560","36.63","DUALSPOT-UV-BLUE-GREEN-RED-IR","460443","567217","906233","50.407020","21.538036","0.013316","495726","749030","766855","38.667352","15.349543","0.015913","586728","772341","814298","33.281158","12.528284","0.017322","616570","813557","861032","27.400376","9.665549","0.019204","570253","780724","952442","19.828666","6.330032","0.020709","5065","10987","15406","5306","10425","13795","5262","9729","12426","5428","9330","11457","5541","8169","9401","DualSpot on"
"MA200-0416","59123","121","1","1.10","1.6","2023-08-19T23:50:00","120","2023/08/19","23:50:00","0","0","0.0","12","300","64","90","-1716","-6520","-25758","1","150","149.80","116.59","33.21","34.66","23.5","10.82","89552","36.50","DUALSPOT-UV-BLUE-GREEN-RED-IR","454884","562429","903801","51.361404","22.120652","0.012998","490750","744170","765206","39.462224","15.784801","0.015355","584427","771948","816869","33.988464","12.892707","0.016648","616543","816104","866258","28.006886","9.954971","0.018271","566891","778134","951058","20.275792","6.514671","0.019660","4808","10305","14464","5054","9717","12825","5036","9111","11601","5219","8744","10688","5357","7767","8908","DualSpot on"
"MA200-0416","59124","121","1","1.10","1.6","2023-08-19T23:55:00","120","2023/08/19","23:55:00","0","0","0.0","12","300","64","92","-1758","-6491","-25766","1","150","150.09","116.63","33.47","34.57","23.8","10.90","89548","36.38","DUALSPOT-UV-BLUE-GREEN-RED-IR","453218","562314","908725","52.265448","22.679878","0.012842","485566","738729","762834","40.217408","16.206047","0.015231","579522","767958","815513","34.661332","13.244297","0.016461","610864","810988","863212","28.582528","10.234701","0.018168","567059","780301","955371","20.698078","6.690836","0.019392","4552","9814","13847","4800","9330","12388","4789","8721","11153","4951","8385","10301","5058","7353","8449","DualSpot on"
"MA200-0416","59125","121","1","1.10","1.6","2023-08-20T00:00:00","120","2023/08/20","00:00:00","0","0","0.0","12","300","64","94","-1716","-6468","-25732","1","150","150.13","116.57","33.56","34.48","23.9","10.94","89552","36.31","DUALSPOT-UV-BLUE-GREEN-RED-IR","447673","557198","905403","53.131904","23.224376","0.012754","483634","738163","765347","40.942636","16.615120","0.015084","574679","763855","813955","35.310288","13.588033","0.016349","606009","806785","861115","29.140954","10.510775","0.018147","563742","777607","953694","21.107006","6.863161","0.019303","4365","9531","13542","4612","9037","12060","4621","8504","10933","4806","8254","10199","4900","7174","8269","DualSpot on"
"MA200-0416","59126","121","1","1.10","1.6","2023-08-20T00:05:00","120","2023/08/20","00:05:00","0","0","0.0","12","300","64","96","-1768","-6492","-25688","1","150","150.49","116.51","33.98","34.38","24.1","10.99","89540","36.13","DUALSPOT-UV-BLUE-GREEN-RED-IR","445544","556223","908521","53.952232","23.746520","0.012578","478553","732566","762546","41.631800","17.008996","0.014860","572316","762890","815602","35.926212","13.918921","0.016111","605349","808051","864781","29.671078","10.775290","0.017774","560219","774455","951385","21.497386","7.029705","0.018950","4135","9024","12868","4385","8592","11498","4389","8083","10420","4565","7809","9659","4680","6846","7898","DualSpot on"
"MA200-0416","59127","121","1","1.10","1.6","2023-08-20T00:10:00","120","2023/08/20","00:10:00","0","0","0.0","12","300","64","96","-1729","-6420","-25870","1","150","150.56","116.39","34.17","34.26","24.3","11.01","89536","36.00","DUALSPOT-UV-BLUE-GREEN-RED-IR","443486","555199","911379","54.729316","24.245616","0.012439","476911","732061","764902","42.282764","17.385348","0.014713","569642","761334","816511","36.509260","14.235105","0.015923","599023","801600","860021","30.174740","11.028955","0.017565","559692","775329","954015","21.870560","7.190515","0.018780","3921","8579","12284","4146","8165","10971","4159","7682","9934","4341","7448","9237","4479","6574","7600","DualSpot on"
"MA200-0416","59128","121","1","1.10","1.6","2023-08-20T00:15:00","120","2023/08/20","00:15:00","0","0","0.0","12","300","64","97","-1752","-6475","-25716","1","150","149.59","116.75","32.84","34.12","24.5","11.00","89524","35.75","DUALSPOT-UV-BLUE-GREEN-RED-IR","437494","549156","905919","55.491112","24.740726","0.012666","471724","726031","761451","42.930144","17.763732","0.015089","566913","759701","817366","37.089180","14.552151","0.016401","598276","802553","863257","30.672680","11.283831","0.018409","556254","772171","951670","22.236022","7.350391","0.020391","3832","8855","12897","4110","8542","11669","4123","8015","10528","4278","7786","9828","4372","6801","8000","DualSpot on"
"MA200-0416","59129","121","1","1.10","1.6","2023-08-20T00:20:00","120","2023/08/20","00:20:00","0","0","0.0","10","300","64","97","-1724","-6447","-25763","1","150","150.05","116.28","33.76","33.99","24.7","11.00","89516","35.56","DUALSPOT-UV-BLUE-GREEN-RED-IR","435433","547979","908361","56.231592","25.223308","0.012323","469703","724826","762973","43.555532","18.129764","0.014580","561589","754467","814247","37.655288","14.863759","0.015848","596573","802196","865062","31.166592","11.535796","0.017513","554899","771909","952840","22.600762","7.508009","0.018689","3740","8395","12181","3986","8036","10924","4041","7662","10023","4261","7487","9382","4381","6521","7585","DualSpot on"
"MA200-0416","59130","121","1","1.10","1.6","2023-08-20T00:25:00","120","2023/08/20","00:25:00","0","0","0.0","10","300","64","98","-1719","-6552","-25628","1","150","149.63","116.23","33.40","33.80","24.8","10.94","89524","35.31","DUALSPOT-UV-BLUE-GREEN-RED-IR","432736","545825","908755","56.900628","25.662144","0.012306","467345","722866","763474","44.129664","18.467652","0.014573","558792","752387","814340","38.172748","15.151555","0.015927","593875","800347","865065","31.619892","11.769120","0.017633","553868","771918","954251","22.937122","7.653671","0.018837","3380","7716","11278","3661","7499","10260","3696","7153","9428","3912","7008","8843","4042","6091","7118","DualSpot on"
"MA200-0416","59131","121","1","1.10","1.6","2023-08-20T00:30:00","120","2023/08/20","00:30:00","0","0","0.0","10","300","64","98","-1680","-6543","-25816","1","150","150.29","116.79","33.51","33.62","25.1","10.94","89520","35.13","DUALSPOT-UV-BLUE-GREEN-RED-IR","429364","542730","907529","57.548164","26.096596","0.012339","464338","719795","762860","44.689132","18.807162","0.014728","555255","749261","813314","38.675856","15.438755","0.016089","590434","797335","863834","32.061450","12.005665","0.018119","552142","770907","954402","23.262776","7.801288","0.020031","3256","7615","11232","3551","7511","10389","3576","7116","9468","3793","7082","9051","3895","6154","7294","DualSpot on"
"MA200-0416","59132","121","1","1.10","1.6","2023-08-20T00:35:00","120","2023/08/20","00:35:00","0","0","0.0","10","300","64","98","-1732","-6496","-25740","1","150","149.80","116.54","33.25","33.46","25.5","11.04","89512","34.88","DUALSPOT-UV-BLUE-GREEN-RED-IR","428125","542362","911015","58.216744","26.547824","0.012283","463094","719486","765171","45.264780","19.155512","0.014586","553492","748553","814909","39.195624","15.734779","0.015936","584988","791658","859773","32.517868","12.248713","0.017884","549025","767995","952225","23.599156","7.951431","0.019482","3369","7969","11826","3661","7765","10776","3702","7390","9863","3929","7332","9389","4032","6307","7463","DualSpot on"
"MA200-0416","59133","121","1","1.10","1.6","2023-08-20T00:40:00","120","2023/08/20","00:40:00","0","0","0.0","10","300","68","98","-1724","-6468","-25619","2","150","150.08","117.34","32.74","33.27","25.9","11.10","89504","34.63","DUALSPOT-UV-BLUE-GREEN-RED-IR","783902","704634","906742","0.000000","0.000000","0.000000","747213","875169","761150","0.000000","0.000000","0.000000","841782","883778","814285","0.000000","0.000000","0.000000","833255","905826","862662","0.000000","0.000000","0.000000","708232","836894","954716","0.000000","0.000000","0.000000","","","","","","","","","","","","","","","","Tape advance-DualSpot on"
"MA200-0416","59134","121","1","1.10","1.6","2023-08-20T00:45:00","120","2023/08/20","00:45:00","0","0","0.0","11","300","68","98","-1743","-6500","-25824","2","150","150.29","117.18","33.11","33.05","26.3","11.14","89496","34.38","DUALSPOT-UV-BLUE-GREEN-RED-IR","767138","699817","906447","0.000000","0.000000","0.000000","741819","877599","766721","0.000000","0.000000","0.000000","832536","881155","814851","0.000000","0.000000","0.000000","826618","904209","863545","0.000000","0.000000","0.000000","701161","831779","950355","0.000000","0.000000","0.000000","","","","","","","","","","","","","","","","Tape advance-DualSpot on"
"MA200-0416","59135","121","1","1.10","1.6","2023-08-20T00:50:00","120","2023/08/20","00:50:00","0","0","0.0","11","300","64","98","-1808","-6488","-25672","2","150","150.09","117.50","32.59","32.84","26.7","11.18","89492","34.13","DUALSPOT-UV-BLUE-GREEN-RED-IR","751913","695438","906767","2.043397","0.660774","0.000000","726399","867616","761446","1.411702","0.452881","0.000000","823598","878545","815422","1.147371","0.365727","0.000000","819909","902279","864162","0.884734","0.281638","0.000000","698499","831795","951851","0.537807","0.157716","0.000000","10214","11908","10214","8906","10300","8906","8106","9316","8106","7554","8669","7554","6393","6759","6393","DualSpot on"
"MA200-0416","59136","121","1","1.10","1.6","2023-08-20T00:55:00","120","2023/08/20","00:55:00","0","0","0.0","11","300","64","98","-1733","-6479","-25716","2","150","150.11","117.39","32.72","32.63","27.0","11.23","89488","33.88","DUALSPOT-UV-BLUE-GREEN-RED-IR","737814","691286","907278","3.995630","1.312944","0.057079","716986","864274","761908","2.775484","0.899714","0.000000","815089","876051","816047","2.262050","0.726681","0.000000","813420","900474","864796","1.751461","0.559675","0.000000","696396","832422","954062","1.070699","0.311621","0.000000","9768","11705","12654","8612","10122","8612","7883","9157","7883","7407","8524","7407","6341","6570","6341","DualSpot on"
"MA200-0416","59137","121","1","1.10","1.6","2023-08-20T01:00:00","120","2023/08/20","01:00:00","0","0","0.0","11","300","64","98","-1827","-6447","-25832","2","150","149.59","117.63","31.96","32.43","27.4","11.26","89484","33.63","DUALSPOT-UV-BLUE-GREEN-RED-IR","724612","687135","907659","5.842005","1.959264","0.051773","707894","860679","762118","4.084196","1.345396","0.067116","807393","874019","817106","3.339481","1.086956","0.076276","807368","898793","865573","2.592549","0.836426","0.000000","693872","832490","955595","1.593277","0.466616","0.000000","9219","11876","13217","8248","10336","11362","7604","9357","10203","7173","8686","7173","6206","6773","6206","DualSpot on"
"MA200-0416","59138","121","1","1.10","1.6","2023-08-20T01:05:00","120","2023/08/20","01:05:00","0","0","0.0","11","300","64","98","-1816","-6452","-25663","2","150","149.54","117.96","31.59","32.25","27.7","11.27","89476","33.44","DUALSPOT-UV-BLUE-GREEN-RED-IR","713490","684253","909604","7.604280","2.593559","0.045119","699744","857759","762870","5.339241","1.783627","0.058702","796440","868072","814425","4.378409","1.442164","0.066732","802058","897783","866953","3.411893","1.111174","0.079799","688085","828527","952523","2.108722","0.619441","0.000000","8775","11795","13358","7887","10285","11488","7312","9336","10330","6968","8726","9576","6104","6758","6104","DualSpot on"
"MA200-0416","59139","121","1","1.10","1.6","2023-08-20T01:10:00","120","2023/08/20","01:10:00","0","0","0.0","11","300","64","98","-1752","-6447","-25596","2","150","149.63","117.50","32.13","32.05","28.0","11.25","89472","33.19","DUALSPOT-UV-BLUE-GREEN-RED-IR","702766","681109","911031","9.279718","3.213537","0.037806","692740","855836","764430","6.549165","2.211570","0.046887","789142","865814","815106","5.384271","1.789229","0.052321","789272","888138","859990","4.212003","1.381338","0.061484","685731","828629","954077","2.615921","0.773209","0.000000","8375","11333","12901","7633","9873","11016","7107","8968","9894","6831","8436","9219","6029","6685","6029","DualSpot on"
"MA200-0416","59140","121","1","1.10","1.6","2023-08-20T01:15:00","120","2023/08/20","01:15:00","0","0","0.0","12","300","64","98","-1768","-6456","-25752","2","150","149.90","117.74","32.16","31.87","28.3","11.26","89472","33.00","DUALSPOT-UV-BLUE-GREEN-RED-IR","685463","671224","903400","10.930540","3.837505","0.034011","685420","853316","765454","7.743825","2.641487","0.042008","781775","863286","815576","6.380258","2.138370","0.046862","783562","886383","860603","5.008565","1.652270","0.053520","682908","828179","955020","3.128620","0.927064","0.039354","8235","11397","13108","7521","9911","11148","7023","9014","10018","6787","8453","9273","6083","6684","6937","DualSpot on"
"MA200-0416","59141","121","1","1.10","1.6","2023-08-20T01:20:00","120","2023/08/20","01:20:00","0","0","0.0","12","300","64","99","-1843","-6508","-25619","2","150","149.80","117.79","32.00","31.69","28.6","11.26","89472","32.81","DUALSPOT-UV-BLUE-GREEN-RED-IR","675548","668114","904874","12.547394","4.462219","0.031542","677832","850196","765948","8.923413","3.074604","0.039111","776001","862379","817607","7.370302","2.490895","0.043320","779996","886928","863495","5.802166","1.926166","0.049641","677708","824795","952617","3.639103","1.081321","0.037818","8062","11464","13342","7423","10032","11403","6978","9144","10250","6759","8585","9493","6053","6733","7020","DualSpot on"
"MA200-0416","59142","121","1","1.10","1.6","2023-08-20T01:25:00","120","2023/08/20","01:25:00","0","0","0.0","12","300","64","99","-1819","-6456","-25644","2","150","149.73","117.81","31.93","31.53","28.9","11.29","89468","32.63","DUALSPOT-UV-BLUE-GREEN-RED-IR","666506","665299","906659","14.094259","5.079023","0.030102","666188","841512","761410","10.059229","3.501117","0.036948","765298","855670","814064","8.325784","2.838474","0.041058","774941","885558","864507","6.572696","2.196813","0.046836","675375","824829","954118","4.142315","1.238009","0.042305","7712","11347","13395","7147","9903","11375","6733","9038","10231","6562","8505","9480","5967","6856","7234","DualSpot on"
"MA200-0416","59143","121","1","1.10","1.6","2023-08-20T01:30:00","120","2023/08/20","01:30:00","0","0","0.0","11","300","64","98","-1776","-6524","-25644","2","150","149.45","117.84","31.61","31.35","29.2","11.28","89456","32.44","DUALSPOT-UV-BLUE-GREEN-RED-IR","658138","662833","908828","15.596878","5.690090","0.028741","659263","838447","761853","11.163596","3.925377","0.035827","759596","854300","815564","9.257860","3.183191","0.039532","764946","878429","859848","7.327865","2.465695","0.045086","670016","821073","951284","4.638950","1.392706","0.040368","7489","11354","13574","6947","9949","11578","6566","9053","10357","6429","8534","9601","5887","6836","7243","DualSpot on"
"MA200-0416","59144","121","1","1.10","1.6","2023-08-20T01:35:00","120","2023/08/20","01:35:00","0","0","0.0","10","300","64","98","-1803","-6411","-25824","2","150","149.46","117.92","31.54","31.20","29.5","11.29","89452","32.25","DUALSPOT-UV-BLUE-GREEN-RED-IR","642975","653354","901452","17.118058","6.321064","0.027227","651798","834637","761645","12.276119","4.355502","0.033262","753569","852527","816721","10.199582","3.534102","0.036816","759821","876848","860660","8.094017","2.740002","0.041814","667828","821286","953010","5.146888","1.550148","0.035957","7577","11748","14191","6994","10108","11821","6630","9235","10617","6518","8724","9853","6017","6972","7383","DualSpot on"
"MA200-0416","59145","121","1","1.10","1.6","2023-08-20T01:40:00","120","2023/08/20","01:40:00","0","0","0.0","10","300","64","98","-1816","-6500","-25716","2","150","149.63","117.86","31.77","31.06","29.7","11.27","89444","32.13","DUALSPOT-UV-BLUE-GREEN-RED-IR","638192","653582","907077","18.486744","6.904598","0.026040","647550","834322","764442","13.299461","4.761701","0.031877","745857","848338","815422","11.067710","3.865289","0.035193","757883","878565","864572","8.804130","2.997947","0.039196","663525","818610","951329","5.620422","1.699911","0.035394","6820","10787","13152","6436","9477","11173","6115","8654","10016","6044","8145","9229","5612","6584","7006","DualSpot on"
"MA200-0416","59146","121","1","1.10","1.6","2023-08-20T01:45:00","120","2023/08/20","01:45:00","0","0","0.0","10","300","64","98","-1780","-6500","-25700","2","150","150.03","117.22","32.80","30.92","29.8","11.23","89440","31.94","DUALSPOT-UV-BLUE-GREEN-RED-IR","632560","652350","910407","19.742610","7.460861","0.024499","639091","827956","761680","14.257877","5.162358","0.030603","737658","843137","813087","11.885328","4.194778","0.034056","749631","872559","860897","9.474039","3.257763","0.039089","662840","820203","954629","6.070625","1.852992","0.038935","6292","9959","12187","6061","9054","10752","5790","8338","9728","5733","7946","9105","5365","6518","7025","DualSpot on"
"MA200-0416","59147","121","1","1.10","1.6","2023-08-20T01:50:00","120","2023/08/20","01:50:00","0","0","0.0","10","300","64","99","-1784","-6504","-25724","2","150","150.23","117.74","32.49","30.78","29.9","11.16","89440","31.81","DUALSPOT-UV-BLUE-GREEN-RED-IR","619900","643688","903229","20.974674","8.005756","0.023538","632716","824352","761318","15.208288","5.553282","0.028668","732552","841422","814042","12.703315","4.515946","0.031194","746157","872177","862705","10.147062","3.511554","0.035408","657058","815516","950591","6.523594","1.999821","0.030865","6146","9851","12139","5984","8920","10609","5767","8207","9553","5734","7837","8950","5374","6313","6729","DualSpot on"
"MA200-0416","59148","121","1","1.10","1.6","2023-08-20T01:55:00","120","2023/08/20","01:55:00","0","0","0.0","11","300","64","99","-1665","-6538","-25753","2","150","150.09","118.02","32.08","30.69","30.0","11.12","89440","31.69","DUALSPOT-UV-BLUE-GREEN-RED-IR","616701","644606","909451","22.176170","8.548431","0.023383","629458","824575","764486","16.140263","5.942392","0.028442","725901","837808","813174","13.506173","4.838073","0.031540","740036","868605","861322","10.811770","3.764021","0.035036","653847","814018","950249","6.974476","2.149105","0.034380","5979","9937","12419","5854","8993","10822","5647","8337","9839","5650","7896","9096","5336","6501","7020","DualSpot on"
"MA200-0416","59149","121","1","1.10","1.6","2023-08-20T02:00:00","120","2023/08/20","02:00:00","0","0","0.0","11","300","64","98","-1824","-6540","-25640","2","150","150.56","117.98","32.58","30.56","30.1","11.07","89440","31.56","DUALSPOT-UV-BLUE-GREEN-RED-IR","607487","639015","906436","23.349338","9.086906","0.022278","621751","818756","762058","17.057570","6.334126","0.027264","723399","838875","816836","14.298854","5.160999","0.029830","738063","869780","864701","11.468986","4.019868","0.033730","653860","816487","954548","7.425178","2.299298","0.031046","5840","9708","12172","5763","8914","10774","5578","8229","9727","5588","7879","9114","5336","6440","6935","DualSpot on"
"MA200-0416","59150","121","1","1.10","1.6","2023-08-20T02:05:00","120","2023/08/20","02:05:00","0","0","0.0","11","300","64","98","-1766","-6508","-25770","2","150","150.43","117.50","32.92","30.46","30.2","11.05","89432","31.44","DUALSPOT-UV-BLUE-GREEN-RED-IR","603819","638981","911261","24.485440","9.623531","0.021665","618588","818718","764992","17.947326","6.720955","0.026111","715570","833539","814241","15.068499","5.480993","0.028668","730026","863623","860750","12.107115","4.270768","0.031706","649132","812887","951781","7.863369","2.449727","0.031347","5679","9573","12095","5613","8710","10564","5438","8069","9573","5448","7645","8843","5209","6382","6913","DualSpot on"
"MA200-0416","59151","121","1","1.10","1.6","2023-08-20T02:10:00","120","2023/08/20","02:10:00","0","0","0.0","11","300","64","99","-1784","-6592","-25696","2","150","150.56","117.86","32.70","30.36","30.4","11.02","89428","31.38","DUALSPOT-UV-BLUE-GREEN-RED-IR","594029","632336","906597","25.605378","10.156166","0.021171","610746","812292","761917","18.823580","7.105720","0.025687","712433","833559","816851","15.827302","5.797154","0.027923","728149","864685","863972","12.738726","4.520863","0.031278","648958","815035","955690","8.298805","2.597547","0.029596","5581","9567","12188","5511","8723","10671","5345","8027","9578","5376","7673","8937","5161","6315","6841","DualSpot on"
"MA200-0416","59152","121","1","1.10","1.6","2023-08-20T02:15:00","120","2023/08/20","02:15:00","0","0","0.0","11","300","64","98","-1803","-6568","-25700","2","150","150.42","117.88","32.54","30.26","30.4","10.97","89424","31.25","DUALSPOT-UV-BLUE-GREEN-RED-IR","585303","626571","903133","26.708508","10.689533","0.020819","607391","811758","764343","19.689444","7.489855","0.025131","705640","829181","815128","16.578979","6.114572","0.027516","721656","860220","861691","13.369637","4.771960","0.030448","645291","812762","954474","8.734230","2.747728","0.030532","5496","9626","12381","5445","8750","10778","5294","8097","9735","5369","7740","9056","5160","6446","7036","DualSpot on"
"MA200-0416","59153","121","1","1.10","1.6","2023-08-20T02:20:00","120","2023/08/20","02:20:00","0","0","0.0","11","300","64","98","-1824","-6488","-25732","2","150","150.28","117.67","32.61","30.18","30.5","10.91","89416","31.19","DUALSPOT-UV-BLUE-GREEN-RED-IR","583247","627810","909627","27.777100","11.209015","0.020099","600782","806609","762355","20.525944","7.864088","0.024304","699765","825696","814251","17.305814","6.425256","0.026756","720391","861864","865404","13.977015","5.016028","0.029498","641669","810399","953120","9.158791","2.894809","0.029216","5334","9355","12075","5270","8506","10516","5128","7908","9550","5178","7507","8811","5040","6299","6881","DualSpot on"
"MA200-0416","59154","121","1","1.10","1.6","2023-08-20T02:25:00","120","2023/08/20","02:25:00","0","0","0.0","11","300","64","98","-1808","-6552","-25640","2","150","150.08","117.59","32.49","30.10","30.5","10.86","89408","31.06","DUALSPOT-UV-BLUE-GREEN-RED-IR","575264","622504","906580","28.818062","11.723225","0.019795","595130","802599","761372","21.345188","8.234524","0.023841","697061","825915","816929","18.020258","6.731105","0.025926","713456","856599","862229","14.577383","5.259085","0.028894","637666","807562","951148","9.578316","3.041099","0.028960","5199","9295","12104","5165","8452","10516","5044","7815","9467","5122","7505","8850","4984","6289","6897","DualSpot on"
"MA200-0416","59155","121","1","1.10","1.6","2023-08-20T02:30:00","120","2023/08/20","02:30:00","0","0","0.0","12","300","64","99","-1843","-6564","-25732","2","150","149.83","116.98","32.84","30.02","30.5","10.80","89404","31.00","DUALSPOT-UV-BLUE-GREEN-RED-IR","571127","621173","909253","29.832848","12.233593","0.019204","590997","800533","762231","22.152412","8.605528","0.023031","690176","820965","814544","18.723436","7.038480","0.025186","710754","856352","864113","15.170237","5.503155","0.027854","636796","808635","953795","9.995182","3.187830","0.027152","5095","9126","11929","5115","8373","10443","4990","7769","9443","5084","7455","8805","4977","6240","6832","DualSpot on"
"MA200-0416","59156","121","1","1.10","1.6","2023-08-20T02:35:00","120","2023/08/20","02:35:00","0","0","0.0","12","300","64","99","-1843","-6604","-25619","2","150","150.42","117.67","32.75","29.95","30.5","10.73","89404","30.94","DUALSPOT-UV-BLUE-GREEN-RED-IR","565690","618181","909481","30.814762","12.737064","0.019127","586470","797703","762378","22.940490","8.977747","0.023268","685983","819100","815231","19.414950","7.348222","0.025495","707470","855230","865130","15.752630","5.749752","0.028616","635043","808553","955123","10.404221","3.334280","0.028489","4901","9028","11936","4965","8424","10649","4879","7851","9661","4965","7553","9041","4856","6246","6901","DualSpot on"
"MA200-0416","59157","121","1","1.10","1.6","2023-08-20T02:40:00","120","2023/08/20","02:40:00","0","0","0.0","12","300","64","99","-1935","-6556","-26208","2","150","149.63","117.30","32.33","29.89","30.6","10.73","89400","30.88","DUALSPOT-UV-BLUE-GREEN-RED-IR","559261","613997","907803","31.773422","13.233345","0.018911","581091","793599","761236","23.712594","9.343994","0.022916","680321","815398","813994","20.093876","7.652599","0.025034","700947","850203","862079","16.325327","5.991156","0.027900","631118","805609","953050","10.809952","3.481918","0.029686","4800","9016","12026","4879","8398","10686","4805","7816","9669","4898","7491","8995","4831","6379","7115","DualSpot on"
"MA200-0416","59158","121","1","1.10","1.6","2023-08-20T02:45:00","120","2023/08/20","02:45:00","0","0","0.0","12","300","64","99","-1796","-6520","-25724","2","150","150.09","117.70","32.39","29.83","30.6","10.67","89392","30.81","DUALSPOT-UV-BLUE-GREEN-RED-IR","552531","609314","905266","32.710576","13.724155","0.018609","578991","793895","764294","24.475762","9.709251","0.022493","678433","816129","817244","20.766390","7.958784","0.024788","701252","853372","867383","16.893950","6.233423","0.027514","628218","803978","952514","11.213036","3.628704","0.028832","4676","8899","11951","4806","8358","10694","4743","7847","9776","4846","7503","9056","4784","6330","7069","DualSpot on"
"MA200-0416","59159","121","1","1.10","1.6","2023-08-20T02:50:00","120","2023/08/20","02:50:00","0","0","0.0","12","300","64","98","-1808","-6579","-25496","2","150","150.21","117.63","32.59","29.78","30.5","10.59","89392","30.75","DUALSPOT-UV-BLUE-GREEN-RED-IR","546553","605247","903549","33.607040","14.200233","0.018257","573851","789831","763115","25.210384","10.065676","0.022042","673301","812773","816272","21.411572","8.253947","0.024032","696397","850083","866115","17.441502","6.469210","0.026857","625288","802179","951776","11.603092","3.771743","0.027936","4476","8580","11584","4629","8108","10420","4553","7519","9380","4670","7259","8785","4632","6131","6854","DualSpot on"
"MA200-0416","59160","121","1","1.10","1.6","2023-08-20T02:55:00","120","2023/08/20","02:55:00","0","0","0.0","12","300","64","99","-1835","-6564","-25728","2","150","149.54","117.27","32.27","29.74","30.5","10.55","89388","30.69","DUALSPOT-UV-BLUE-GREEN-RED-IR","545764","606936","910591","34.524636","14.692944","0.018060","568909","786022","762156","25.953408","10.429622","0.021808","668644","810011","815967","22.067182","8.557080","0.023851","691051","846224","864217","17.994416","6.709657","0.026710","622359","800404","951021","11.996834","3.917846","0.028424","4595","8967","12207","4696","8360","10822","4641","7798","9798","4730","7475","9107","4690","6324","7117","DualSpot on"
"MA200-0416","59161","121","1","1.10","1.6","2023-08-20T03:00:00","120","2023/08/20","03:00:00","0","0","0.0","12","300","64","98","-1769","-6523","-25761","2","150","150.03","117.46","32.57","29.68","30.4","10.44","89384","30.69","DUALSPOT-UV-BLUE-GREEN-RED-IR","539815","602641","908310","35.371124","15.154957","0.017780","567837","787284","766070","26.654326","10.778636","0.021460","663473","806379","814716","22.685016","8.849356","0.023655","685765","842205","862103","18.522292","6.941945","0.026148","619016","797982","949503","12.375320","4.060238","0.028035","4232","8332","11406","4423","7944","10335","4366","7451","9423","4508","7156","8743","4501","6108","6892","DualSpot on"
"MA200-0416","59162","121","1","1.10","1.6","2023-08-20T03:05:00","120","2023/08/20","03:05:00","0","0","0.0","12","300","64","98","-1835","-6620","-25632","2","150","150.36","117.42","32.94","29.63","30.1","10.27","89380","30.63","DUALSPOT-UV-BLUE-GREEN-RED-IR","533200","597390","904291","36.162160","15.588894","0.017334","561952","781694","763217","27.321098","11.114270","0.020956","658207","802469","813052","23.278654","9.130663","0.022831","680060","837526","859242","19.024256","7.165211","0.025464","619119","799884","953086","12.736393","4.198004","0.027445","3956","7738","10603","4209","7554","9848","4197","7090","8958","4288","6800","8318","4295","5843","6604","DualSpot on"
"MA200-0416","59163","121","1","1.10","1.6","2023-08-20T03:10:00","120","2023/08/20","03:10:00","0","0","0.0","11","300","64","99","-1803","-6504","-25716","2","150","150.49","117.67","32.82","29.58","30.0","10.17","89380","30.56","DUALSPOT-UV-BLUE-GREEN-RED-IR","529748","595523","905295","36.925044","16.012627","0.017235","558420","779237","763331","27.967742","11.443526","0.020839","655043","801018","813792","23.855354","9.407702","0.022799","682547","842873","866664","19.517660","7.387726","0.025520","617741","799902","954401","13.091198","4.333738","0.027273","3808","7582","10472","4073","7436","9765","4069","7007","8921","4206","6801","8381","4212","5776","6551","DualSpot on"
"MA200-0416","59164","121","1","1.10","1.6","2023-08-20T03:15:00","120","2023/08/20","03:15:00","0","0","0.0","12","300","64","98","-1792","-6504","-25624","2","150","150.23","117.54","32.68","29.52","29.9","10.08","89364","30.50","DUALSPOT-UV-BLUE-GREEN-RED-IR","529354","597182","911730","37.702392","16.442135","0.016880","554177","775871","762559","28.630900","11.777265","0.020226","653644","801760","816871","24.446510","9.688535","0.022085","677002","838387","864003","20.024448","7.612984","0.024532","614270","797236","952532","13.460503","4.472082","0.025412","3884","7718","10683","4182","7569","9936","4175","7133","9075","4325","6914","8502","4389","5912","6670","DualSpot on"
"MA200-0416","59165","121","1","1.10","1.6","2023-08-20T03:20:00","120","2023/08/20","03:20:00","0","0","0.0","11","300","64","98","-1866","-6570","-25650","2","150","150.36","117.65","32.71","29.49","29.9","10.03","89360","30.44","DUALSPOT-UV-BLUE-GREEN-RED-IR","522683","591588","907032","38.457284","16.869618","0.016870","551834","775030","764261","29.275826","12.109316","0.020232","648213","797463","814747","25.021260","9.967808","0.022147","670771","832908","860262","20.516430","7.836585","0.024695","610498","794032","950004","13.815395","4.610842","0.027421","3768","7676","10729","4063","7525","9967","4055","7088","9096","4195","6858","8503","4213","5925","6783","DualSpot on"
"MA200-0416","59166","121","1","1.10","1.6","2023-08-20T03:25:00","120","2023/08/20","03:25:00","0","0","0.0","12","300","64","99","-1811","-6557","-25676","2","150","150.03","117.90","32.13","29.45","29.9","9.99","89356","30.44","DUALSPOT-UV-BLUE-GREEN-RED-IR","518387","588579","906295","39.203180","17.298202","0.016960","547561","771340","763176","29.910958","12.443942","0.020566","644490","795197","814725","25.591626","10.250648","0.022570","667570","831065","860313","21.007120","8.064216","0.025358","608415","793009","950171","14.171661","4.753547","0.029227","3715","7835","11088","3993","7721","10376","4016","7308","9508","4175","7108","8935","4221","6204","7206","DualSpot on"
"MA200-0416","59167","121","1","1.10","1.6","2023-08-20T03:30:00","120","2023/08/20","03:30:00","0","0","0.0","12","300","64","99","-1819","-6684","-25560","2","150","149.87","117.63","32.24","29.41","29.9","9.97","89368","30.38","DUALSPOT-UV-BLUE-GREEN-RED-IR","515194","586728","907334","39.933900","17.723748","0.016756","545184","770268","764653","30.542282","12.776989","0.020098","641106","793211","814989","26.155474","10.533420","0.022230","669283","835380","866743","21.490142","8.290734","0.024965","606481","792127","950460","14.522270","4.897064","0.029386","3648","7752","11027","3978","7657","10303","3979","7281","9508","4119","7048","8888","4163","6218","7263","DualSpot on"
"MA200-0416","59168","121","1","1.10","1.6","2023-08-20T03:35:00","120","2023/08/20","03:35:00","0","0","0.0","12","300","64","98","-1840","-6543","-25316","2","150","150.08","117.54","32.53","29.37","30.0","10.00","89368","30.38","DUALSPOT-UV-BLUE-GREEN-RED-IR","510636","583300","905706","40.643272","18.131992","0.016260","540944","766509","763362","31.153682","13.098241","0.019513","637155","790504","814416","26.702960","10.804933","0.021377","665501","832756","865919","21.961966","8.508828","0.023789","607548","795195","955445","14.867439","5.034811","0.026942","3544","7370","10452","3856","7320","9834","3866","6929","9010","4027","6725","8432","4102","5915","6843","DualSpot on"
"MA200-0416","59169","121","1","1.10","1.6","2023-08-20T03:40:00","120","2023/08/20","03:40:00","0","0","0.0","12","300","64","99","-1816","-6543","-25819","2","150","150.43","117.70","32.72","29.36","30.1","10.03","89368","30.31","DUALSPOT-UV-BLUE-GREEN-RED-IR","506952","580747","905393","41.336808","18.539402","0.016175","537244","763371","762645","31.747772","13.416118","0.019389","633755","788390","814427","27.239068","11.075203","0.021225","662294","830769","865731","22.422660","8.726008","0.023745","605812","794553","955935","15.203289","5.167875","0.025764","3460","7312","10444","3741","7201","9732","3781","6856","8964","3926","6658","8398","3986","5680","6552","DualSpot on"
"MA200-0416","59170","121","1","1.10","1.6","2023-08-20T03:45:00","120","2023/08/20","03:45:00","0","0","0.0","12","300","64","99","-1788","-6443","-25791","2","150","150.16","117.62","32.54","29.35","30.2","10.06","89372","30.31","DUALSPOT-UV-BLUE-GREEN-RED-IR","503238","578071","904852","42.012676","18.941402","0.016110","534409","761366","763070","32.332688","13.733779","0.019364","629998","785718","813866","27.762372","11.343081","0.021245","658572","828047","864752","22.872372","8.941782","0.023900","603330","792819","955149","15.531643","5.302622","0.027253","3375","7256","10443","3686","7237","9859","3693","6834","9004","3835","6652","8461","3899","5784","6762","DualSpot on"
"MA200-0416","59171","121","1","1.10","1.6","2023-08-20T03:50:00","120","2023/08/20","03:50:00","0","0","0.0","13","300","64","99","-1824","-6628","-25852","2","150","149.96","117.42","32.54","29.33","30.2","10.06","89380","30.31","DUALSPOT-UV-BLUE-GREEN-RED-IR","499469","575346","904250","42.692016","19.343796","0.015818","530618","757999","762117","32.916622","14.048761","0.018921","627046","784043","814271","28.286052","11.608992","0.020694","655147","825702","864149","23.324366","9.154852","0.022970","601243","791631","955020","15.864811","5.438226","0.026241","3398","7263","10465","3686","7176","9774","3702","6784","8929","3861","6569","8318","3963","5821","6790","DualSpot on"
"MA200-0416","59172","121","1","1.10","1.6","2023-08-20T03:55:00","120","2023/08/20","03:55:00","0","0","0.0","13","300","64","99","-1826","-6646","-25750","2","150","150.29","118.06","32.23","29.31","30.3","10.06","89388","30.25","DUALSPOT-UV-BLUE-GREEN-RED-IR","494746","571405","901615","43.355732","19.739792","0.015802","526319","753802","760232","33.487350","14.359761","0.018977","622385","780179","812418","28.798870","11.872112","0.020811","650932","822246","862362","23.764288","9.365664","0.023347","598277","789232","953364","16.188763","5.570026","0.026417","3302","7215","10487","3583","7152","9831","3606","6777","9000","3738","6561","8397","3833","5711","6697","DualSpot on"
"MA200-0416","59173","121","1","1.10","1.6","2023-08-20T04:00:00","120","2023/08/20","04:00:00","0","0","0.0","12","300","64","99","-1835","-6484","-25908","2","150","150.42","117.54","32.88","29.29","30.3","10.04","89388","30.25","DUALSPOT-UV-BLUE-GREEN-RED-IR","496556","574949","910719","43.994164","20.125942","0.015497","524323","752796","761507","34.033516","14.659384","0.018454","619794","778740","812946","29.287314","12.125148","0.020231","648543","821049","862853","24.186186","9.568866","0.022505","596693","788580","953775","16.498081","5.696449","0.025051","3190","6898","10025","3444","6755","9261","3449","6389","8466","3601","6200","7902","3676","5371","6265","DualSpot on"
"MA200-0416","59174","121","1","1.10","1.6","2023-08-20T04:05:00","120","2023/08/20","04:05:00","0","0","0.0","12","300","64","98","-1803","-6592","-25675","2","150","149.96","117.58","32.38","29.24","30.3","10.00","89392","30.19","DUALSPOT-UV-BLUE-GREEN-RED-IR","492960","572172","909746","44.612368","20.503018","0.015514","524056","754197","765121","34.557860","14.951428","0.018610","619667","780351","816677","29.760206","12.372375","0.020361","645879","819348","862793","24.590562","9.766192","0.022834","594611","787173","953271","16.794728","5.821632","0.026733","3088","6839","10030","3305","6686","9263","3339","6338","8473","3450","6113","7868","3524","5400","6396","DualSpot on"
"MA200-0416","59175","121","1","1.10","1.6","2023-08-20T04:10:00","120","2023/08/20","04:10:00","0","0","0.0","12","300","64","99","-1816","-6464","-25780","2","150","149.32","117.73","31.59","29.21","30.3","10.01","89396","30.19","DUALSPOT-UV-BLUE-GREEN-RED-IR","490067","570133","909863","45.212664","20.872250","0.015615","521134","751686","764802","35.070684","15.238531","0.018755","617289","779021","817248","30.217496","12.613739","0.020655","647183","822673","867920","24.985802","9.959409","0.023115","593267","786734","953905","17.085480","5.941246","0.026331","2994","6866","10185","3229","6738","9434","3224","6344","8579","3368","6137","7972","3449","5290","6271","DualSpot on"
"MA200-0416","59176","121","1","1.10","1.6","2023-08-20T04:15:00","120","2023/08/20","04:15:00","0","0","0.0","12","300","64","99","-1819","-6557","-25592","2","150","150.03","117.90","32.13","29.20","30.3","10.00","89396","30.19","DUALSPOT-UV-BLUE-GREEN-RED-IR","486200","566880","907901","45.790456","21.234508","0.015463","518249","749083","764282","35.561804","15.518433","0.018544","613404","775724","815723","30.656314","12.849644","0.020424","643701","819787","866540","25.363722","10.149116","0.023025","590559","784415","952190","17.363700","6.060110","0.026829","2878","6622","9860","3088","6458","9067","3090","6095","8265","3215","5923","7730","3296","5168","6171","DualSpot on"
"MA200-0416","59177","121","1","1.10","1.6","2023-08-20T04:20:00","120","2023/08/20","04:20:00","0","0","0.0","12","300","64","98","-1843","-6500","-25719","2","150","150.21","117.54","32.67","29.18","30.3","9.98","89396","30.13","DUALSPOT-UV-BLUE-GREEN-RED-IR","483167","564503","907376","46.356528","21.591728","0.015186","515405","746515","763784","36.048268","15.797913","0.018173","610577","773686","815462","31.091352","13.084637","0.019929","641597","818648","866952","25.737146","10.336785","0.022325","589246","783878","952657","17.635932","6.177202","0.025930","2828","6422","9555","3068","6341","8895","3072","5971","8078","3187","5763","7492","3235","5006","5961","DualSpot on"
"MA200-0416","59178","121","1","1.10","1.6","2023-08-20T04:25:00","120","2023/08/20","04:25:00","0","0","0.0","12","300","64","98","-1784","-6532","-25684","2","150","149.83","117.26","32.57","29.18","30.4","10.01","89400","30.13","DUALSPOT-UV-BLUE-GREEN-RED-IR","480595","562617","907589","46.916268","21.949378","0.015126","513067","744632","763968","36.524548","16.073896","0.018068","608190","772154","815750","31.520422","13.317387","0.019756","638265","815857","865615","26.104188","10.521279","0.022053","587324","782513","952115","17.906616","6.293167","0.025439","2803","6450","9656","3011","6282","8853","3037","5933","8052","3140","5683","7400","3224","4974","5922","DualSpot on"
"MA200-0416","59179","121","1","1.10","1.6","2023-08-20T04:30:00","120","2023/08/20","04:30:00","0","0","0.0","11","300","64","98","-1835","-6600","-25596","2","150","149.90","117.26","32.63","29.16","30.4","10.00","89400","30.13","DUALSPOT-UV-BLUE-GREEN-RED-IR","477474","560085","906669","47.468660","22.303322","0.014972","509986","741609","762962","36.994760","16.347172","0.017868","605741","770529","815896","31.944068","13.547676","0.019516","635929","814324","865563","26.469512","10.708421","0.022116","585775","781627","952134","18.173264","6.409181","0.025607","2766","6370","9564","2972","6208","8769","2999","5858","7964","3125","5753","7539","3176","4966","5941","DualSpot on"
"MA200-0416","59180","121","1","1.10","1.6","2023-08-20T04:35:00","120","2023/08/20","04:35:00","0","0","0.0","11","300","64","98","-1756","-6511","-25880","2","150","150.09","117.86","32.23","29.15","30.4","9.99","89408","30.13","DUALSPOT-UV-BLUE-GREEN-RED-IR","474732","557986","906452","48.020324","22.654950","0.014907","507370","739246","762637","37.469972","16.623484","0.017862","602991","768518","815707","32.369084","13.781154","0.019685","633916","813231","866054","26.838402","10.894605","0.021883","584390","780960","952435","18.442916","6.525764","0.025666","2749","6407","9674","2989","6354","9038","2993","6013","8252","3140","5794","7608","3196","5052","6068","DualSpot on"
"MA200-0416","59181","121","1","1.10","1.6","2023-08-20T04:40:00","120","2023/08/20","04:40:00","0","0","0.0","11","300","64","99","-1788","-6575","-25775","2","150","149.63","117.34","32.29","29.15","30.4","9.97","89416","30.13","DUALSPOT-UV-BLUE-GREEN-RED-IR","472553","556518","907286","48.570692","23.009952","0.014796","505331","737774","763224","37.944956","16.899920","0.017600","600660","767006","815979","32.793942","14.012780","0.019256","630746","810621","864851","27.202476","11.079330","0.021595","582396","779523","951787","18.713462","6.642399","0.024992","2754","6457","9791","3000","6346","9033","3005","5955","8156","3112","5739","7545","3220","5046","6050","DualSpot on"
"MA200-0416","59182","121","1","1.10","1.6","2023-08-20T04:45:00","120","2023/08/20","04:45:00","0","0","0.0","11","300","64","99","-1819","-6636","-25340","2","150","150.01","117.34","32.67","29.13","30.4","9.95","89420","30.13","DUALSPOT-UV-BLUE-GREEN-RED-IR","469060","553419","905381","49.103796","23.356366","0.014618","502301","734679","762100","38.403356","17.172496","0.017513","597606","764505","815194","33.206116","14.243204","0.019222","627985","808469","864146","27.559652","11.264233","0.021494","580550","778196","951253","18.975044","6.757463","0.024971","2668","6227","9456","2896","6185","8845","2916","5855","8063","3054","5678","7491","3114","4919","5918","DualSpot on"
"MA200-0416","59183","121","1","1.10","1.6","2023-08-20T04:50:00","120","2023/08/20","04:50:00","0","0","0.0","11","300","64","99","-1792","-6575","-25280","2","150","149.80","117.21","32.59","29.12","30.4","9.94","89424","30.06","DUALSPOT-UV-BLUE-GREEN-RED-IR","466414","551279","905030","49.631096","23.706104","0.014632","499871","732481","761888","38.857996","17.444108","0.017392","595233","762842","815273","33.613500","14.472020","0.019093","626194","807482","864690","27.913230","11.448915","0.021436","579220","777524","951552","19.234978","6.874092","0.025398","2642","6303","9651","2875","6178","8869","2885","5829","8055","3026","5685","7534","3097","4999","6057","DualSpot on"
"MA200-0416","59184","121","1","1.10","1.6","2023-08-20T04:55:00","120","2023/08/20","04:55:00","0","0","0.0","11","300","64","98","-1760","-6556","-25756","2","150","149.73","117.50","32.23","29.11","30.3","9.89","89432","30.06","DUALSPOT-UV-BLUE-GREEN-RED-IR","464025","549460","905176","50.156944","24.052754","0.014544","497723","730646","762037","39.311152","17.717656","0.017454","592327","760444","814594","34.024736","14.706238","0.019242","622988","804714","863325","28.265568","11.635167","0.021646","577167","775889","950650","19.497962","6.990253","0.025008","2628","6317","9717","2859","6292","9109","2905","6033","8415","3008","5798","7750","3126","5035","6101","DualSpot on"
"MA200-0416","59185","121","1","1.10","1.6","2023-08-20T05:00:00","120","2023/08/20","05:00:00","0","0","0.0","11","300","64","99","-1776","-6607","-25723","2","150","150.28","117.29","32.99","29.08","30.2","9.86","89432","30.06","DUALSPOT-UV-BLUE-GREEN-RED-IR","460749","546508","903433","50.676268","24.399372","0.014324","497986","732304","765876","39.761296","17.990840","0.017075","589419","758049","813921","34.431776","14.937281","0.018664","620509","802855","862913","28.615956","11.819973","0.020918","578961","779427","956097","19.758336","7.106729","0.024282","2600","6171","9486","2845","6138","8860","2881","5814","8062","2997","5620","7466","3101","4932","5960","DualSpot on"
"MA200-0416","59186","121","1","1.10","1.6","2023-08-20T05:05:00","120","2023/08/20","05:05:00","0","0","0.0","11","300","64","99","-1848","-6652","-25700","2","150","149.76","117.82","31.94","29.06","30.2","9.84","89432","30.00","DUALSPOT-UV-BLUE-GREEN-RED-IR","458406","544645","903472","51.187544","24.739598","0.014415","495548","730030","765530","40.202272","18.257598","0.017234","587180","756484","814079","34.830356","15.163086","0.018910","618521","801604","863152","28.965126","12.003197","0.021232","574118","773980","950484","20.012490","7.221367","0.025454","2548","6255","9723","2774","6190","9032","2808","5868","8228","2973","5754","7722","3013","5013","6142","DualSpot on"
"MA200-0416","59187","121","1","1.10","1.6","2023-08-20T05:10:00","120","2023/08/20","05:10:00","0","0","0.0","12","300","64","99","-1852","-6724","-25688","2","150","149.76","117.54","32.22","29.05","30.2","9.83","89432","30.00","DUALSPOT-UV-BLUE-GREEN-RED-IR","455964","542709","903407","51.716384","25.093190","0.014242","493322","728074","765594","40.662148","18.535888","0.016953","584611","754486","813827","35.244312","15.399779","0.018684","615283","798745","861728","29.323132","12.193147","0.020993","572139","772464","949796","20.280082","7.341785","0.024724","2642","6445","10029","2900","6402","9336","2923","6098","8562","3055","5914","7949","3180","5220","6378","DualSpot on"
"MA200-0416","59188","121","1","1.10","1.6","2023-08-20T05:15:00","120","2023/08/20","05:15:00","0","0","0.0","11","300","64","99","-1803","-6568","-25476","2","150","149.63","117.66","31.97","29.03","30.2","9.81","89436","30.00","DUALSPOT-UV-BLUE-GREEN-RED-IR","452243","539390","901505","52.326700","25.496750","0.014076","490203","724949","764726","41.186704","18.850244","0.016746","581211","751640","812938","35.716240","15.666631","0.018429","612802","797095","861781","29.735440","12.409374","0.020676","573495","775628","955012","20.589668","7.479425","0.024275","3046","7414","11564","3304","7289","10651","3329","6929","9742","3515","6785","9127","3675","6014","7348","DualSpot on"
"MA200-0416","59189","121","1","1.10","1.6","2023-08-20T05:20:00","120","2023/08/20","05:20:00","0","0","0.0","11","300","64","99","-1784","-6584","-25732","2","150","149.73","118.04","31.69","29.02","30.2","9.80","89436","30.00","DUALSPOT-UV-BLUE-GREEN-RED-IR","450463","538220","902849","52.873140","25.864856","0.014132","487660","722518","764361","41.658444","19.141818","0.016965","579566","750854","814133","36.145336","15.913995","0.018596","610748","795771","862089","30.107124","12.608413","0.020967","572621","775614","956176","20.868668","7.605480","0.024825","2718","6823","10754","2962","6821","10102","3017","6481","9205","3159","6302","8567","3301","5557","6851","DualSpot on"
"MA200-0416","59190","121","1","1.10","1.6","2023-08-20T05:25:00","120","2023/08/20","05:25:00","0","0","0.0","11","300","64","99","-1884","-6543","-25064","2","150","150.36","118.06","32.30","29.01","30.2","9.76","89444","30.00","DUALSPOT-UV-BLUE-GREEN-RED-IR","451593","540504","910014","53.411880","26.227626","0.013886","485266","720293","764221","42.129848","19.429564","0.016510","579276","751885","817263","36.573416","16.158953","0.018091","611701","798429","866679","30.479858","12.806712","0.020329","570212","773571","954876","21.149154","7.731767","0.023849","2680","6596","10375","2960","6604","9723","3010","6296","8897","3167","6159","8327","3318","5461","6696","DualSpot on"
"MA200-0416","59191","121","1","1.10","1.6","2023-08-20T05:30:00","120","2023/08/20","05:30:00","0","0","0.0","11","300","64","99","-1776","-6652","-25576","2","150","149.87","118.34","31.53","28.99","30.2","9.74","89448","29.94","DUALSPOT-UV-BLUE-GREEN-RED-IR","448442","537763","908927","53.986620","26.614026","0.013897","482401","717442","763581","42.638220","19.741912","0.016619","573126","745310","812286","37.033636","16.425398","0.018313","609541","797051","867103","30.885932","13.025297","0.020663","568386","772413","954746","21.458290","7.871313","0.024369","2852","7197","11421","3184","7343","10928","3228","7015","10033","3442","6954","9515","3649","6182","7649","DualSpot on"
"MA200-0416","59192","121","1","1.10","1.6","2023-08-20T05:35:00","120","2023/08/20","05:35:00","0","0","0.0","11","300","64","99","-1627","-6615","-25148","2","150","149.63","118.77","30.86","28.97","30.2","9.72","89452","29.94","DUALSPOT-UV-BLUE-GREEN-RED-IR","446090","535834","908973","54.521188","26.979176","0.014001","480130","715312","763524","43.105748","20.031456","0.016728","573684","747440","816595","37.463188","16.673996","0.018383","606170","794070","865582","31.260956","13.227362","0.020811","566452","770937","954194","21.740158","8.000404","0.025157","2643","6950","11169","2918","6956","10461","3002","6688","9645","3167","6569","9065","3315","5844","7316","DualSpot on"
"MA200-0416","59193","121","1","1.10","1.6","2023-08-20T05:40:00","120","2023/08/20","05:40:00","0","0","0.0","11","300","64","99","-1819","-6620","-25788","2","150","149.70","118.81","30.88","28.94","30.1","9.69","89452","29.88","DUALSPOT-UV-BLUE-GREEN-RED-IR","442455","532304","906184","55.030496","27.333462","0.013975","476577","711192","761266","43.546312","20.310840","0.016755","570734","744809","815673","37.864860","16.912092","0.018441","602572","790588","863449","31.611972","13.420031","0.020844","564093","768808","952721","22.005126","8.122474","0.025013","2517","6738","10902","2748","6706","10165","2806","6400","9301","2964","6259","8689","3115","5521","6929","DualSpot on"
"MA200-0416","59194","121","1","1.10","1.6","2023-08-20T05:45:00","120","2023/08/20","05:45:00","0","0","0.0","11","300","64","99","-1835","-6724","-25719","2","150","150.63","119.04","31.59","28.92","30.1","9.65","89464","29.88","DUALSPOT-UV-BLUE-GREEN-RED-IR","440428","530807","907187","55.595924","27.723648","0.013697","474854","709914","762154","44.026228","20.607260","0.016217","568379","743107","815853","38.299052","17.163618","0.017806","601444","790556","865182","31.996090","13.625113","0.019942","563073","768679","953791","22.297618","8.253824","0.023486","2789","7255","11697","2988","6957","10448","3028","6611","9521","3237","6514","8944","3432","5809","7206","DualSpot on"
"MA200-0416","59195","121","1","1.10","1.6","2023-08-20T05:50:00","120","2023/08/20","05:50:00","0","0","0.0","12","300","64","99","-2261","-6961","-25476","2","150","150.42","118.88","31.54","28.90","30.1","9.65","89464","29.88","DUALSPOT-UV-BLUE-GREEN-RED-IR","437454","528250","906828","56.234612","28.170708","0.013630","472360","707608","762147","44.555544","20.933702","0.016027","565201","740466","815200","38.781392","17.440408","0.017501","597883","787432","863721","32.420982","13.849668","0.019551","560617","766716","952707","22.625228","8.398159","0.022639","3155","8324","13512","3300","7671","11544","3368","7284","10485","3585","7141","9793","3849","6391","7892","DualSpot on"
"MA200-0416","59196","121","1","1.10","1.6","2023-08-20T05:55:00","120","2023/08/20","05:55:00","0","0","0.0","12","300","64","99","-2264","-6964","-25703","2","150","149.34","118.59","30.75","28.88","30.1","9.61","89464","29.81","DUALSPOT-UV-BLUE-GREEN-RED-IR","433036","523856","903172","56.854012","28.608540","0.013657","471297","707385","764406","45.074944","21.260246","0.016183","561645","737228","813885","39.250420","17.714664","0.017727","593679","783399","861218","32.838540","14.073533","0.019834","557761","764172","950930","22.948678","8.542170","0.023232","3067","8362","13725","3246","7871","12000","3283","7404","10793","3532","7303","10131","3810","6541","8161","DualSpot on"
"MA200-0416","59197","121","1","1.10","1.6","2023-08-20T06:00:00","120","2023/08/20","06:00:00","0","0","0.0","12","300","64","98","-2270","-7016","-25645","2","150","149.90","118.77","31.12","28.86","30.1","9.61","89468","29.81","DUALSPOT-UV-BLUE-GREEN-RED-IR","431503","522958","905323","57.440208","29.013394","0.013366","469589","706206","765589","45.588224","21.582446","0.015927","559859","736318","815129","39.724172","17.993318","0.017488","592776","783698","863487","33.256028","14.300738","0.019663","557000","764487","952776","23.275772","8.692404","0.023449","2898","7640","12480","3203","7674","11694","3311","7433","10846","3526","7324","10189","3847","6743","8470","DualSpot on"
"MA200-0416","59198","121","1","1.10","1.6","2023-08-20T06:05:00","120","2023/08/20","06:05:00","0","0","0.0","12","300","64","99","-2187","-7079","-25487","2","150","150.03","118.66","31.37","28.84","30.3","9.65","89476","29.81","DUALSPOT-UV-BLUE-GREEN-RED-IR","431978","524438","911485","58.005852","29.407714","0.013248","464670","700019","761295","46.079480","21.895796","0.015822","556945","733819","814521","40.171152","18.261092","0.017397","589443","780726","862066","33.652108","14.518996","0.019493","554723","762614","951776","23.583156","8.835007","0.023187","2800","7382","12094","3069","7404","11329","3127","7086","10385","3349","6979","9734","3618","6349","7985","DualSpot on"
"MA200-0416","59199","121","1","1.10","1.6","2023-08-20T06:10:00","120","2023/08/20","06:10:00","0","0","0.0","12","300","68","99","-2312","-7000","-25588","3","150","149.09","120.13","28.95","28.80","30.5","9.75","89480","29.75","DUALSPOT-UV-BLUE-GREEN-RED-IR","779755","704099","908792","0.000000","0.000000","0.000000","736930","870086","760115","0.000000","0.000000","0.000000","832326","880966","815714","0.000000","0.000000","0.000000","819300","898093","860013","0.000000","0.000000","0.000000","699262","831785","949158","0.000000","0.000000","0.000000","","","","","","","","","","","","","","","","Tape advance-DualSpot on"
"MA200-0416","59200","121","1","1.10","1.6","2023-08-20T06:15:00","120","2023/08/20","06:15:00","0","0","0.0","12","300","68","98","-2268","-7036","-25576","3","150","149.66","119.00","30.66","28.72","30.6","9.74","89476","29.63","DUALSPOT-UV-BLUE-GREEN-RED-IR","765417","700533","908581","0.000000","0.000000","0.000000","731939","872501","764869","0.000000","0.000000","0.000000","823201","878171","815414","0.000000","0.000000","0.000000","817480","901569","865206","0.000000","0.000000","0.000000","700106","836014","955192","0.000000","0.000000","0.000000","","","","","","","","","","","","","","","","Tape advance-DualSpot on"
"MA200-0416","59201","121","1","1.10","1.6","2023-08-20T06:20:00","120","2023/08/20","06:20:00","0","0","0.0","12","300","64","92","-511","-4315","-26138","3","150","149.42","118.81","30.60","28.41","31.0","9.67","89492","28.50","DUALSPOT-UV-BLUE-GREEN-RED-IR","748253","694235","904925","1.863346","0.501066","0.000000","719838","866457","762226","1.322989","0.351965","0.000000","814080","875397","815160","1.082322","0.285017","0.000000","807272","895892","861663","0.843796","0.219846","0.000000","696413","834930","955224","0.526126","0.131384","0.000000","9211","9617","9211","8254","8526","8254","7562","7732","7562","7125","7207","7125","6185","5997","6185","DualSpot on"
"MA200-0416","59202","121","1","1.10","1.6","2023-08-20T06:25:00","120","2023/08/20","06:25:00","0","0","0.0","12","300","64","90","-479","-4108","-26232","3","150","149.94","118.71","31.23","27.93","31.8","9.62","89476","27.63","DUALSPOT-UV-BLUE-GREEN-RED-IR","735268","691492","906235","3.752363","1.040525","0.028233","711968","865132","763854","2.629314","0.717658","0.000000","805691","873145","815510","2.157435","0.584250","0.000000","803183","896818","864587","1.690103","0.457263","0.000000","689460","829879","950730","1.058162","0.267365","0.000000","9346","10146","10454","8157","8681","8157","7519","7955","7519","7152","7627","7152","6260","6083","6260","DualSpot on"
"MA200-0416","59203","121","1","1.10","1.6","2023-08-20T06:30:00","120","2023/08/20","06:30:00","0","0","0.0","12","300","64","89","-612","-4020","-26228","3","150","149.53","119.29","30.23","27.56","32.5","9.61","89476","27.19","DUALSPOT-UV-BLUE-GREEN-RED-IR","720880","687930","907051","5.821602","1.644460","0.029975","702611","862549","764645","4.059064","1.118928","0.031828","798292","872531","817628","3.338977","0.912672","0.035212","796053","894899","864988","2.630718","0.716775","0.000000","688202","832038","954603","1.650054","0.413842","0.000000","10188","11733","12341","8884","9839","10203","8223","9019","9318","7910","8612","7910","6931","6768","6931","DualSpot on"
"MA200-0416","59204","121","1","1.10","1.6","2023-08-20T06:35:00","120","2023/08/20","06:35:00","0","0","0.0","12","300","64","88","-516","-3939","-26112","3","150","149.45","118.66","30.79","27.27","33.1","9.63","89484","26.81","DUALSPOT-UV-BLUE-GREEN-RED-IR","710575","686836","910688","7.655452","2.203340","0.025699","691007","856235","761988","5.375346","1.505882","0.028989","785117","864888","813026","4.438171","1.229882","0.030251","787515","890942","863280","3.509921","0.966054","0.032283","684991","831626","955464","2.203632","0.552508","0.000000","9077","10661","11301","8223","9316","9741","7691","8553","8883","7433","8122","8384","6517","6291","6517","DualSpot on"
"MA200-0416","59205","121","1","1.10","1.6","2023-08-20T06:40:00","120","2023/08/20","06:40:00","0","0","0.0","12","300","64","88","-504","-3936","-26103","3","150","149.49","119.06","30.43","27.06","33.6","9.67","89480","26.56","DUALSPOT-UV-BLUE-GREEN-RED-IR","696337","681942","909520","9.553354","2.792528","0.024375","681816","852897","762045","6.724700","1.903278","0.026078","777012","862835","813724","5.562737","1.552850","0.026357","778966","887012","861693","4.418319","1.222515","0.028639","677827","826533","951025","2.789394","0.700540","0.000000","9362","11374","12204","8401","9682","10188","7841","8812","9188","7654","8456","8763","6872","6796","6872","DualSpot on"
"MA200-0416","59206","121","1","1.10","1.6","2023-08-20T06:45:00","120","2023/08/20","06:45:00","0","0","0.0","12","300","64","86","-550","-3879","-26250","3","150","149.39","119.21","30.17","26.86","34.2","9.75","89492","26.44","DUALSPOT-UV-BLUE-GREEN-RED-IR","684570","678664","910396","11.361776","3.369566","0.023796","673517","850121","762547","8.015054","2.292902","0.026547","770022","861555","815086","6.635728","1.868743","0.027890","772862","885462","862305","5.276661","1.467204","0.028214","675873","827510","953479","3.339721","0.840775","0.002681","8910","11232","12211","8024","9572","10192","7472","8691","9169","7223","8135","8487","6448","6492","6507","DualSpot on"
"MA200-0416","59207","121","1","1.10","1.6","2023-08-20T06:50:00","120","2023/08/20","06:50:00","0","0","0.0","12","300","64","85","-588","-3787","-26224","3","150","150.35","119.04","31.31","26.72","34.6","9.81","89492","26.25","DUALSPOT-UV-BLUE-GREEN-RED-IR","666536","669335","903491","13.271053","3.995081","0.019597","664280","846127","762045","9.327035","2.698707","0.021287","763371","860582","816777","7.711480","2.190232","0.020737","767002","884093","863111","6.131381","1.714510","0.019904","669675","823255","949893","3.886867","0.982895","-0.004336","9420","11734","12731","8170","9608","10194","7502","8525","8930","7203","7924","8204","6420","6341","6314","DualSpot on"
"MA200-0416","59208","121","1","1.10","1.6","2023-08-20T06:55:00","120","2023/08/20","06:55:00","0","0","0.0","12","300","64","85","-568","-3739","-26219","3","150","149.38","119.25","30.13","26.62","35.0","9.91","89500","26.19","DUALSPOT-UV-BLUE-GREEN-RED-IR","658651","669387","908975","15.071129","4.592472","0.020626","654905","841611","761029","10.621686","3.101498","0.023198","754585","857113","816124","8.786350","2.514481","0.024328","759647","880942","862190","6.988787","1.965397","0.025817","669873","826912","955511","4.443374","1.128924","0.011088","8866","11646","12865","8048","9911","10679","7483","8935","9517","7213","8354","8801","6519","6771","6856","DualSpot on"
"MA200-0416","59209","121","1","1.10","1.6","2023-08-20T07:00:00","120","2023/08/20","07:00:00","0","0","0.0","13","300","64","85","-592","-3792","-26092","3","150","149.57","119.33","30.23","26.53","35.4","9.97","0","0.00","DUALSPOT-UV-BLUE-GREEN-RED-IR","644561","662562","904921","16.783782","5.170875","0.019357","648984","841145","763624","11.865280","3.494835","0.021946","745039","852366","814138","9.819002","2.827298","0.021950","755477","881315","864621","7.817698","2.205861","0.021494","664579","823620","953046","4.979236","1.268903","0.008028","8429","11236","12486","7725","9644","10445","7184","8590","9158","6969","7979","8376","6273","6467","6534","DualSpot on"
"MA200-0416","59210","121","1","1.10","1.6","2023-08-20T07:05:00","120","2023/08/20","07:05:00","0","0","0.0","13","300","64","84","-504","-3696","-25980","3","150","150.08","119.38","30.70","26.47","35.5","9.98","0","0.00","DUALSPOT-UV-BLUE-GREEN-RED-IR","638128","662453","909564","18.299542","5.698747","0.018563","640483","836569","762280","13.012238","3.867626","0.020981","741069","853458","817683","10.785162","3.129834","0.021760","747946","877269","862678","8.596347","2.439642","0.022053","660553","821654","952116","5.489696","1.408071","0.013639","7457","10099","11294","7122","9002","9797","6719","8181","8779","6543","7640","8074","5973","6332","6456","DualSpot on"
"MA200-0416","59211","121","1","1.10","1.6","2023-08-20T07:10:00","120","2023/08/20","07:10:00","0","0","0.0","12","300","64","84","-616","-3820","-26340","3","150","149.90","119.01","30.88","26.42","35.7","10.01","0","0.00","DUALSPOT-UV-BLUE-GREEN-RED-IR","626861","657233","907371","19.844590","6.248436","0.017703","635677","836947","765634","14.202084","4.260749","0.019770","732626","849561","816560","11.793448","3.450638","0.020539","740203","873133","860756","9.415614","2.690250","0.021265","655998","819233","950722","6.035988","1.557766","0.011626","7625","10454","11754","7411","9436","10304","7033","8624","9282","6906","8141","8635","6412","6771","6896","DualSpot on"
"MA200-0416","59212","121","1","1.10","1.6","2023-08-20T07:15:00","120","2023/08/20","07:15:00","0","0","0.0","11","300","64","83","-556","-3716","-26156","3","150","150.09","118.97","31.12","26.39","35.8","10.05","0","0.00","DUALSPOT-UV-BLUE-GREEN-RED-IR","615460","651298","903882","21.291806","6.772228","0.016909","626316","830776","762859","15.322111","4.638350","0.019117","723984","844958","814641","12.744847","3.756619","0.019264","736931","873964","863610","10.189335","2.926999","0.018880","654999","821048","954153","6.547992","1.698332","0.009578","7144","9885","11164","6978","8994","9870","6639","8162","8799","6524","7632","8078","6011","6309","6414","DualSpot on"
"MA200-0416","59213","121","1","1.10","1.6","2023-08-20T07:20:00","120","2023/08/20","07:20:00","0","0","0.0","11","300","64","83","-648","-3692","-26503","3","150","149.70","119.49","30.21","26.37","35.9","10.07","89508","25.88","DUALSPOT-UV-BLUE-GREEN-RED-IR","608628","649675","906355","22.679974","7.290390","0.018190","621087","829683","764702","16.406635","5.013007","0.021056","718516","843766","815980","13.668492","4.063332","0.022573","732710","873430","865144","10.940477","3.162950","0.023254","649059","816507","950235","7.048488","1.841319","0.021244","6823","10075","11615","6728","9194","10279","6417","8429","9281","6306","7836","8458","5851","6612","6881","DualSpot on"
"MA200-0416","59214","121","1","1.10","1.6","2023-08-20T07:25:00","120","2023/08/20","07:25:00","0","0","0.0","11","300","64","83","-596","-3716","-26291","3","150","150.29","119.41","30.88","26.36","36.1","10.13","89516","25.88","DUALSPOT-UV-BLUE-GREEN-RED-IR","599945","645793","905601","24.033618","7.807537","0.017231","613700","825446","763691","17.464720","5.387855","0.019953","711807","840905","815703","14.572745","4.368067","0.020729","727570","871686","865458","11.680330","3.399974","0.021570","645553","814948","949757","7.544346","1.985106","0.018730","6658","9835","11364","6568","8998","10082","6287","8192","9008","6216","7700","8309","5800","6504","6755","DualSpot on"
"MA200-0416","59215","121","1","1.10","1.6","2023-08-20T07:30:00","120","2023/08/20","07:30:00","0","0","0.0","11","300","64","82","-580","-3623","-26263","3","150","150.49","119.13","31.36","26.38","36.3","10.23","89520","25.94","DUALSPOT-UV-BLUE-GREEN-RED-IR","591084","641880","905039","25.465740","8.356441","0.015879","607035","822459","763947","18.589932","5.784733","0.017776","705130","838392","815893","15.539045","4.692143","0.018146","722094","869816","865763","12.472958","3.651184","0.017951","646161","818886","955825","8.083214","2.138187","0.012030","7060","10281","11854","7001","9382","10457","6734","8580","9378","6675","8037","8600","6318","6819","6999","DualSpot on"
"MA200-0416","59216","121","1","1.10","1.6","2023-08-20T07:35:00","120","2023/08/20","07:35:00","0","0","0.0","11","300","64","82","-556","-3636","-26328","3","150","149.39","119.53","29.86","26.43","36.6","10.38","89520","25.94","DUALSPOT-UV-BLUE-GREEN-RED-IR","586675","642998","911983","26.967492","8.942131","0.016928","599996","818925","763753","19.734924","6.191832","0.019336","697544","834771","815044","16.516926","5.021590","0.020213","714756","865743","863974","13.277670","3.905803","0.020658","641537","816217","954216","8.632919","2.296154","0.019709","7379","11522","13577","7101","10108","11483","6792","9161","10196","6754","8556","9307","6424","7391","7741","DualSpot on"
"MA200-0416","59217","121","1","1.10","1.6","2023-08-20T07:40:00","120","2023/08/20","07:40:00","0","0","0.0","11","300","64","82","-536","-3596","-26419","3","150","150.17","119.14","31.04","26.52","37.0","10.62","89524","26.00","DUALSPOT-UV-BLUE-GREEN-RED-IR","574780","636467","908739","28.663586","9.608063","0.015097","594468","818095","766469","21.010960","6.646669","0.016661","691709","833832","817142","17.608758","5.390042","0.016956","706222","860660","861274","14.173342","4.188829","0.016378","635682","812435","951492","9.261471","2.474628","0.011804","8361","12602","14740","7940","10863","12216","7608","9855","10847","7542","9148","9822","7370","8032","8274","DualSpot on"
"MA200-0416","59218","121","1","1.10","1.6","2023-08-20T07:45:00","120","2023/08/20","07:45:00","0","0","0.0","10","300","64","81","-612","-3607","-26419","3","150","149.67","119.36","30.31","26.62","37.8","11.05","0","0.00","DUALSPOT-UV-BLUE-GREEN-RED-IR","565756","633065","910267","30.413604","10.310680","0.015381","583683","810082","762598","22.333336","7.124430","0.017148","680602","826606","813198","18.744158","5.775255","0.017439","700898","859719","862913","15.118073","4.487611","0.017111","631621","811098","951793","9.932484","2.664123","0.013368","8611","13614","16181","8213","11684","13310","7897","10550","11732","7940","9889","10711","7853","8733","9055","DualSpot on"
"MA200-0416","59219","121","1","1.10","1.6","2023-08-20T07:50:00","120","2023/08/20","07:50:00","0","0","0.0","10","300","64","81","-540","-3660","-26128","3","150","149.90","118.89","31.00","26.76","38.4","11.41","0","0.00","DUALSPOT-UV-BLUE-GREEN-RED-IR","554526","626626","907335","32.098160","11.010468","0.014782","578007","808696","764974","23.620482","7.602716","0.016312","674668","825349","815074","19.852154","6.160045","0.016363","697470","860848","866603","16.039165","4.784468","0.015691","628813","811313","953862","10.594612","2.854959","0.011893","8322","13258","15835","8025","11436","13056","7737","10304","11459","7772","9606","10386","7779","8599","8901","DualSpot on"
"MA200-0416","59220","121","1","1.10","1.6","2023-08-20T07:55:00","120","2023/08/20","07:55:00","0","0","0.0","9","300","64","80","-656","-3760","-26344","3","150","149.47","118.22","31.25","26.92","38.6","11.64","89544","26.38","DUALSPOT-UV-BLUE-GREEN-RED-IR","543417","619419","902685","33.611712","11.656258","0.014417","568882","801844","761941","24.819668","8.057803","0.015798","668718","823624","816406","20.900556","6.531340","0.015824","688446","854779","862976","16.921670","5.071016","0.014530","625755","811114","955372","11.238663","3.040935","0.010001","7519","12137","14589","7519","10795","12370","7362","9863","11000","7489","9199","9930","7610","8313","8574","DualSpot on"
"MA200-0416","59221","121","1","1.10","1.6","2023-08-20T08:00:00","120","2023/08/20","08:00:00","0","0","0.0","9","300","64","80","-608","-3604","-26224","3","150","149.92","119.02","30.90","27.08","38.7","11.79","89544","26.50","DUALSPOT-UV-BLUE-GREEN-RED-IR","540555","620976","910389","34.989472","12.254971","0.014551","562733","798562","761995","25.914900","8.481586","0.016272","661580","819789","815391","21.854448","6.874961","0.016530","682908","852501","862974","17.727124","5.337184","0.015843","620922","808169","953491","11.821018","3.210464","0.012084","6798","11381","13851","6821","10167","11795","6653","9233","10416","6789","8642","9440","6834","7664","7973","DualSpot on"
"MA200-0416","59222","121","1","1.10","1.6","2023-08-20T08:05:00","120","2023/08/20","08:05:00","0","0","0.0","9","300","64","80","-600","-3648","-26291","3","150","150.43","119.13","31.29","27.24","38.5","11.89","89544","26.69","DUALSPOT-UV-BLUE-GREEN-RED-IR","532911","616518","908763","36.236608","12.799515","0.013962","559729","799337","765816","26.950852","8.882977","0.015389","657107","819052","817349","22.771244","7.207245","0.015687","680658","854111","866817","18.503938","5.593765","0.014568","618708","808557","955604","12.397556","3.379943","0.011351","6148","10221","12445","6446","9509","11014","6389","8815","9939","6541","8226","8956","6760","7565","7867","DualSpot on"
"MA200-0416","59223","121","1","1.10","1.6","2023-08-20T08:10:00","120","2023/08/20","08:10:00","0","0","0.0","9","300","64","79","-624","-3568","-26347","3","150","149.91","118.73","31.18","27.40","38.6","12.07","89540","26.81","DUALSPOT-UV-BLUE-GREEN-RED-IR","522992","609333","903294","37.507504","13.364353","0.013815","551159","792006","761924","27.988246","9.293587","0.015418","648577","813053","814102","23.681784","7.542121","0.015625","672479","848162","863055","19.277368","5.856066","0.015301","612115","803116","950786","12.966450","3.551447","0.013046","6287","10639","13048","6477","9761","11394","6367","8916","10107","6535","8439","9269","6693","7683","8056","DualSpot on"
"MA200-0416","59224","121","1","1.10","1.6","2023-08-20T08:15:00","120","2023/08/20","08:15:00","0","0","0.0","9","300","64","79","-624","-3528","-26284","3","150","149.73","119.25","30.48","27.55","38.7","12.21","89544","26.94","DUALSPOT-UV-BLUE-GREEN-RED-IR","520894","611164","911369","38.801988","13.954414","0.014182","545920","789280","762446","29.013634","9.709293","0.016145","645384","813572","817381","24.577532","7.881398","0.016888","666842","845184","862265","20.028032","6.116356","0.016942","610989","804709","954243","13.512005","3.719423","0.016303","6375","11371","14177","6374","10111","11991","6236","9242","10661","6315","8568","9559","6390","7699","8196","DualSpot on"
"MA200-0416","59225","121","1","1.10","1.6","2023-08-20T08:20:00","120","2023/08/20","08:20:00","0","0","0.0","10","300","64","78","-580","-3532","-26268","3","150","149.57","118.81","30.75","27.71","38.6","12.35","0","0.00","DUALSPOT-UV-BLUE-GREEN-RED-IR","512422","604792","906471","39.906448","14.466183","0.013870","541882","787640","763761","29.922196","10.087920","0.016018","637497","807571","813829","25.373830","8.188308","0.016527","663854","845099","864225","20.701960","6.355063","0.016770","604977","799509","949554","14.008430","3.872324","0.014849","5459","9775","12228","5668","9127","10886","5564","8286","9582","5690","7788","8717","5836","6945","7369","DualSpot on"
"MA200-0416","59226","121","1","1.10","1.6","2023-08-20T08:25:00","120","2023/08/20","08:25:00","0","0","0.0","12","300","64","78","-568","-3600","-26375","3","150","153.40","119.25","34.15","27.87","38.8","12.54","0","0.00","DUALSPOT-UV-BLUE-GREEN-RED-IR","505800","600367","904280","40.968260","14.961617","0.012152","536106","783187","762218","30.800106","10.453267","0.013212","634337","807359","816107","26.150128","8.490066","0.013235","658127","841352","862366","21.357640","6.586936","0.011873","603721","800456","952121","14.489742","4.024026","0.008442","5229","8521","10415","5457","7931","9202","5404","7336","8265","5516","6812","7390","5638","6205","6424","DualSpot on"
"MA200-0416","59227","121","1","1.10","1.6","2023-08-20T08:30:00","120","2023/08/20","08:30:00","0","0","0.0","12","300","64","78","-596","-3515","-26303","3","150","149.33","118.60","30.74","28.02","38.6","12.60","0","0.00","DUALSPOT-UV-BLUE-GREEN-RED-IR","501063","597955","905145","42.000668","15.454395","0.013598","531947","780937","762804","31.649036","10.813577","0.015545","628988","804177","815301","26.897210","8.784627","0.016222","654262","839790","862772","21.992224","6.816985","0.016652","603558","802795","956354","14.956573","4.173971","0.016661","5113","9416","11921","5306","8689","10445","5229","7956","9278","5368","7508","8470","5498","6814","7323","DualSpot on"
"MA200-0416","59228","121","1","1.10","1.6","2023-08-20T08:35:00","120","2023/08/20","08:35:00","0","0","0.0","12","300","64","77","-572","-3568","-26336","3","150","149.83","119.09","30.74","28.19","38.6","12.75","0","0.00","DUALSPOT-UV-BLUE-GREEN-RED-IR","498183","597851","909543","43.062128","15.958424","0.013274","526208","776416","761201","32.524716","11.185051","0.015225","622414","799495","813036","27.667978","9.089380","0.015976","653140","841835","866937","22.645360","7.053063","0.016239","598388","798527","952732","15.438168","4.327469","0.015941","5235","9631","12220","5450","8959","10798","5373","8231","9629","5502","7705","8702","5649","6976","7493","DualSpot on"
"MA200-0416","59229","121","1","1.10","1.6","2023-08-20T08:40:00","120","2023/08/20","08:40:00","0","0","0.0","12","300","64","76","-608","-3648","-25936","3","150","149.96","118.58","31.39","28.37","38.7","12.94","89548","27.75","DUALSPOT-UV-BLUE-GREEN-RED-IR","491756","593123","906675","44.050428","16.437500","0.012942","523781","776459","763964","33.348606","11.540146","0.014693","619457","799184","815059","28.395516","9.380705","0.015273","646543","836624","863496","23.265540","7.280608","0.015465","596536","798525","954130","15.896927","4.476860","0.015268","4895","8965","11388","5150","8387","10099","5093","7706","8994","5247","7273","8196","5404","6649","7136","DualSpot on"
"MA200-0416","59230","121","1","1.10","1.6","2023-08-20T08:45:00","120","2023/08/20","08:45:00","0","0","0.0","12","300","64","76","-483","-3436","-26512","3","150","149.33","119.01","30.31","28.71","38.3","13.11","89552","28.00","DUALSPOT-UV-BLUE-GREEN-RED-IR","488570","592490","910193","45.086212","16.935352","0.013018","520128","774903","765224","34.218948","11.911340","0.014861","614814","796916","815222","29.168990","9.686770","0.015537","644845","837970","866932","23.924872","7.518389","0.015780","593773","797510","954455","16.393463","4.637129","0.016562","5111","9646","12374","5421","9077","11030","5395","8382","9867","5558","7869","8929","5828","7385","8000","DualSpot on"
"MA200-0416","59231","121","1","1.10","1.6","2023-08-20T08:50:00","120","2023/08/20","08:50:00","0","0","0.0","11","300","64","76","-564","-3552","-26344","3","150","150.03","118.77","31.25","29.03","37.9","13.21","0","0.00","DUALSPOT-UV-BLUE-GREEN-RED-IR","481736","586941","905852","46.015664","17.391834","0.012650","514320","769592","762528","34.984516","12.243808","0.014296","610473","794500","814947","29.845150","9.956254","0.014600","637656","831649","862183","24.495814","7.723006","0.014118","590284","795134","952943","16.827618","4.777681","0.014462","4596","8578","10998","4778","7886","9559","4726","7158","8376","4822","6568","7372","5106","6282","6748","DualSpot on"
"MA200-0416","59232","121","1","1.10","1.6","2023-08-20T08:55:00","120","2023/08/20","08:55:00","0","0","0.0","11","300","64","75","-548","-3500","-26203","3","150","149.76","118.38","31.39","29.30","37.4","13.28","0","0.00","DUALSPOT-UV-BLUE-GREEN-RED-IR","479050","586276","908728","46.893164","17.824230","0.012383","511778","768887","764275","35.709184","12.563176","0.014151","606829","792758","815298","30.483168","10.215814","0.014617","635955","832255","864533","25.035456","7.921454","0.014438","587631","793710","952534","17.233268","4.913610","0.015641","4353","8091","10383","4538","7543","9174","4474","6865","8070","4573","6343","7162","4787","6049","6553","DualSpot on"
"MA200-0416","59233","121","1","1.10","1.6","2023-08-20T09:00:00","120","2023/08/20","09:00:00","0","0","0.0","11","300","64","74","-572","-3480","-26300","3","150","150.23","118.97","31.25","29.54","37.2","13.39","89572","28.88","DUALSPOT-UV-BLUE-GREEN-RED-IR","476204","585249","910990","47.735092","18.246566","0.012476","509078","767823","765615","36.418340","12.879396","0.014252","602883","790497","815035","31.109144","10.474363","0.014889","633331","831570","865529","25.566426","8.120768","0.015098","584284","791260","950855","17.632904","5.048321","0.016111","4156","7937","10276","4418","7500","9187","4368","6868","8137","4477","6398","7292","4692","6021","6554","DualSpot on"
"MA200-0416","59234","121","1","1.10","1.6","2023-08-20T09:05:00","120","2023/08/20","09:05:00","0","0","0.0","11","300","64","74","-568","-3476","-26356","3","150","150.01","118.38","31.63","29.76","36.7","13.38","89580","29.06","DUALSPOT-UV-BLUE-GREEN-RED-IR","468021","577489","902586","48.549852","18.658576","0.012189","505796","765739","765928","37.103172","13.189711","0.013992","598712","787770","814298","31.713322","10.727866","0.014597","630143","829996","865560","26.076958","8.314488","0.014629","584812","794003","955452","18.016308","5.179292","0.015598","4042","7651","9903","4288","7273","8919","4237","6654","7889","4326","6144","6995","4524","5784","6292","DualSpot on"
"MA200-0416","59235","121","1","1.10","1.6","2023-08-20T09:10:00","120","2023/08/20","09:10:00","0","0","0.0","11","300","64","73","-560","-3407","-26384","3","150","149.96","118.46","31.51","29.95","36.5","13.47","89572","29.25","DUALSPOT-UV-BLUE-GREEN-RED-IR","467889","579466","909275","49.308844","19.050174","0.012269","502441","763332","765757","37.745304","13.484046","0.014029","597492","788738","817283","32.280770","10.969672","0.014777","626728","827951","865040","26.558190","8.500401","0.015046","580895","790554","952448","18.376136","5.303922","0.016227","3763","7300","9527","4018","6925","8541","3977","6372","7604","4075","5920","6788","4243","5526","6046","DualSpot on"
"MA200-0416","59236","121","1","1.10","1.6","2023-08-20T09:15:00","120","2023/08/20","09:15:00","0","0","0.0","11","300","64","72","-558","-3488","-26375","3","150","149.76","118.22","31.55","30.12","36.1","13.46","89568","29.44","DUALSPOT-UV-BLUE-GREEN-RED-IR","462094","575391","907504","50.358728","19.562564","0.011427","497372","759498","765006","38.658872","13.886254","0.013025","591552","784694","815838","33.101188","11.307452","0.013653","621832","825050","864358","27.262908","8.769387","0.014238","579661","791632","955491","18.911128","5.485737","0.014709","5216","9540","12287","5728","9451","11538","5761","8889","10512","5980","8554","9775","6321","8051","8757","DualSpot on"
"MA200-0416","59237","121","1","1.10","1.6","2023-08-20T09:20:00","120","2023/08/20","09:20:00","0","0","0.0","11","300","64","72","-560","-3592","-26272","3","150","149.63","118.22","31.41","30.25","35.8","13.45","89568","29.56","DUALSPOT-UV-BLUE-GREEN-RED-IR","457022","571103","904346","51.120116","19.964222","0.012086","493049","755433","763204","39.303060","14.192237","0.014047","586763","780772","813843","33.673876","11.560704","0.014932","617835","822154","862999","27.747928","8.964256","0.015519","575982","788465","952886","19.271004","5.615053","0.017231","3782","7510","9898","4039","7220","9018","4021","6693","8089","4116","6223","7229","4252","5750","6366","DualSpot on"
"MA200-0416","59238","121","1","1.10","1.6","2023-08-20T09:25:00","120","2023/08/20","09:25:00","0","0","0.0","11","300","64","71","-548","-3407","-26372","3","150","149.63","118.22","31.41","30.39","35.5","13.44","89564","29.69","DUALSPOT-UV-BLUE-GREEN-RED-IR","455493","571237","908390","51.901228","20.382644","0.012059","488797","751464","761556","39.954988","14.502552","0.013866","584661","780511","815645","34.247900","11.816843","0.014865","617062","823496","866112","28.234764","9.162879","0.015659","574772","788562","954246","19.627750","5.744638","0.017404","3880","7823","10373","4088","7323","9166","4031","6769","8211","4131","6343","7406","4215","5762","6402","DualSpot on"
"MA200-0416","59239","121","1","1.10","1.6","2023-08-20T09:30:00","120","2023/08/20","09:30:00","0","0","0.0","11","300","64","71","-604","-3480","-26412","3","150","149.51","117.98","31.53","30.51","35.0","13.32","0","0.00","DUALSPOT-UV-BLUE-GREEN-RED-IR","449671","565916","903458","52.641992","20.779056","0.011845","487144","751367","763742","40.578080","14.803861","0.013810","582441","779911","817060","34.800124","12.065371","0.014700","612161","819207","863254","28.703090","9.355590","0.015495","570558","784506","950543","19.975936","5.871055","0.016864","3687","7385","9796","3915","7085","8905","3886","6544","7955","3982","6132","7172","4122","5601","6217","DualSpot on"
"MA200-0416","59240","121","1","1.10","1.6","2023-08-20T09:35:00","120","2023/08/20","09:35:00","0","0","0.0","11","300","64","70","-504","-3576","-26284","3","150","150.03","118.70","31.33","30.63","34.9","13.39","0","0.00","DUALSPOT-UV-BLUE-GREEN-RED-IR","448099","565804","906682","53.350992","21.155574","0.011741","485500","751187","765815","41.184280","15.094389","0.013666","577319","775328","814191","35.339976","12.306820","0.014595","611191","820079","865833","29.161904","9.545503","0.015699","569510","784771","952043","20.316456","5.995985","0.017527","3508","7058","9390","3786","6873","8660","3776","6397","7798","3878","6080","7152","4007","5569","6223","DualSpot on"
"MA200-0416","59241","121","1","1.10","1.6","2023-08-20T09:40:00","120","2023/08/20","09:40:00","0","0","0.0","12","300","64","70","-636","-3468","-26380","3","150","150.39","118.03","32.37","30.74","34.7","13.37","89532","30.00","DUALSPOT-UV-BLUE-GREEN-RED-IR","446271","565102","908684","53.980156","21.499828","0.011545","480910","746138","762629","41.727592","15.360100","0.013265","574967","774183","814786","35.825140","12.527898","0.014077","605280","814114","861032","29.579480","9.719699","0.014774","568075","784314","952599","20.627594","6.110515","0.015863","3131","6247","8309","3412","6085","7643","3412","5670","6884","3549","5399","6304","3682","4943","5473","DualSpot on"
"MA200-0416","59242","121","1","1.10","1.6","2023-08-20T09:45:00","120","2023/08/20","09:45:00","0","0","0.0","12","300","64","69","-544","-3544","-26416","3","150","153.40","118.38","35.02","30.86","34.2","13.29","89528","30.19","DUALSPOT-UV-BLUE-GREEN-RED-IR","441583","560643","904444","54.567048","21.824448","0.010843","476934","741877","760205","42.234992","15.610906","0.012205","573619","774311","816622","36.279012","12.736806","0.012716","606089","817092","865543","29.968014","9.881976","0.012697","564547","780878","949440","20.920392","6.219770","0.012953","2912","5443","7131","3177","5308","6558","3183","4952","5909","3292","4648","5315","3455","4357","4739","DualSpot on"
"MA200-0416","59243","121","1","1.10","1.6","2023-08-20T09:50:00","120","2023/08/20","09:50:00","0","0","0.0","12","300","64","68","-644","-3539","-26336","3","150","149.83","118.46","31.37","30.98","33.9","13.24","89532","30.31","DUALSPOT-UV-BLUE-GREEN-RED-IR","441075","561425","908617","55.141832","22.143910","0.011740","476176","742540","762776","42.733484","15.858913","0.013638","569673","770823","814625","36.722856","12.941352","0.014522","601764","813034","862656","30.347672","10.043076","0.015608","564108","781692","951459","21.204770","6.325296","0.017151","2850","5980","8081","3119","5860","7477","3110","5412","6665","3215","5151","6109","3353","4698","5270","DualSpot on"
"MA200-0416","59244","121","1","1.10","1.6","2023-08-20T09:55:00","120","2023/08/20","09:55:00","0","0","0.0","12","300","64","68","-528","-3444","-26324","3","150","150.09","118.26","31.84","31.09","33.7","13.26","89532","30.38","DUALSPOT-UV-BLUE-GREEN-RED-IR","437516","558554","907285","55.800332","22.507420","0.011430","473453","740419","762724","43.290144","16.134686","0.013225","565920","767828","813327","37.220848","13.172147","0.014174","602293","815746","867107","30.771550","10.222982","0.015057","564182","783330","954581","21.522366","6.444881","0.016850","3270","6706","9029","3489","6421","8163","3496","6018","7400","3596","5669","6700","3751","5247","5886","DualSpot on"
"MA200-0416","59245","121","1","1.10","1.6","2023-08-20T10:00:00","120","2023/08/20","10:00:00","0","0","0.0","12","300","64","68","-548","-3387","-26368","3","150","149.57","118.85","30.71","31.22","34.4","13.67","89532","30.50","DUALSPOT-UV-BLUE-GREEN-RED-IR","434853","557065","908684","56.569740","22.929574","0.011559","470899","738830","763514","43.936708","16.451565","0.013407","562923","766087","813620","37.793072","13.433401","0.014377","595915","809366","862063","31.255664","10.426663","0.015525","562446","782683","955084","21.880214","6.578588","0.017797","3802","8073","10985","4032","7649","9813","3997","7062","8753","4086","6653","7939","4205","6081","6888","DualSpot on"
"MA200-0416","59246","121","1","1.10","1.6","2023-08-20T10:05:00","120","2023/08/20","10:05:00","0","0","0.0","12","300","64","67","-548","-3576","-26280","3","150","149.51","118.26","31.25","31.37","34.2","13.70","89536","30.63","DUALSPOT-UV-BLUE-GREEN-RED-IR","429981","552354","904301","57.219344","23.301602","0.011591","467089","734780","761423","44.480500","16.729990","0.013500","561606","766224","815631","38.277072","13.663523","0.014478","591855","805722","859708","31.671402","10.604756","0.015248","558667","778961","951620","22.196132","6.696846","0.016836","3226","6992","9580","3408","6605","8532","3397","6114","7621","3527","5718","6820","3731","5286","5958","DualSpot on"
"MA200-0416","59247","121","1","1.10","1.6","2023-08-20T10:10:00","120","2023/08/20","10:10:00","0","0","0.0","11","300","64","66","-491","-3483","-26450","3","150","149.83","118.18","31.65","31.51","33.7","13.59","89528","30.75","DUALSPOT-UV-BLUE-GREEN-RED-IR","430870","554747","910966","57.742508","23.602024","0.011418","465010","733098","761419","44.930708","16.959730","0.013188","558532","763661","814473","38.679576","13.855429","0.014185","593619","809734","865279","32.015240","10.752616","0.014897","559087","780757","954799","22.454708","6.796291","0.017131","2600","5574","7631","2824","5380","6930","2827","5033","6264","2919","4686","5580","3056","4389","4967","DualSpot on"
"MA200-0416","59248","121","1","1.10","1.6","2023-08-20T10:15:00","120","2023/08/20","10:15:00","0","0","0.0","11","300","64","66","-566","-3669","-26372","3","150","150.62","118.58","32.05","31.64","32.8","13.32","89516","30.88","DUALSPOT-UV-BLUE-GREEN-RED-IR","426940","550863","907298","58.257492","23.900028","0.011316","464577","733992","764067","45.372328","17.187814","0.013104","557425","763703","816042","39.075460","14.045041","0.013988","589781","806028","862593","32.354442","10.901281","0.014955","555420","776858","950974","22.713882","6.895586","0.016502","2550","5461","7486","2760","5276","6809","2771","4912","6113","2870","4654","5560","3053","4328","4884","DualSpot on"
"MA200-0416","59249","121","1","1.10","1.6","2023-08-20T10:20:00","120","2023/08/20","10:20:00","0","0","0.0","11","300","68","66","-512","-3460","-26340","4","150","149.33","119.09","30.23","31.76","32.3","13.17","89508","31.00","DUALSPOT-UV-BLUE-GREEN-RED-IR","777026","699922","905097","0.000000","0.000000","0.000000","744966","874633","764507","0.000000","0.000000","0.000000","833177","877457","812725","0.000000","0.000000","0.000000","822883","898282","860211","0.000000","0.000000","0.000000","700944","831543","952589","0.000000","0.000000","0.000000","","","","","","","","","","","","","","","","Tape advance-DualSpot on"
"MA200-0416","59250","121","1","1.10","1.6","2023-08-20T10:25:00","120","2023/08/20","10:25:00","0","0","0.0","11","300","68","65","-532","-3520","-26291","4","150","150.23","119.41","30.83","31.88","31.9","13.11","0","0.00","DUALSPOT-UV-BLUE-GREEN-RED-IR","767170","697827","905782","0.000000","0.000000","0.000000","733848","867712","760458","0.000000","0.000000","0.000000","826819","875847","812970","0.000000","0.000000","0.000000","817817","896795","860161","0.000000","0.000000","0.000000","697825","830116","951907","0.000000","0.000000","0.000000","","","","","","","","","","","","","","","","Tape advance-DualSpot on"
"MA200-0416","59251","121","1","1.10","1.6","2023-08-20T10:30:00","120","2023/08/20","10:30:00","0","0","0.0","11","300","64","65","-456","-3432","-26300","4","150","147.77","119.25","28.52","32.01","32.2","13.33","0","0.00","DUALSPOT-UV-BLUE-GREEN-RED-IR","759258","698064","909899","1.485588","0.416727","0.000000","728526","867904","762737","1.026283","0.277429","0.000000","821703","875699","814582","0.819981","0.217646","0.000000","815722","898641","863316","0.624875","0.161654","0.000000","696417","830787","953608","0.381799","0.101531","0.000000","7317","8582","7317","6379","7211","6379","5708","6336","5708","5257","5687","5257","4472","4973","4472","DualSpot on"
"MA200-0416","59252","121","1","1.10","1.6","2023-08-20T10:35:00","120","2023/08/20","10:35:00","0","0","0.0","11","300","64","64","-556","-3504","-26347","4","150","149.76","118.62","31.15","32.13","32.3","13.48","0","0.00","DUALSPOT-UV-BLUE-GREEN-RED-IR","746511","693328","907505","2.903339","0.831399","0.000000","720621","864776","762113","2.028931","0.554626","0.000000","818150","877110","817736","1.632320","0.437521","0.000000","808586","894934","861152","1.249732","0.326651","0.000000","692081","827955","951360","0.768062","0.205361","0.000000","7020","7819","7020","6266","6597","6266","5685","5860","5685","5285","5314","5285","4549","4656","4549","DualSpot on"
"MA200-0416","59253","121","1","1.10","1.6","2023-08-20T10:40:00","120","2023/08/20","10:40:00","0","0","0.0","10","300","64","64","-444","-3416","-26400","4","150","149.70","119.41","30.29","32.24","32.8","13.81","0","0.00","DUALSPOT-UV-BLUE-GREEN-RED-IR","733257","691861","911737","5.155302","1.507703","0.040043","711844","863813","764602","3.577779","0.993698","0.039161","805233","871044","814837","2.866790","0.779354","0.000000","803986","896001","864390","2.190524","0.578743","0.000000","689373","828190","953116","1.340942","0.359877","0.000000","11076","13115","13958","9615","10747","11182","8582","9370","8582","7904","8350","7904","6701","7126","6701","DualSpot on"
"MA200-0416","59254","121","1","1.10","1.6","2023-08-20T10:45:00","120","2023/08/20","10:45:00","0","0","0.0","10","300","64","64","-488","-3423","-26256","4","150","149.53","119.13","30.40","32.33","33.2","14.10","0","0.00","DUALSPOT-UV-BLUE-GREEN-RED-IR","713078","683588","907356","7.457945","2.227779","0.032623","698910","857699","762707","5.152154","1.450031","0.030866","796936","870004","816780","4.132463","1.134848","0.029498","792945","890036","860904","3.161586","0.840503","0.022551","687003","828960","955554","1.940612","0.521283","0.000000","11353","13913","15003","9797","11128","11650","8820","9709","10045","8178","8639","8806","7032","7417","7032","DualSpot on"
"MA200-0416","59255","121","1","1.10","1.6","2023-08-20T10:50:00","120","2023/08/20","10:50:00","0","0","0.0","11","300","64","63","-553","-3073","-26419","4","150","149.51","118.70","30.81","32.40","33.2","14.15","0","0.00","DUALSPOT-UV-BLUE-GREEN-RED-IR","679651","674330","910094","12.494812","3.867574","0.021536","671566","848592","764388","9.309303","2.722555","0.021713","766013","857933","814280","7.736423","2.208685","0.022164","771553","884776","863288","6.131572","1.698595","0.022054","670409","820633","951473","3.924160","1.093752","0.034211","24924","31260","34100","25964","30618","32541","25208","28936","30425","25103","27941","29029","23344","25955","26964","DualSpot on"
"MA200-0416","59256","121","1","1.10","1.6","2023-08-20T10:55:00","120","2023/08/20","10:55:00","0","0","0.0","12","300","64","63","-584","-3108","-26340","4","150","150.28","118.75","31.53","32.40","32.6","13.87","89484","31.63","DUALSPOT-UV-BLUE-GREEN-RED-IR","656392","667549","912758","16.275223","5.169143","0.018618","655744","843540","766028","11.944103","3.544824","0.016709","749786","852567","814394","9.929802","2.864217","0.015107","759262","881567","864412","7.905217","2.205139","0.012003","663110","818389","951887","5.090984","1.418749","0.012492","18698","24245","26827","16448","19332","20549","15334","17260","18040","14984","16117","16555","13726","14398","14658","DualSpot on"
"MA200-0416","59257","121","1","1.10","1.6","2023-08-20T11:00:00","120","2023/08/20","11:00:00","0","0","0.0","12","300","64","62","-584","-3036","-26475","4","150","150.05","118.49","31.56","32.41","32.5","13.82","89492","31.69","DUALSPOT-UV-BLUE-GREEN-RED-IR","615210","647871","904166","21.844708","7.227615","0.016795","632599","829279","759623","14.709005","4.409139","0.013516","735284","848175","814951","11.959878","3.448736","0.008555","748860","879292","865687","9.439038","2.610141","-0.001268","657332","817134","952634","6.049591","1.653587","-0.020496","27607","38313","43606","17298","20304","21590","14224","15377","15845","12987","12875","12833","11301","10395","10054","DualSpot on"
"MA200-0416","59258","121","1","1.10","1.6","2023-08-20T11:05:00","120","2023/08/20","11:05:00","0","0","0.0","12","300","64","61","-536","-2996","-26347","4","150","149.92","118.72","31.20","32.44","32.7","13.96","0","0.00","DUALSPOT-UV-BLUE-GREEN-RED-IR","606431","647117","910465","24.022740","8.056213","0.016749","628197","831072","764850","16.112940","4.886961","0.018459","726051","843884","813719","13.086992","3.811121","0.018306","740509","874828","863615","10.326048","2.877867","0.016525","652413","814331","950898","6.621406","1.816124","0.015248","10775","15597","18030","8766","11352","12477","7882","9642","10365","7495","8608","9038","6728","7276","7484","DualSpot on"
"MA200-0416","59259","121","1","1.10","1.6","2023-08-20T11:10:00","120","2023/08/20","11:10:00","0","0","0.0","12","300","64","61","-508","-3176","-26260","4","150","150.09","118.34","31.76","32.49","32.9","14.09","0","0.00","DUALSPOT-UV-BLUE-GREEN-RED-IR","595316","640152","905443","25.326366","8.589474","0.017467","618912","823971","761081","17.115314","5.252331","0.019909","721415","843185","815430","13.935784","4.104436","0.020786","738120","876032","866666","11.007698","3.100675","0.021151","650952","815006","953003","7.067775","1.953634","0.024017","6470","9862","11603","6279","8529","9525","5954","7668","8383","5779","7038","7532","5269","6048","6346","DualSpot on"
