"Serial number","Datum ID","Session ID","Data format version","Firmware version","App version","Date / time local","Timezone offset (mins)","Date local (yyyy/MM/dd)","Time local (hh:mm:ss)","GPS lat (ddmm.mmmmm)","GPS long (dddmm.mmmmm)","GPS speed (km/h)","GPS sat count","Timebase (s)","Status","Battery remaining (%)","Accel X","Accel Y","Accel Z","Tape position","Flow setpoint (mL/min)","Flow total (mL/min)","Flow1 (mL/min)","Flow2 (mL/min)","Sample temp (C)","Sample RH (%)","Sample dewpoint (C)","Internal pressure (Pa)","Internal temp (C)","Optical config","UV Sen1","UV Sen2","UV Ref","UV ATN1","UV ATN2","UV K","Blue Sen1","Blue Sen2","Blue Ref","Blue ATN1","Blue ATN2","Blue K","Green Sen1","Green Sen2","Green Ref","Green ATN1","Green ATN2","Green K","Red Sen1","Red Sen2","Red Ref","Red ATN1","Red ATN2","Red K","IR Sen1","IR Sen2","IR Ref","IR ATN1","IR ATN2","IR K","UV BC1","UV BC2","UV BCc","Blue BC1","Blue BC2","Blue BCc","Green BC1","Green BC2","Green BCc","Red BC1","Red BC2","Red BCc","IR BC1","IR BC2","IR BCc","Readable status"
"MA200-0416","32223","95","1","1.10","1.4","2023-05-31T08:26:31","120","2023/05/31","08:26:31","-15.78719848394394","35.03445966169238","0.0","9","30","66","92","2056","-2544","-25960","13","150","150.01","114.10","35.91","22.60","49.3","11.43","89912","23.25","DUALSPOT-UV-BLUE-GREEN-RED-IR","852363","732173","909426","0.000000","0.000000","0.000000","800243","907909","762078","0.000000","0.000000","0.000000","896590","912876","815534","0.000000","0.000000","0.000000","881932","932216","865418","0.000000","0.000000","0.000000","746295","855675","952408","0.000000","0.000000","0.000000","","","","","","","","","","","","","","","","Start up"
"MA200-0416","32224","95","1","1.10","1.4","2023-05-31T08:27:01","120","2023/05/31","08:27:01","-15.787188649177551","35.03445916250348","0.3","9","30","66","91","2064","-2672","-26260","13","150","149.43","114.04","35.39","22.67","49.2","11.47","89908","23.19","DUALSPOT-UV-BLUE-GREEN-RED-IR","848416","729148","905855","0.000000","0.000000","0.000000","802099","910305","764210","0.000000","0.000000","0.000000","893121","909626","812678","0.000000","0.000000","0.000000","877966","928242","861772","0.000000","0.000000","0.000000","746784","856430","953300","0.000000","0.000000","0.000000","","","","","","","","","","","","","","","","Start up"
"MA200-0416","32225","95","1","1.10","1.4","2023-05-31T08:27:31","120","2023/05/31","08:27:31","-15.787204027175903","35.0344498232007","0.2","9","30","66","91","1924","-2868","-26319","13","150","149.70","114.80","34.90","22.75","49.1","11.50","89908","23.06","DUALSPOT-UV-BLUE-GREEN-RED-IR","851433","732086","909622","0.000000","0.000000","0.000000","799169","907228","761670","0.000000","0.000000","0.000000","895147","911909","814764","0.000000","0.000000","0.000000","882301","933007","866240","0.000000","0.000000","0.000000","744969","854513","951203","0.000000","0.000000","0.000000","","","","","","","","","","","","","","","","Start up"
"MA200-0416","32226","95","1","1.10","1.4","2023-05-31T08:28:01","120","2023/05/31","08:28:01","-15.78721970319748","35.03447199240327","0.4","9","30","66","91","1943","-2900","-26291","13","150","150.49","115.16","35.34","22.81","49.2","11.61","89908","23.06","DUALSPOT-UV-BLUE-GREEN-RED-IR","845201","727002","903398","0.000000","0.000000","0.000000","799515","907861","762258","0.000000","0.000000","0.000000","895756","912682","815466","0.000000","0.000000","0.000000","883350","934300","867445","0.000000","0.000000","0.000000","745482","855208","952036","0.000000","0.000000","0.000000","","","","","","","","","","","","","","","","Start up"
"MA200-0416","32227","95","1","1.10","1.4","2023-05-31T08:28:31","120","2023/05/31","08:28:31","-15.787229835987091","35.034483660012484","0.1","10","30","66","91","2000","-2772","-26188","13","150","149.70","115.55","34.14","22.87","49.6","11.78","89908","23.06","DUALSPOT-UV-BLUE-GREEN-RED-IR","848045","729734","906913","0.000000","0.000000","0.000000","801679","910521","764519","0.000000","0.000000","0.000000","897437","914578","817194","0.000000","0.000000","0.000000","876991","927659","861267","0.000000","0.000000","0.000000","745825","855712","952565","0.000000","0.000000","0.000000","","","","","","","","","","","","","","","","Start up"
"MA200-0416","32228","95","1","1.10","1.4","2023-05-31T08:29:01","120","2023/05/31","08:29:01","-15.787190794944763","35.034463331103325","0.1","10","30","64","90","2008","-2708","-26286","13","150","150.38","116.16","34.22","22.93","49.7","11.86","89908","23.06","DUALSPOT-UV-BLUE-GREEN-RED-IR","845265","727614","904398","0.000000","0.000000","0.000000","799694","908491","762879","0.000000","0.000000","0.000000","895585","912881","815691","0.000000","0.000000","0.000000","875749","926498","860207","0.000000","0.000000","0.000000","744333","854071","950763","0.000000","0.000000","0.000000","","","","","","","","","","","","","","","",""
"MA200-0416","32229","95","1","1.10","1.4","2023-05-31T08:29:31","120","2023/05/31","08:29:31","-15.787188827991486","35.034461326897144","0.0","10","30","64","90","2140","-2764","-26384","13","150","150.10","115.58","34.53","22.99","49.6","11.89","89908","23.06","DUALSPOT-UV-BLUE-GREEN-RED-IR","848870","730996","908749","0.052278","0.013069","0.000000","802266","911593","765550","0.029915","0.007707","0.000000","897727","915213","817821","0.023467","0.005084","0.000000","879453","930542","863982","0.017046","0.002479","0.000000","746513","856711","953732","0.015777","0.003198","0.000000","2656","2223","2656","1918","1654","1918","1685","1222","1685","1479","720","1479","1906","1294","1906",""
"MA200-0416","32230","95","1","1.10","1.4","2023-05-31T08:30:01","120","2023/05/31","08:30:01","-15.78718501329422","35.034447990357876","0.4","12","30","64","90","-2273","-519","-26161","13","150","149.73","115.45","34.28","23.05","49.4","11.88","89904","23.06","DUALSPOT-UV-BLUE-GREEN-RED-IR","850028","732239","910396","0.104814","0.028764","0.000000","798429","907423","762088","0.059676","0.015611","0.000000","892984","910479","813656","0.047261","0.012654","0.000000","879634","930865","864301","0.034403","0.006580","0.000000","746219","856432","953475","0.030399","0.007471","0.000000","2672","2688","2672","1911","1709","1911","1711","1832","1711","1508","1200","1508","1769","1740","1769",""
"MA200-0416","32231","95","1","1.10","1.4","2023-05-31T08:30:31","120","2023/05/31","08:30:31","-15.787189662456512","35.03445432707667","0.3","13","30","64","90","-9368","12536","-19844","13","150","149.80","114.46","35.34","23.14","49.5","11.99","89916","23.31","DUALSPOT-UV-BLUE-GREEN-RED-IR","846080","729154","906685","0.157046","0.041589","0.000000","799203","908547","763082","0.089597","0.020599","0.000000","894791","912547","815510","0.068504","0.012302","0.000000","876866","928082","861704","0.049781","0.005799","0.000000","747837","858421","955705","0.044151","0.010735","0.000000","2680","2131","2680","1937","1046","1937","1540","-82","1540","1347","-221","1347","1678","1290","1678",""
"MA200-0416","32232","95","1","1.10","1.4","2023-05-31T08:31:01","120","2023/05/31","08:31:01","-15.787184536457062","35.03446999564767","0.0","12","30","64","90","-3992","6796","-24992","13","150","150.05","115.30","34.75","23.27","49.4","12.07","89916","23.44","DUALSPOT-UV-BLUE-GREEN-RED-IR","844069","727917","905364","0.220884","0.058605","0.000000","798059","907660","762462","0.129854","0.030912","0.000000","897102","915265","818028","0.100023","0.017965","0.000000","880759","932481","865852","0.071185","0.008237","0.000000","746642","857218","954420","0.061691","0.013775","0.000000","3252","2875","3252","2588","2199","2588","2269","1352","2269","1862","703","1862","2125","1222","2125",""
"MA200-0416","32233","95","1","1.10","1.4","2023-05-31T08:31:31","120","2023/05/31","08:31:31","-15.787178575992584","35.034467827528715","0.0","12","30","64","89","-4252","6784","-24172","13","150","149.80","115.11","34.69","23.38","49.3","12.16","89920","23.56","DUALSPOT-UV-BLUE-GREEN-RED-IR","842666","728215","906488","0.518238","0.141082","0.000000","797529","908435","763522","0.341838","0.087804","0.000000","891290","910446","814076","0.271690","0.063514","0.000000","874283","926547","860616","0.205558","0.041872","0.000000","746061","857099","954550","0.153471","0.039301","0.000000","15173","13964","15173","13652","12157","13652","12381","10901","12381","11712","9727","11712","11138","10279","11138",""
"MA200-0416","32234","95","1","1.10","1.4","2023-05-31T08:32:01","120","2023/05/31","08:32:01","-15.787194073200226","35.03446999564767","0.0","12","30","64","90","-4080","6828","-24716","13","150","149.86","115.18","34.68","23.45","49.3","12.22","89924","23.63","DUALSPOT-UV-BLUE-GREEN-RED-IR","840871","727026","905162","0.601770","0.162496","0.000000","795864","906841","762222","0.395804","0.099552","0.000000","894190","913681","816968","0.312709","0.069410","0.000000","878776","931507","865226","0.236976","0.044488","0.000000","744896","855907","953209","0.180482","0.044717","0.000000","4259","3627","4259","3473","2511","3473","2956","1411","2956","2736","757","2736","3276","2181","3276",""
"MA200-0416","32235","95","1","1.10","1.4","2023-05-31T08:32:31","120","2023/05/31","08:32:31","-15.787189185619354","35.03446099534631","0.0","12","30","64","90","-4140","6720","-24876","13","150","149.96","115.39","34.57","23.51","49.2","12.25","89916","23.63","DUALSPOT-UV-BLUE-GREEN-RED-IR","843488","729582","908476","0.659101","0.177072","0.000000","797445","908838","763985","0.427663","0.106639","0.000000","890426","909988","813720","0.336956","0.073218","0.000000","873658","926194","860343","0.254642","0.045967","0.000000","745158","856313","953685","0.196348","0.047253","0.000000","2918","2476","2918","2046","1519","2046","1744","914","1744","1536","429","1536","1920","1024","1920",""
"MA200-0416","32236","95","1","1.10","1.4","2023-05-31T08:33:01","120","2023/05/31","08:33:01","-15.787184059619904","35.03445666283369","0.0","12","30","64","89","-4046","6815","-25030","13","150","150.01","115.02","34.98","23.56","49.2","12.30","89920","23.63","DUALSPOT-UV-BLUE-GREEN-RED-IR","841036","727760","906340","0.716761","0.193204","0.000000","795472","906817","762348","0.460892","0.113613","0.000000","889302","909031","812908","0.363278","0.078166","0.000000","873592","926321","860418","0.273239","0.047915","0.000000","744603","855799","953156","0.211589","0.048900","0.000000","2944","2708","2944","2141","1477","2141","1899","1174","1899","1622","558","1622","1851","657","1851",""
"MA200-0416","32237","95","1","1.10","1.4","2023-05-31T08:33:31","120","2023/05/31","08:33:31","-15.787183582782745","35.03445649519563","0.0","13","30","64","89","-4028","6796","-24868","13","150","149.53","115.31","34.21","23.60","49.2","12.33","89920","23.63","DUALSPOT-UV-BLUE-GREEN-RED-IR","843674","730366","909706","0.770895","0.205919","0.000000","799515","911673","766473","0.493526","0.120527","0.000000","890628","910580","814318","0.387317","0.082094","0.000000","876374","929411","863345","0.290107","0.049531","0.000000","745951","857457","955012","0.224926","0.050626","0.000000","2757","2182","2757","2097","1498","2097","1730","953","1730","1467","473","1467","1615","704","1615",""
"MA200-0416","32238","95","1","1.10","1.4","2023-05-31T08:34:01","120","2023/05/31","08:34:01","-15.787177205085754","35.034461326897144","0.0","13","30","64","89","-3992","6836","-25040","13","150","150.40","115.81","34.59","23.65","49.2","12.35","89920","23.69","DUALSPOT-UV-BLUE-GREEN-RED-IR","838750","726388","904897","0.826754","0.220720","0.000000","795120","906876","762515","0.526011","0.128746","0.000000","891838","911997","815629","0.411904","0.087416","0.000000","878118","931404","865198","0.308603","0.051742","0.000000","747151","858927","956686","0.238218","0.053586","0.000000","2833","2513","2833","2079","1761","2079","1762","1277","1762","1602","641","1602","1603","1195","1603",""
"MA200-0416","32239","95","1","1.10","1.4","2023-05-31T08:34:31","120","2023/05/31","08:34:31","-15.787176072597504","35.03445532545447","0.0","13","30","64","89","-4004","6652","-24692","13","150","149.73","115.79","33.94","23.68","49.2","12.38","89920","23.69","DUALSPOT-UV-BLUE-GREEN-RED-IR","839500","727345","906195","0.883147","0.236030","0.000000","796157","908299","763776","0.559282","0.137269","0.000000","892136","912478","816118","0.439078","0.094426","0.000000","878689","932179","865944","0.328499","0.054872","0.000000","747069","858919","956730","0.251840","0.056043","0.000000","2860","2649","2860","2130","1861","2130","1948","1714","1948","1723","925","1723","1643","1011","1643",""
"MA200-0416","32240","95","1","1.10","1.4","2023-05-31T08:35:01","120","2023/05/31","08:35:01","-15.787178575992584","35.03445316106081","0.0","13","30","64","89","-4092","6684","-25011","13","150","149.76","115.24","34.53","23.71","49.2","12.42","89924","23.75","DUALSPOT-UV-BLUE-GREEN-RED-IR","840812","728768","908109","0.937177","0.250473","0.000000","796747","909191","764588","0.593042","0.145536","0.000000","892116","912625","816312","0.464028","0.099761","0.000000","873862","927198","861345","0.346577","0.058299","0.000000","740050","850943","947825","0.264265","0.057424","0.000000","2753","2456","2753","2171","1774","2171","1797","1282","1797","1573","995","1573","1506","558","1506",""
"MA200-0416","32241","95","1","1.10","1.4","2023-05-31T08:35:31","120","2023/05/31","08:35:31","-15.78718250989914","35.03445449098945","0.0","13","30","64","89","-4064","6820","-25012","13","150","149.55","115.88","33.66","23.74","49.2","12.45","89916","23.75","DUALSPOT-UV-BLUE-GREEN-RED-IR","841235","729471","909152","1.000588","0.267627","0.000000","797674","910537","765784","0.634300","0.155563","0.000000","892766","913563","817212","0.498271","0.107878","0.000000","874390","927942","862084","0.372707","0.062924","0.000000","743964","855573","953029","0.282386","0.062190","0.000000","3214","2993","3214","2639","2208","2639","2453","2001","2453","2262","1378","2262","2184","1977","2184",""
"MA200-0416","32242","95","1","1.10","1.4","2023-05-31T08:36:01","120","2023/05/31","08:36:01","-15.787181675434113","35.03445066139102","0.0","13","30","64","88","-4055","6775","-24868","13","150","149.86","115.64","34.22","23.77","49.2","12.47","89920","23.81","DUALSPOT-UV-BLUE-GREEN-RED-IR","841192","729741","909623","1.060585","0.284702","0.000000","796560","909532","765022","0.673490","0.166124","0.000000","887795","908648","812866","0.529295","0.115651","0.000000","873692","927379","861614","0.396198","0.068753","0.000000","743723","855393","952870","0.298114","0.065299","0.000000","3047","2930","3047","2512","2287","2512","2227","1885","2227","2038","1709","2038","1900","1269","1900",""
"MA200-0416","32243","95","1","1.10","1.4","2023-05-31T08:36:31","120","2023/05/31","08:36:31","-15.787179350852966","35.03444582596421","0.0","13","30","64","89","-4012","6768","-25048","13","150","149.37","115.71","33.66","23.81","49.1","12.49","89916","23.81","DUALSPOT-UV-BLUE-GREEN-RED-IR","837512","726879","906199","1.117831","0.299411","0.000000","794464","907391","763290","0.711983","0.176687","0.000000","889538","910679","814718","0.557840","0.121235","0.000000","876361","930385","864440","0.418680","0.072699","0.000000","745075","857078","954756","0.313238","0.068671","0.000000","2905","2566","2905","2466","2326","2466","2048","1377","2048","1949","1176","1949","1825","1399","1825",""
"MA200-0416","32244","95","1","1.10","1.4","2023-05-31T08:37:01","120","2023/05/31","08:37:01","-15.787173330783844","35.034439492970705","0.0","13","30","64","88","-4108","6815","-24640","13","150","149.46","115.56","33.90","23.84","49.1","12.51","89916","23.81","DUALSPOT-UV-BLUE-GREEN-RED-IR","835319","725293","904367","1.179666","0.315536","0.000000","793300","906327","762463","0.751137","0.184835","0.000000","888399","909734","813911","0.592190","0.130087","0.000000","875459","929620","863726","0.444489","0.077199","0.000000","744802","856866","954565","0.331432","0.072668","0.000000","3142","2793","3142","2511","1781","2511","2467","2168","2467","2240","1331","2240","2199","1647","2199",""
"MA200-0416","32245","95","1","1.10","1.4","2023-05-31T08:37:31","120","2023/05/31","08:37:31","-15.787166714668274","35.034435492008924","0.0","14","30","64","89","-4048","6768","-24968","13","150","149.86","116.02","33.84","23.86","49.1","12.54","89912","23.88","DUALSPOT-UV-BLUE-GREEN-RED-IR","836684","727457","907548","1.310068","0.351705","0.000000","794603","908617","764635","0.834560","0.208110","0.000000","889575","911537","815757","0.652772","0.145233","0.000000","878356","933145","867174","0.488567","0.088387","0.000000","742173","854061","951550","0.358400","0.078858","0.000000","6601","6277","6601","5330","5098","5330","4335","3715","4335","3811","3316","3811","3247","2555","3247",""
"MA200-0416","32246","95","1","1.10","1.4","2023-05-31T08:38:01","120","2023/05/31","08:38:01","-15.78715866804123","35.034436989575624","0.0","14","30","64","88","-3964","6856","-25012","13","150","150.17","115.83","34.35","23.89","49.1","12.56","89916","23.88","DUALSPOT-UV-BLUE-GREEN-RED-IR","838434","729407","910189","1.447381","0.388338","0.000000","790706","904509","761263","0.921678","0.229812","0.000000","889666","911893","816125","0.720006","0.162065","0.000000","872517","927112","861641","0.536096","0.099658","0.000000","742569","854626","952210","0.385196","0.086294","0.000000","6963","6264","6963","5575","4684","5575","4819","4068","4819","4116","3292","4116","3231","3024","3231",""
"MA200-0416","32247","95","1","1.10","1.4","2023-05-31T08:38:31","120","2023/05/31","08:38:31","-15.787156462669373","35.03443966060877","0.0","14","30","64","88","-3928","6788","-25084","13","150","150.20","115.62","34.58","23.92","49.1","12.58","89912","23.94","DUALSPOT-UV-BLUE-GREEN-RED-IR","837788","729092","909902","1.496563","0.402183","0.000000","795547","910266","766170","0.951707","0.238527","0.000000","889725","912123","816384","0.744850","0.168174","0.000000","873499","928299","862754","0.553226","0.102746","0.000000","742908","855134","952759","0.397163","0.087689","0.000000","2498","2351","2498","1925","1868","1925","1783","1466","1783","1486","895","1486","1445","563","1445",""
"MA200-0416","32248","95","1","1.10","1.4","2023-05-31T08:39:01","120","2023/05/31","08:39:01","-15.787158846855164","35.03444682434201","0.0","14","30","64","88","-3979","6720","-24975","13","150","149.26","115.58","33.69","23.95","49.0","12.58","89912","23.94","DUALSPOT-UV-BLUE-GREEN-RED-IR","837311","729003","909963","1.554164","0.417047","0.000000","789601","903691","760710","0.987827","0.246692","0.000000","889213","911847","816194","0.772250","0.173711","0.000000","872599","927524","862090","0.575530","0.106954","0.000000","742337","854540","952152","0.412769","0.092271","0.000000","2927","2591","2927","2316","1797","2316","1968","1364","1968","1936","1253","1936","1886","1900","1886",""
"MA200-0416","32249","95","1","1.10","1.4","2023-05-31T08:39:31","120","2023/05/31","08:39:31","-15.787159860134125","35.03444365784526","0.0","14","30","64","88","-3928","6836","-25196","13","150","149.33","115.43","33.89","23.97","49.0","12.60","89908","23.94","DUALSPOT-UV-BLUE-GREEN-RED-IR","831605","724359","904277","1.615233","0.434654","0.000000","791004","905548","762345","1.027846","0.256742","0.000000","885935","908641","813390","0.802373","0.180095","0.000000","875505","930770","865119","0.597810","0.111317","0.000000","743859","856398","954289","0.426837","0.095020","0.000000","3107","3051","3107","2570","2198","2570","2166","1563","2166","1936","1291","1936","1702","1132","1702",""
"MA200-0416","32250","95","1","1.10","1.4","2023-05-31T08:40:01","120","2023/05/31","08:40:01","-15.78715580701828","35.034444492310286","0.0","14","30","64","88","-3916","6830","-25072","13","150","150.42","116.09","34.34","23.99","48.9","12.59","89912","24.00","DUALSPOT-UV-BLUE-GREEN-RED-IR","817038","721442","905422","3.510600","0.962612","-0.024864","782120","903271","762879","2.225470","0.578386","0.000000","882088","910826","817277","1.713145","0.417947","0.000000","869563","929066","864969","1.259136","0.277858","0.000000","740900","855433","954067","0.806327","0.186543","0.000000","95900","90312","88201","76481","69443","76481","65137","57510","65137","57155","48661","57155","45667","37235","45667",""
"MA200-0416","32251","95","1","1.10","1.4","2023-05-31T08:40:31","120","2023/05/31","08:40:31","-15.787164449691772","35.03445282950997","0.0","14","30","64","88","-4061","6734","-25015","13","150","149.85","115.70","34.16","24.01","48.9","12.60","89912","24.00","DUALSPOT-UV-BLUE-GREEN-RED-IR","817546","722143","906372","3.547949","0.971094","-0.131270","782486","903863","763447","2.252561","0.584949","0.000000","877743","906486","813422","1.735312","0.422561","0.000000","870243","929904","865793","1.277285","0.281697","0.000000","741048","855730","954368","0.818443","0.188803","0.000000","1896","1458","1293","1735","1424","1735","1590","1121","1590","1573","1127","1573","1462","924","1462",""
"MA200-0416","32252","95","1","1.10","1.4","2023-05-31T08:41:01","120","2023/05/31","08:41:01","-15.7871715426445","35.03445666283369","0.0","14","30","64","88","-4048","6768","-25012","13","150","149.49","115.87","33.62","24.03","48.8","12.59","89912","24.00","DUALSPOT-UV-BLUE-GREEN-RED-IR","817449","722209","906570","3.585738","0.981000","-0.042733","782707","904313","763849","2.279484","0.591362","0.000000","878248","907173","814060","1.755798","0.426286","0.000000","870023","929789","865702","1.293623","0.284039","0.000000","741334","856134","954889","0.829971","0.191464","0.000000","1915","1730","1661","1722","1413","1722","1467","919","1467","1414","699","1414","1389","1105","1389",""
"MA200-0416","32253","95","1","1.10","1.4","2023-05-31T08:41:31","120","2023/05/31","08:41:31","-15.7871675491333","35.0344493240118","0.0","14","30","64","88","-4071","6724","-25000","13","150","150.29","115.87","34.42","24.05","48.8","12.62","89912","24.00","DUALSPOT-UV-BLUE-GREEN-RED-IR","817293","722345","906787","3.630787","0.993452","-0.029180","782482","904255","763887","2.308756","0.597053","0.000000","878205","907271","814192","1.778961","0.431258","0.000000","871033","931012","866853","1.310718","0.286853","0.000000","741374","856228","955025","0.841411","0.194627","0.000000","2283","2124","2064","1872","1225","1872","1659","1199","1659","1480","820","1480","1379","1283","1379",""
"MA200-0416","32254","95","1","1.10","1.4","2023-05-31T08:42:01","120","2023/05/31","08:42:01","-15.787162780761719","35.03443966060877","0.0","14","30","64","88","-4168","6696","-24556","13","150","149.33","114.99","34.35","24.08","48.8","12.64","89908","24.00","DUALSPOT-UV-BLUE-GREEN-RED-IR","815817","721217","905503","3.671912","1.004854","-0.029880","781562","903417","763183","2.334833","0.603796","0.000000","877129","906322","813383","1.800621","0.436265","0.000000","868794","928726","864781","1.326727","0.290012","0.000000","740415","855198","953877","0.853113","0.195757","0.000000","2100","1949","1893","1681","1455","1681","1563","1210","1563","1396","922","1396","1421","459","1421",""
"MA200-0416","32255","95","1","1.10","1.4","2023-05-31T08:42:31","120","2023/05/31","08:42:31","-15.78715693950653","35.03443466126919","0.0","14","30","64","88","-3944","6747","-24992","13","150","149.45","115.80","33.65","24.10","48.8","12.66","89912","24.06","DUALSPOT-UV-BLUE-GREEN-RED-IR","817223","722708","907526","3.716285","1.016738","-0.032528","782390","904579","764243","2.367544","0.612903","0.000000","878143","907539","814515","1.823991","0.441473","0.000000","865278","925120","861443","1.345253","0.293487","0.000000","738024","852504","950923","0.866058","0.198204","0.000000","2250","2074","2007","2094","2006","2094","1675","1285","1675","1604","1035","1604","1561","1015","1561",""
"MA200-0416","32256","95","1","1.10","1.4","2023-05-31T08:43:01","120","2023/05/31","08:43:01","-15.787157773971558","35.034437991678715","0.0","14","30","64","88","-4076","6520","-24972","13","150","149.80","115.87","33.93","24.12","48.8","12.67","89912","24.06","DUALSPOT-UV-BLUE-GREEN-RED-IR","818146","723791","909001","3.765644","1.031349","0.003905","783125","905627","765201","2.399325","0.620664","0.000000","878115","907667","814673","1.849783","0.446975","0.000000","864726","924675","861062","1.364326","0.297826","0.000000","741491","856633","955563","0.880268","0.201634","0.000000","2502","2529","2539","2033","1695","2033","1848","1346","1848","1651","1283","1651","1713","1412","1713",""
"MA200-0416","32257","95","1","1.10","1.4","2023-05-31T08:43:31","120","2023/05/31","08:43:31","-15.787152469158173","35.0344331599772","0.0","14","30","64","88","-4004","6711","-24892","13","150","149.73","115.30","34.44","24.13","48.8","12.67","89908","24.06","DUALSPOT-UV-BLUE-GREEN-RED-IR","818174","724014","909386","3.809195","1.043327","-0.032126","782764","905406","765067","2.429390","0.628232","0.000000","878292","908058","815063","1.874877","0.453466","0.000000","865829","926013","862344","1.383811","0.301849","0.000000","738022","852708","951204","0.892686","0.204055","0.000000","2218","2043","1976","1933","1629","1933","1806","1564","1806","1695","1172","1695","1504","982","1504",""
"MA200-0416","32258","95","1","1.10","1.4","2023-05-31T08:44:01","120","2023/05/31","08:44:01","-15.787143528461456","35.03442765772343","0.0","14","30","64","87","-4087","6756","-25140","13","150","150.11","115.18","34.93","24.15","48.8","12.69","89912","24.13","DUALSPOT-UV-BLUE-GREEN-RED-IR","816231","722576","907705","3.859118","1.058565","0.002292","781683","904394","764286","2.462887","0.637949","0.000000","876652","906539","813768","1.900714","0.459945","0.000000","863587","923712","860249","1.403266","0.306034","0.000000","740359","855498","954363","0.907493","0.208562","0.000000","2545","2562","2568","2155","2062","2155","1862","1540","1862","1694","1201","1694","1795","1802","1795",""
"MA200-0416","32259","95","1","1.10","1.4","2023-05-31T08:44:31","120","2023/05/31","08:44:31","-15.787146151065826","35.03442599251866","0.0","14","30","64","88","-4000","6668","-25052","13","150","149.86","115.71","34.14","24.16","48.8","12.71","89916","24.13","DUALSPOT-UV-BLUE-GREEN-RED-IR","809258","719048","904575","4.372364","1.203731","-0.013883","776877","900967","762035","2.784985","0.723636","0.000000","876168","907681","815335","2.149994","0.524318","0.000000","864353","925824","862578","1.587730","0.352132","0.000000","737282","852656","951418","1.016601","0.233459","0.000000","26052","24971","24561","20635","18604","20635","17885","15652","17885","15993","13545","15993","13172","10185","13172",""
"MA200-0416","32260","95","1","1.10","1.4","2023-05-31T08:45:01","120","2023/05/31","08:45:01","-15.787155270576477","35.034434992820024","0.0","14","30","64","87","-3946","6984","-25007","13","150","149.53","115.46","34.07","24.18","48.8","12.72","89916","24.13","DUALSPOT-UV-BLUE-GREEN-RED-IR","812532","723151","910359","4.553478","1.256353","-0.004716","775395","900193","761704","2.900970","0.755334","0.000000","875104","907343","815269","2.238131","0.547498","0.000000","864237","926268","863185","1.652371","0.366741","0.000000","736972","852635","951497","1.057100","0.244207","0.000000","9213","9073","9019","7446","6898","7446","6337","5649","6337","5616","4302","5616","4899","4407","4899",""
"MA200-0416","32261","95","1","1.10","1.4","2023-05-31T08:45:31","120","2023/05/31","08:45:31","-15.787156462669373","35.034432992339134","0.0","14","30","64","87","-3987","6840","-24908","13","150","149.73","115.60","34.13","24.20","48.8","12.76","89912","24.13","DUALSPOT-UV-BLUE-GREEN-RED-IR","805401","717998","904459","4.834513","1.336706","-0.009462","774791","900489","762240","3.079557","0.804424","-0.033475","875013","908038","816135","2.375877","0.583934","0.000000","863713","926325","863451","1.756703","0.394892","0.000000","736632","852581","951580","1.120987","0.260292","0.000000","14279","13827","13654","11452","10661","10382","9892","8862","9892","9054","8274","9054","7720","6583","7720",""
"MA200-0416","32262","95","1","1.10","1.4","2023-05-31T08:46:01","120","2023/05/31","08:46:01","-15.787154972553253","35.03443482890725","0.0","14","30","64","86","-4039","6788","-25148","13","150","149.96","115.91","34.05","24.21","48.9","12.78","89916","24.13","DUALSPOT-UV-BLUE-GREEN-RED-IR","806760","719535","906561","4.898971","1.354484","-0.018834","775544","901628","763311","3.124624","0.816221","-0.055357","875280","908562","816663","2.414310","0.593627","0.000000","864110","926935","864064","1.784646","0.400269","0.000000","737387","853595","952757","1.141071","0.264962","0.000000","3266","3066","2990","2882","2568","2457","2752","2363","2752","2418","1584","2418","2420","1915","2420",""
"MA200-0416","32263","95","1","1.10","1.4","2023-05-31T08:46:31","120","2023/05/31","08:46:31","-15.78715580701828","35.03443765640259","0.0","14","30","64","87","-4055","6800","-24964","13","150","149.99","115.37","34.61","24.24","48.9","12.81","89916","24.19","DUALSPOT-UV-BLUE-GREEN-RED-IR","803252","718355","906123","5.288843","1.469730","-0.003936","773549","900875","763213","3.368628","0.885189","-0.025294","873800","908254","816826","2.601159","0.644905","0.000000","863706","927473","864887","1.925442","0.438010","0.000000","736518","853115","952433","1.225700","0.286095","0.000000","19848","19556","19443","15678","14771","14447","13445","12299","13445","12243","10939","12243","10247","8529","10247",""
"MA200-0416","32264","95","1","1.10","1.4","2023-05-31T08:47:01","120","2023/05/31","08:47:01","-15.787159860134125","35.03444465622306","0.0","14","30","64","86","-4039","6808","-25140","13","150","149.80","115.33","34.46","24.26","48.9","12.84","89916","24.19","DUALSPOT-UV-BLUE-GREEN-RED-IR","797963","715675","903857","5.698223","1.593662","0.003147","770153","898547","761788","3.622889","0.958313","-0.014833","871033","906682","815855","2.797866","0.699967","0.000000","861755","926380","864193","2.071414","0.476759","0.000000","735556","852569","952042","1.315582","0.309465","0.000000","20848","21122","21229","16343","15730","15509","14159","13265","14159","12698","11280","12698","10886","9473","10886",""
"MA200-0416","32265","95","1","1.10","1.4","2023-05-31T08:47:31","120","2023/05/31","08:47:31","-15.787162125110626","35.0344356559217","0.0","14","30","64","86","-4023","6656","-25096","13","150","149.57","114.96","34.61","24.28","49.0","12.88","89916","24.25","DUALSPOT-UV-BLUE-GREEN-RED-IR","732579","696822","907543","14.605356","4.650469","0.011662","732731","885207","763831","8.840044","2.707590","0.015931","833977","891661","813129","6.790001","2.025246","0.018800","838619","920138","866999","5.097275","1.468151","0.021645","722724","848855","953821","3.250753","0.930257","0.025874","455101","518784","548534","336442","374700","391592","288316","317922","330505","264079","287395","296828","235161","250577","256757",""
"MA200-0416","32266","95","1","1.10","1.4","2023-05-31T08:48:01","120","2023/05/31","08:48:01","-15.787160158157349","35.03442816063762","0.0","14","30","64","86","-4120","6752","-24660","13","150","149.71","114.61","35.10","24.30","49.0","12.91","89916","24.25","DUALSPOT-UV-BLUE-GREEN-RED-IR","731413","696061","906797","14.732576","4.695930","0.013351","731692","884312","763181","8.928979","2.739853","0.023549","833208","891137","812788","6.859458","2.049708","0.025684","831399","912432","859825","5.151085","1.486223","0.023210","722261","848437","953446","3.285139","0.942394","0.053613","6519","7607","8116","5752","6814","7284","5031","5786","6107","4710","5165","5350","4191","4830","5087",""
"MA200-0416","32267","95","1","1.10","1.4","2023-05-31T08:48:31","120","2023/05/31","08:48:31","-15.787154138088226","35.03442515805364","0.0","14","30","64","86","-3987","6815","-24964","13","150","149.35","114.75","34.60","24.33","49.1","12.96","0","0.00","DUALSPOT-UV-BLUE-GREEN-RED-IR","732219","697014","908085","14.772356","4.708170","0.001955","732391","885382","764202","8.968139","2.751686","0.000308","833047","891165","812852","6.893403","2.059138","-0.018368","830957","912115","859548","5.175892","1.492703","-0.044788","721991","848201","953224","3.302452","0.947418","-0.016929","2036","2077","2096","2529","2534","2536","2456","2262","2180","2169","1878","1760","2107","2028","1996",""
"MA200-0416","32268","95","1","1.10","1.4","2023-05-31T08:49:01","120","2023/05/31","08:49:01","-15.787151157855988","35.034415658563375","0.0","14","30","64","86","4028","14020","-21360","13","150","149.53","115.17","34.36","24.36","49.2","13.02","0","0.00","DUALSPOT-UV-BLUE-GREEN-RED-IR","734911","699753","911685","14.802147","4.708015","0.204897","729527","882334","761510","9.003396","2.743370","0.181577","834459","893055","814489","6.922836","2.046728","0.203981","833806","915571","862704","5.200187","1.479935","0.259534","723604","850044","955408","3.308212","0.956501","0.259278","1519","-26","-747","2269","-1794","-3575","2121","-2998","-5148","2116","-3728","-6053","698","3693","4911",""
"MA200-0416","32269","95","1","1.10","1.4","2023-05-31T08:49:31","120","2023/05/31","08:49:31","-15.787149429321289","35.034413658082485","0.0","14","30","64","86","-84","12740","-22744","13","150","149.80","114.92","34.88","24.41","49.2","13.06","89920","24.38","DUALSPOT-UV-BLUE-GREEN-RED-IR","728663","693929","904407","14.848326","4.742376","0.045848","730391","883233","762696","9.043395","2.795398","0.091365","834471","892926","814784","6.956465","2.097994","0.122485","834987","916649","864148","5.222119","1.525264","0.170692","723725","850688","955975","3.348356","0.942902","0.452160","2360","5786","7393","2580","11057","14850","2429","12202","16422","1914","13038","17627","4880","-5446","-9494",""
"MA200-0416","32270","95","1","1.10","1.4","2023-05-31T08:50:01","120","2023/05/31","08:50:01","-15.787253201007843","35.0343308262527","0.6","14","30","64","86","-2064","11628","-23372","13","150","149.87","114.75","35.12","24.45","49.2","13.10","89932","24.44","DUALSPOT-UV-BLUE-GREEN-RED-IR","730020","695443","906440","14.886223","4.747160","-0.421682","730836","884172","763478","9.079313","2.790296","0.209026","835225","894056","815757","6.985510","2.089292","0.221655","835674","917729","865074","5.247882","1.516652","0.288624","720457","846769","951681","3.355789","0.955094","0.255990","1939","800","266","2320","-1077","-2584","2101","-2057","-3832","2252","-2460","-4376","904","4850","6419",""
"MA200-0416","32271","95","1","1.10","1.4","2023-05-31T08:50:31","120","2023/05/31","08:50:31","-15.787194907665253","35.0343944914639","0.5","15","30","64","86","-2356","8344","-24644","13","150","150.11","115.33","34.78","24.50","49.3","13.17","89924","24.44","DUALSPOT-UV-BLUE-GREEN-RED-IR","730620","696223","907579","14.930340","4.759918","-0.004285","731308","885053","764274","9.120028","2.798444","-0.103334","835216","894307","816006","7.019425","2.095920","-0.143433","836577","918941","866254","5.274205","1.520919","-0.351682","720798","847280","952343","3.376123","0.963119","0.089366","2246","2154","2111","2616","1736","1347","2441","1582","1216","2289","1231","802","2462","3223","3527",""
"MA200-0416","32272","95","1","1.10","1.4","2023-05-31T08:51:01","120","2023/05/31","08:51:01","-15.787175059318542","35.03440399095416","0.0","14","30","64","86","-2716","8272","-24524","13","150","149.73","115.11","34.63","24.59","49.6","13.35","89932","24.50","DUALSPOT-UV-BLUE-GREEN-RED-IR","731164","696925","908576","14.965307","4.770746","0.002761","731824","885897","765044","9.155886","2.806211","-0.073959","835447","894762","816479","7.048423","2.099383","-0.863258","837631","920275","867511","5.296908","1.523309","-1.967929","720885","847541","952652","3.393369","0.966416","-0.306352","1784","1836","1861","2309","1662","1377","2091","830","295","1978","692","173","2093","1330","1026",""
"MA200-0416","32273","95","1","1.10","1.4","2023-05-31T08:51:31","120","2023/05/31","08:51:31","-15.787170231342316","35.03440599516034","0.0","14","30","64","86","-2568","8280","-24644","13","150","149.61","114.84","34.77","24.72","50.0","13.58","89928","24.56","DUALSPOT-UV-BLUE-GREEN-RED-IR","727400","693489","904301","15.008615","4.788528","0.022885","732503","886963","766024","9.190797","2.813108","-0.109161","836274","895903","817521","7.077045","2.102840","-0.834024","832903","915287","862839","5.319331","1.524907","2.798952","721344","848131","953407","3.410349","0.972285","0.048517","2215","3004","3373","2253","1470","1124","2069","825","299","1958","460","-141","2065","2358","2474",""
"MA200-0416","32274","95","1","1.10","1.4","2023-05-31T08:52:01","120","2023/05/31","08:52:01","-15.787172853946686","35.034406661987305","0.0","14","30","64","86","-2622","8377","-24669","13","150","149.72","115.34","34.37","24.86","50.3","13.81","89932","24.69","DUALSPOT-UV-BLUE-GREEN-RED-IR","728441","694685","905986","15.052444","4.805799","0.021350","728863","882796","762507","9.224960","2.818483","-0.229887","831267","890773","812812","7.102586","2.099794","0.283308","832322","914800","862341","5.339400","1.523119","0.416399","719760","846429","951549","3.435436","0.980941","0.052696","2231","2951","3288","2195","1159","703","1838","-735","-1816","1745","-521","-1426","3038","3518","3710",""
"MA200-0416","32275","95","1","1.10","1.4","2023-05-31T08:52:31","120","2023/05/31","08:52:31","-15.787178337574005","35.03441099449992","0.0","15","30","64","86","-2720","8304","-24612","13","150","149.39","114.52","34.87","25.03","50.7","14.08","89932","24.75","DUALSPOT-UV-BLUE-GREEN-RED-IR","731142","697487","909840","15.101160","4.823662","0.015289","731160","885909","765164","9.258025","2.818794","0.382520","833583","893518","815282","7.127559","2.094561","0.241181","831692","914383","861894","5.358310","1.514297","0.260402","721729","848950","954493","3.468031","0.990376","-0.021366","2498","3009","3248","2140","65","-842","1810","-1246","-2518","1656","-2538","-4190","3976","3780","3701",""
"MA200-0416","32276","95","1","1.10","1.4","2023-05-31T08:53:01","120","2023/05/31","08:53:01","-15.787171363830566","35.03440249338746","0.0","15","30","64","86","-2664","8384","-24684","13","150","150.01","115.42","34.59","25.22","51.0","14.35","89932","24.88","DUALSPOT-UV-BLUE-GREEN-RED-IR","729137","695812","907803","15.151928","4.843099","0.019128","729369","884037","763566","9.291374","2.819307","0.405014","834855","895216","816770","7.152624","2.087528","0.220413","833948","917170","864422","5.376559","1.506084","0.261124","721934","849487","955204","3.507181","1.000375","-0.074267","2583","3300","3637","2141","109","-775","1802","-1688","-3127","1586","-2382","-3926","4738","4038","3759",""
"MA200-0416","32277","95","1","1.10","1.4","2023-05-31T08:53:31","120","2023/05/31","08:53:31","-15.78717166185379","35.03440299257636","0.0","15","30","72","86","-2742","8284","-24600","13","150","149.33","114.84","34.49","25.44","51.2","14.63","89936","25.00","DUALSPOT-UV-BLUE-GREEN-RED-IR","839391","801362","1045739","15.216328","4.864641","0.009417","727900","882576","762270","9.330303","2.818067","0.290493","960656","1030434","940051","7.181186","2.079743","0.221886","959607","1055681","994867","5.397479","1.494658","0.249202","830563","977583","1099333","3.552187","1.012318","-0.054750","3293","3668","3844","2513","-266","-1469","2064","-1874","-3479","1827","-3323","-5296","5474","4837","4583",""
"MA200-0416","32278","95","1","1.10","1.4","2023-05-31T08:54:01","120","2023/05/31","08:54:01","-15.787172377109528","35.03440582752228","0.0","15","30","64","86","-2660","8308","-24940","13","150","149.39","115.00","34.39","25.66","51.4","14.89","89936","25.13","DUALSPOT-UV-BLUE-GREEN-RED-IR","726006","693408","905042","15.278908","4.883190","-0.000862","730733","886354","765529","9.367661","2.815807","0.255238","830173","890819","812645","7.208521","2.069878","0.204919","831270","914796","861976","5.415882","1.479762","0.229676","721043","849014","954887","3.600984","1.023420","-0.139405","3196","3168","3154","2408","-487","-1731","1973","-2381","-4135","1605","-4345","-6582","5927","4509","3946",""
"MA200-0416","32279","95","1","1.10","1.4","2023-05-31T08:54:31","120","2023/05/31","08:54:31","-15.787169873714447","35.0344038233161","0.0","16","30","64","86","-2708","8264","-24696","13","150","149.39","114.96","34.43","25.91","51.4","15.10","89932","25.31","DUALSPOT-UV-BLUE-GREEN-RED-IR","724795","692573","904099","15.342022","4.902746","0.003152","730078","885895","765121","9.402159","2.815223","0.315715","832631","893793","815267","7.235456","2.061057","0.209915","830021","913713","860834","5.434043","1.464796","0.228515","719110","847049","952794","3.651729","1.035740","-0.098374","3224","3336","3388","2224","-125","-1130","1945","-2127","-3749","1584","-4361","-6555","6166","4999","4536",""
"MA200-0416","32280","95","1","1.10","1.4","2023-05-31T08:55:01","120","2023/05/31","08:55:01","-15.7871715426445","35.034415159374475","0.0","16","30","64","85","-2736","8420","-24664","13","150","149.99","114.95","35.03","26.15","51.2","15.27","89932","25.50","DUALSPOT-UV-BLUE-GREEN-RED-IR","728775","696716","909699","15.406067","4.921142","-0.005984","728496","884350","763816","9.440455","2.813627","0.276897","829814","891094","812742","7.262916","2.053034","0.217251","832765","917030","863853","5.453540","1.452243","0.239922","719595","847995","953932","3.701990","1.045758","-0.251559","3272","3084","2996","2469","-338","-1530","1983","-1901","-3431","1701","-3594","-5517","6107","3994","3162",""
"MA200-0416","32281","95","1","1.10","1.4","2023-05-31T08:55:31","120","2023/05/31","08:55:31","-15.787174642086029","35.03441949188709","0.0","16","30","64","86","-2700","8348","-24572","13","150","149.70","115.08","34.62","26.38","51.0","15.43","89928","25.69","DUALSPOT-UV-BLUE-GREEN-RED-IR","723742","692713","904804","15.559769","4.961529","-0.014679","728814","885606","765060","9.557661","2.834446","-0.145830","833085","895435","816750","7.358814","2.061343","-12.325585","833549","918623","865344","5.528626","1.451873","0.658983","718577","847387","953436","3.791168","1.064991","-0.171338","7845","6851","6386","7550","4457","3154","6918","1992","75","6546","-107","-2476","10825","7760","6562",""
"MA200-0416","32282","95","1","1.10","1.4","2023-05-31T08:56:01","120","2023/05/31","08:56:01","-15.787179350852966","35.03441333025694","0.0","16","30","64","86","-2780","8256","-24564","13","150","150.43","115.20","35.23","26.63","50.8","15.59","89932","25.88","DUALSPOT-UV-BLUE-GREEN-RED-IR","723449","692828","905176","15.644220","4.983808","-0.016139","728514","885699","765145","9.616559","2.839250","2.669846","831119","893714","815194","7.406927","2.060115","0.404567","833503","918915","865537","5.562736","1.443451","0.304546","717112","846057","952040","3.848987","1.076376","-0.253993","4306","3714","3438","3790","1010","-153","3467","-289","-1736","2970","-2398","-4280","7011","4514","3545",""
"MA200-0416","32283","95","1","1.10","1.4","2023-05-31T08:56:31","120","2023/05/31","08:56:31","-15.787173211574554","35.034408662468195","0.0","16","30","64","85","-2700","8340","-24512","13","150","149.32","114.93","34.39","26.87","50.6","15.76","89928","26.06","DUALSPOT-UV-BLUE-GREEN-RED-IR","723036","692916","905510","15.735918","5.007438","-0.016246","727676","885172","764773","9.683898","2.847755","-0.466002","829806","892826","814375","7.463951","2.060425","0.510085","827170","912419","859375","5.607805","1.437395","0.366333","719419","849203","955688","3.912216","1.088438","-0.257927","4686","4035","3732","4343","1833","787","4119","74","-1467","3934","-1766","-3731","7685","4899","3825",""
"MA200-0416","32284","95","1","1.10","1.4","2023-05-31T08:57:01","120","2023/05/31","08:57:01","-15.787168085575104","35.03440649434924","0.0","16","30","64","86","-2680","8252","-24784","13","150","150.16","114.64","35.52","27.13","50.4","15.93","89916","26.25","DUALSPOT-UV-BLUE-GREEN-RED-IR","722853","693124","905940","15.814919","5.027645","-0.021745","727707","885673","765196","9.738056","2.850420","0.644997","832593","896190","817447","7.507670","2.057034","0.317630","832726","918930","865432","5.639837","1.426303","0.273968","717995","847887","954294","3.965593","1.097788","-0.379862","4047","3341","3011","3502","556","-663","3166","-792","-2286","2803","-3132","-5142","6504","3677","2595",""
"MA200-0416","32285","95","1","1.10","1.4","2023-05-31T08:57:31","120","2023/05/31","08:57:31","-15.78717166185379","35.034409161657095","0.0","16","30","64","86","-2669","8188","-24596","13","150","150.04","114.88","35.16","27.40","50.1","16.09","89916","26.50","DUALSPOT-UV-BLUE-GREEN-RED-IR","722997","693834","907136","15.900972","5.049021","-0.023981","727577","886062","765627","9.793826","2.856201","-1.434678","831006","895010","816367","7.552458","2.054572","0.345805","832417","919045","865475","5.670961","1.417106","0.285169","715265","845063","951217","4.014146","1.105315","-0.531955","4399","3570","3185","3598","1218","239","3236","-581","-2008","2718","-2624","-4404","5904","2990","1883",""
"MA200-0416","32286","95","1","1.10","1.4","2023-05-31T08:58:01","120","2023/05/31","08:58:01","-15.787173628807068","35.03440899401903","0.0","16","30","64","86","-2636","8372","-24576","13","150","149.37","114.57","34.80","27.66","50.0","16.28","89920","26.69","DUALSPOT-UV-BLUE-GREEN-RED-IR","722371","693724","907286","16.023415","5.086542","0.000804","727109","886038","765710","9.879608","2.870966","-0.158873","829904","894362","815780","7.621515","2.061242","-1.882285","833652","920823","867093","5.721236","1.414156","0.473590","718085","848786","955481","4.074018","1.115029","-0.438952","6277","6332","6358","5550","3145","2160","5004","1591","326","4402","-850","-2575","7299","3899","2618",""
"MA200-0416","32287","95","1","1.10","1.4","2023-05-31T08:58:31","120","2023/05/31","08:58:31","-15.787181675434113","35.034414660185575","0.0","16","30","64","85","-2664","8244","-24712","13","150","147.77","114.00","33.77","27.94","49.8","16.49","89924","26.94","DUALSPOT-UV-BLUE-GREEN-RED-IR","721366","693193","906816","16.116358","5.111299","-0.010735","721852","880110","760598","9.945316","2.878612","-0.590208","827759","892465","814024","7.674123","2.060086","0.408537","824877","911559","858288","5.761725","1.406455","0.321595","714378","844761","951040","4.130300","1.124800","-0.319324","4788","4306","4082","4272","1678","621","3831","-284","-1794","3563","-2288","-4177","6896","4042","2974",""
"MA200-0416","32288","95","1","1.10","1.4","2023-05-31T08:59:01","120","2023/05/31","08:59:01","-15.787181556224823","35.03441182896495","0.0","16","30","64","86","-2696","8328","-24116","13","150","150.15","114.62","35.53","28.19","49.5","16.64","89932","27.19","DUALSPOT-UV-BLUE-GREEN-RED-IR","723921","695900","910474","16.166704","5.123417","-0.030089","723335","882212","762438","9.977262","2.876968","0.257169","827754","892744","814231","7.698596","2.051252","0.196483","828316","915659","862006","5.777988","1.392424","0.216506","714314","844977","951346","4.170084","1.129967","-0.941211","2579","2003","1735","2066","-343","-1319","1772","-2064","-3457","1423","-3962","-5672","4848","2031","984",""
"MA200-0416","32289","95","1","1.10","1.4","2023-05-31T08:59:31","120","2023/05/31","08:59:31","-15.787178337574005","35.034409660845995","0.0","16","30","64","86","-2542","8319","-25053","13","150","149.66","114.79","34.87","28.47","49.2","16.79","89936","27.38","DUALSPOT-UV-BLUE-GREEN-RED-IR","718981","691550","904882","16.232121","5.137943","-0.039955","724237","883729","763714","10.020658","2.876676","0.329878","830640","896242","817413","7.735831","2.047276","0.283532","828393","916106","862325","5.803186","1.379793","0.241887","716521","847945","954710","4.215160","1.134384","-3.006021","3347","2447","2030","2802","-62","-1215","2692","-946","-2256","2202","-3634","-5455","5485","1769","401",""
"MA200-0416","32290","95","1","1.10","1.4","2023-05-31T09:00:01","120","2023/05/31","09:00:01","-15.787170827388763","35.03439848870039","0.0","16","30","64","85","-2696","8268","-24528","13","150","149.47","114.44","35.03","28.75","48.9","16.96","89936","27.63","DUALSPOT-UV-BLUE-GREEN-RED-IR","720097","692942","906843","16.296080","5.152883","-0.032530","724843","884806","764677","10.063643","2.877933","0.472056","825926","891528","813029","7.770765","2.040994","0.240309","828965","917028","863098","5.828305","1.368278","0.247364","714979","846424","953078","4.260021","1.140598","-0.695521","3282","2505","2145","2784","266","-742","2534","-1488","-2921","2202","-3298","-4985","5476","2478","1381",""
"MA200-0416","32291","95","1","1.10","1.4","2023-05-31T09:00:31","120","2023/05/31","09:00:31","-15.787171185016632","35.034419160336256","0.0","16","30","64","85","-2788","8264","-24704","13","150","149.37","114.42","34.95","29.03","48.4","17.04","89928","27.88","DUALSPOT-UV-BLUE-GREEN-RED-IR","720319","693373","907531","16.341677","5.163883","-0.027163","725087","885373","765136","10.092069","2.875198","0.217184","829306","895429","816526","7.793546","2.034122","0.204258","829765","918134","864037","5.841015","1.353424","0.203621","713346","844786","951243","4.295141","1.143000","4.282761","2340","1848","1621","1841","-580","-1545","1652","-1632","-2792","1114","-4263","-5885","4287","960","-246",""
"MA200-0416","32292","95","1","1.10","1.4","2023-05-31T09:01:01","120","2023/05/31","09:01:01","-15.787168681621552","35.03440999612212","0.0","16","30","64","85","-2648","8288","-24688","13","150","149.39","114.24","35.15","29.29","47.8","17.09","89936","28.06","DUALSPOT-UV-BLUE-GREEN-RED-IR","719174","692564","906559","16.393427","5.174274","-0.062852","719557","878930","759553","10.125848","2.874256","0.287642","827188","893424","814658","7.821203","2.028811","0.235021","828269","916809","862658","5.859041","1.339918","0.220087","715342","847417","954261","4.333427","1.146798","-2.706362","2660","1736","1310","2191","-198","-1146","2009","-1254","-2398","1583","-3855","-5468","4681","1509","367",""
"MA200-0416","32293","95","1","1.10","1.4","2023-05-31T09:01:31","120","2023/05/31","09:01:31","-15.7871675491333","35.0344038233161","0.0","16","30","64","85","-2640","8320","-25008","13","150","149.45","114.96","34.49","29.54","47.3","17.15","89944","28.31","DUALSPOT-UV-BLUE-GREEN-RED-IR","721673","695427","910481","16.473154","5.193237","-0.026343","721564","881869","762150","10.184918","2.879739","-2.541713","827024","893730","814914","7.869775","2.027160","0.381434","830911","920152","865742","5.895698","1.332116","0.309978","714581","846929","953741","4.381668","1.151872","-1.689249","4073","3229","2840","3809","1178","141","3507","-397","-1752","3199","-2269","-3865","5862","2055","697",""
"MA200-0416","32294","95","1","1.10","1.4","2023-05-31T09:02:01","120","2023/05/31","09:02:01","-15.787165105342865","35.0344008281827","0.0","16","30","64","85","-2640","8244","-24648","13","150","149.45","114.52","34.93","29.80","46.8","17.21","89944","28.56","DUALSPOT-UV-BLUE-GREEN-RED-IR","721386","695851","911374","16.610964","5.230604","-0.011632","721010","881940","762379","10.287647","2.899814","-0.097310","825979","893257","814640","7.957197","2.040440","-0.261026","830898","920744","866306","5.960366","1.333701","1.076133","712636","845063","951748","4.446728","1.163781","-0.265672","7068","6284","5923","6650","4260","3323","6337","3156","2059","5665","455","-1046","7936","4763","3638",""
"MA200-0416","32295","95","1","1.10","1.4","2023-05-31T09:02:31","120","2023/05/31","09:02:31","-15.787163496017456","35.03440549224615","0.0","16","30","64","85","-2700","8304","-24752","13","150","149.39","114.88","34.51","30.05","46.4","17.29","89936","28.81","DUALSPOT-UV-BLUE-GREEN-RED-IR","715642","691275","905890","16.791058","5.281748","-0.005158","720417","882339","763008","10.439346","2.932966","-0.058458","828714","897282","818522","8.088577","2.063501","-0.156108","830224","920902","866622","6.066708","1.346039","-0.615537","715347","848950","956327","4.541412","1.181599","-0.224558","9208","8704","8474","9789","7121","6079","9495","5548","4196","9287","3587","1961","11514","7213","5700",""
"MA200-0416","32296","95","1","1.10","1.4","2023-05-31T09:03:01","120","2023/05/31","09:03:01","-15.787164092063904","35.034408159554005","0.0","16","30","64","85","-2728","8224","-24708","13","150","149.43","115.14","34.29","30.28","45.9","17.35","89940","29.00","DUALSPOT-UV-BLUE-GREEN-RED-IR","714858","691227","906166","16.944976","5.323326","-0.009238","719560","882123","762993","10.568812","2.960760","-0.059896","822336","891172","813018","8.199770","2.079916","-0.254000","829344","920662","866408","6.156064","1.353085","-2.654954","712630","846266","953421","4.621563","1.196544","-0.220223","7851","7122","6788","8335","6009","5104","8017","3974","2600","7785","2061","448","9724","6089","4819",""
"MA200-0416","32297","95","1","1.10","1.4","2023-05-31T09:03:31","120","2023/05/31","09:03:31","-15.787174046039581","35.034402661025524","0.0","16","30","64","85","-2624","8336","-24864","13","150","149.09","115.75","33.33","30.53","45.5","17.43","89932","29.25","DUALSPOT-UV-BLUE-GREEN-RED-IR","712788","689480","903991","17.005278","5.337543","-0.021117","717914","880443","761534","10.613298","2.963150","0.827305","823657","892924","814615","8.240473","2.079677","0.454032","821614","912378","858552","6.186303","1.345038","0.272474","710232","843662","950543","4.660099","1.201796","-0.524895","3059","2505","2251","2849","531","-366","2919","-59","-1064","2620","-2421","-3822","4650","2200","1349",""
"MA200-0416","32298","95","1","1.10","1.4","2023-05-31T09:04:01","120","2023/05/31","09:04:01","-15.787176370620728","35.034403160214424","0.0","16","30","64","85","-2652","8316","-24528","13","150","150.11","115.49","34.63","30.74","45.2","17.50","89932","29.44","DUALSPOT-UV-BLUE-GREEN-RED-IR","712697","689694","904376","17.053984","5.347923","-0.042698","718956","882042","762944","10.650772","2.964204","0.461287","823806","893390","815035","8.272172","2.076697","0.281239","824316","915665","861568","6.208578","1.336133","0.242694","713748","848074","955548","4.692503","1.204549","-5.722155","2477","1760","1433","2405","225","-614","2278","-714","-1717","1935","-2580","-3818","3919","1110","140",""
"MA200-0416","32299","95","1","1.10","1.4","2023-05-31T09:04:31","120","2023/05/31","09:04:31","-15.787176191806793","35.034404657781124","0.0","16","30","64","85","-2676","8384","-24628","13","150","149.54","115.03","34.52","31.00","44.9","17.63","89936","29.69","DUALSPOT-UV-BLUE-GREEN-RED-IR","710115","687678","901964","17.150090","5.376108","-0.001986","717746","881073","762223","10.722837","2.977115","-0.117637","820886","890710","812633","8.332092","2.081901","-2.154226","827822","919978","865617","6.253316","1.334416","0.528510","710340","844396","951493","4.740726","1.213966","-0.186630","4907","4796","4745","4644","2773","2053","4324","1251","228","3902","-498","-1692","5856","3811","3107",""
"MA200-0416","32300","95","1","1.10","1.4","2023-05-31T09:05:01","120","2023/05/31","09:05:01","-15.787178337574005","35.034401163458824","0.0","16","30","64","85","-2700","8268","-24624","13","150","149.86","114.65","35.21","31.24","44.4","17.69","89940","29.88","DUALSPOT-UV-BLUE-GREEN-RED-IR","710949","688887","903741","17.225062","5.395691","-0.016153","718869","882925","763895","10.780994","2.985752","-0.231868","825179","895835","817373","8.384884","2.087229","-1.004478","823609","915735","861592","6.292624","1.331168","0.419598","709713","843975","951083","4.786257","1.221931","-0.286054","3840","3266","3004","3760","1818","1074","3822","1256","405","3439","-925","-2096","5547","3160","2341",""
"MA200-0416","32301","95","1","1.10","1.4","2023-05-31T09:05:31","120","2023/05/31","09:05:31","-15.787180185317993","35.03440199419856","0.0","16","30","64","85","-2656","8316","-24700","13","150","150.49","114.88","35.61","31.49","44.1","17.78","89948","30.13","DUALSPOT-UV-BLUE-GREEN-RED-IR","713313","691963","908246","17.387402","5.443676","-0.004182","715939","880280","761849","10.921583","3.017891","-0.052154","821760","892993","814968","8.507491","2.109837","-0.137351","820960","913590","859675","6.393604","1.343977","-0.464452","710612","845629","953151","4.874214","1.241507","-0.124948","8300","7913","7737","9072","6689","5780","8860","5270","4086","8819","3608","2221","10695","7678","6647",""
"MA200-0416","32302","95","1","1.10","1.4","2023-05-31T09:06:01","120","2023/05/31","09:06:01","-15.78718250989914","35.034392826259136","0.0","16","30","64","85","-2664","8192","-24648","13","150","149.66","114.75","34.91","31.73","43.7","17.88","89952","30.31","DUALSPOT-UV-BLUE-GREEN-RED-IR","708303","687495","902566","17.475506","5.467342","-0.011740","717620","882820","764124","10.992688","3.029115","-0.179858","821847","893562","815476","8.567364","2.114088","6.684217","822672","915944","861861","6.442682","1.341193","0.466654","709830","845055","952583","4.927789","1.249703","-0.404684","4509","3982","3741","4593","2383","1542","4331","1010","-76","4290","-800","-2138","6522","3279","2178",""
"MA200-0416","32303","95","1","1.10","1.4","2023-05-31T09:06:31","120","2023/05/31","09:06:31","-15.787175059318542","35.03439398854971","0.1","16","30","64","85","-2638","8275","-24672","13","150","149.49","114.57","34.91","31.97","43.3","17.95","89948","30.56","DUALSPOT-UV-BLUE-GREEN-RED-IR","713518","692912","909843","17.534942","5.482374","-0.018752","717559","883193","764453","11.038443","3.032386","1.731680","820246","892240","814285","8.608986","2.112865","0.372580","816362","909300","855563","6.473621","1.333123","0.269980","711807","847728","955653","4.967260","1.255495","-0.456300","3047","2528","2293","2960","694","-163","3016","-290","-1366","2709","-2319","-3623","4812","2317","1473",""
"MA200-0416","32304","95","1","1.10","1.4","2023-05-31T09:07:01","120","2023/05/31","09:07:01","-15.787181317806244","35.034393325448036","0.0","16","30","64","85","-2691","8337","-24683","13","150","150.09","114.68","35.42","32.20","42.9","18.00","89956","30.75","DUALSPOT-UV-BLUE-GREEN-RED-IR","710189","690202","906540","17.640858","5.511478","-0.010823","715472","881258","762879","11.124069","3.047592","-0.126910","821404","894096","816054","8.684928","2.122682","-0.384366","820084","914000","859983","6.534638","1.334512","1.086130","708518","844233","951775","5.027897","1.266353","-0.254778","5424","4826","4555","5535","3182","2295","5497","2301","1267","5338","393","-875","7386","4283","3238",""
"MA200-0416","32305","95","1","1.10","1.4","2023-05-31T09:07:31","120","2023/05/31","09:07:31","-15.787184417247772","35.03439265862107","0.0","16","30","64","85","-2696","8236","-24668","13","150","150.17","114.84","35.34","32.44","42.5","18.05","89956","31.00","DUALSPOT-UV-BLUE-GREEN-RED-IR","710383","690882","907659","17.740712","5.539055","-0.009868","716298","882798","764359","11.207680","3.063734","-0.093905","820726","893912","815962","8.758480","2.131694","-0.443792","821404","915967","861834","6.594506","1.335638","1.006882","707507","843457","951019","5.089765","1.277171","-0.267336","5107","4583","4346","5397","3386","2629","5317","2117","1088","5230","319","-927","7525","4276","3188",""
"MA200-0416","32306","95","1","1.10","1.4","2023-05-31T09:08:01","120","2023/05/31","09:08:01","-15.787183403968811","35.034394323825836","0.0","16","30","64","85","-2591","8091","-24145","13","150","150.28","114.63","35.66","32.67","42.0","18.08","89948","31.19","DUALSPOT-UV-BLUE-GREEN-RED-IR","708430","689353","905844","17.816002","5.557804","-0.022911","715442","882232","763954","11.268578","3.073108","-0.201690","819493","893015","815180","8.812816","2.135724","21.882315","821849","916884","862657","6.634073","1.331299","0.368526","710363","847173","955279","5.137352","1.284955","-0.334719","3857","3088","2739","3938","1949","1203","3935","938","-20","3463","-1220","-2396","5799","3049","2132",""
"MA200-0416","32307","95","1","1.10","1.4","2023-05-31T09:08:31","120","2023/05/31","09:08:31","-15.787178575992584","35.034411158412695","0.0","16","30","64","85","-2584","8320","-24784","13","150","149.54","114.15","35.39","32.89","41.5","18.08","89952","31.44","DUALSPOT-UV-BLUE-GREEN-RED-IR","706593","688006","904250","17.900900","5.580736","-0.012852","714559","881621","763486","11.335535","3.083217","-0.210507","818533","892423","814687","8.872492","2.142293","-0.639833","819313","914527","860433","6.682407","1.329940","0.563377","708403","845180","953099","5.187696","1.292766","-0.383170","4368","3805","3551","4348","2117","1284","4340","1541","650","4247","-385","-1536","6160","3083","2062",""
"MA200-0416","32308","95","1","1.10","1.4","2023-05-31T09:09:01","120","2023/05/31","09:09:01","-15.787177860736847","35.034420154988766","0.1","16","30","64","85","-2638","8396","-24646","13","150","149.09","114.00","35.08","33.09","41.0","18.06","89944","31.56","DUALSPOT-UV-BLUE-GREEN-RED-IR","709480","691062","908375","17.953742","5.593473","-0.025593","712816","879744","761900","11.375726","3.088701","-0.284783","819146","893380","815552","8.906246","2.142078","0.438794","822672","918513","864143","6.708098","1.323765","0.271377","709095","846237","954328","5.220369","1.297107","-0.593993","2722","2132","1865","2613","1158","616","2458","-50","-845","2260","-1765","-2755","4003","1728","976",""
"MA200-0416","32309","95","1","1.10","1.4","2023-05-31T09:09:31","120","2023/05/31","09:09:31","-15.787183701992035","35.034412663429976","0.0","16","30","64","85","-2680","8224","-24716","13","150","150.63","114.75","35.88","33.29","40.5","18.07","89944","31.75","DUALSPOT-UV-BLUE-GREEN-RED-IR","709154","690944","908293","17.991198","5.601171","-0.055043","713029","880230","762320","11.401302","3.087617","0.245078","818503","892901","815081","8.927507","2.138073","0.213179","822434","918438","863993","6.722711","1.315486","0.208341","708142","845271","953292","5.244163","1.298317","1.878201","1917","1260","963","1652","-224","-920","1538","-926","-1703","1277","-2315","-3189","2896","470","-327",""
"MA200-0416","32310","95","1","1.10","1.4","2023-05-31T09:10:01","120","2023/05/31","09:10:01","-15.787186026573181","35.03441899269819","0.0","16","30","64","85","-2720","8240","-24752","13","150","150.16","114.44","35.72","33.49","40.2","18.12","89940","32.00","DUALSPOT-UV-BLUE-GREEN-RED-IR","708350","690351","907578","18.025116","5.608364","-0.048307","709036","875478","758168","11.424563","3.087276","0.288958","817863","892408","814599","8.949519","2.135956","0.267353","820024","915997","861576","6.734659","1.305198","0.189034","706504","843462","951260","5.265989","1.300884","-0.911628","1740","1182","930","1506","-70","-654","1596","-491","-1146","1047","-2889","-3835","2664","1004","459",""
"MA200-0416","32311","95","1","1.10","1.4","2023-05-31T09:10:31","120","2023/05/31","09:10:31","-15.787177860736847","35.03442098945379","0.0","16","30","64","85","-2560","8328","-24468","13","150","149.45","114.24","35.20","33.67","39.9","18.15","89940","32.19","DUALSPOT-UV-BLUE-GREEN-RED-IR","704674","686960","903193","18.062142","5.616968","-0.030726","711205","878425","760752","11.450406","3.089208","2.423887","818040","892800","814933","8.968622","2.134067","0.263537","823184","919692","865015","6.749477","1.299649","0.233133","706821","844045","951931","5.286747","1.303091","-1.257769","1903","1435","1224","1676","406","-62","1388","-445","-1018","1301","-1581","-2268","2538","875","331",""
"MA200-0416","32312","95","1","1.10","1.4","2023-05-31T09:11:01","120","2023/05/31","09:11:01","-15.78717589378357","35.034420154988766","0.0","16","30","64","85","-2680","8268","-24612","13","150","150.17","114.31","35.87","33.88","39.6","18.23","89948","32.38","DUALSPOT-UV-BLUE-GREEN-RED-IR","704331","686880","903177","18.106416","5.627983","-0.023738","715625","884162","765749","11.481510","3.091228","1.110531","817834","892865","814997","8.995772","2.132696","0.324225","823442","920247","865493","6.769346","1.294117","0.258528","706183","843441","951287","5.311552","1.306612","-0.499628","2275","1803","1591","2017","417","-171","1971","-317","-1028","1743","-1547","-2325","3031","1371","829",""
"MA200-0416","32313","95","1","1.10","1.4","2023-05-31T09:11:31","120","2023/05/31","09:11:31","-15.787179708480835","35.03441982716322","0.0","16","30","64","85","-2616","8288","-24760","13","150","149.80","114.50","35.30","34.06","39.2","18.24","89952","32.56","DUALSPOT-UV-BLUE-GREEN-RED-IR","708186","690874","908599","18.156148","5.640651","-0.018558","714668","883253","765001","11.517588","3.095567","-0.436289","820329","895828","817738","9.028131","2.133459","0.639992","821564","918377","863717","6.792991","1.289498","0.292039","708135","846011","954209","5.341507","1.310633","-0.555905","2551","2108","1908","2335","911","387","2346","179","-491","2071","-1312","-2105","3654","1591","920",""
"MA200-0416","32314","95","1","1.10","1.4","2023-05-31T09:12:01","120","2023/05/31","09:12:01","-15.787175238132477","35.03442382439971","0.0","16","30","64","85","-2572","8316","-24700","13","150","150.01","114.25","35.75","34.25","38.9","18.28","89948","32.69","DUALSPOT-UV-BLUE-GREEN-RED-IR","706443","689453","906854","18.209400","5.656780","-0.002687","714099","882804","764669","11.555708","3.102321","-0.126171","817734","893283","815398","9.060461","2.135217","1.474462","818343","915009","860523","6.816591","1.286542","0.348750","705438","842965","950870","5.371448","1.318203","-0.063610","2737","2649","2609","2473","1400","1006","2349","408","-190","2072","-829","-1504","3660","2957","2728",""
"MA200-0416","32315","95","1","1.10","1.4","2023-05-31T09:12:31","120","2023/05/31","09:12:31","-15.787172019481659","35.03442666307092","0.0","16","30","64","85","-2636","8236","-24680","13","150","149.62","114.32","35.30","34.42","38.5","18.28","89940","32.88","DUALSPOT-UV-BLUE-GREEN-RED-IR","703982","687315","904161","18.262220","5.671917","-0.006384","711660","880024","762303","11.590241","3.109462","-0.071017","816375","892039","814276","9.088362","2.136945","2.545089","823187","920690","865812","6.837890","1.282632","0.298163","707594","845758","954067","5.400774","1.323687","-0.202513","2713","2518","2430","2239","1499","1228","2026","406","-91","1869","-1111","-1799","3583","2170","1711",""
"MA200-0416","32316","95","1","1.10","1.4","2023-05-31T09:13:01","120","2023/05/31","09:13:01","-15.78717303276062","35.034429993480444","0.0","16","30","64","85","-2640","8312","-24756","13","150","149.43","113.93","35.50","34.61","38.2","18.30","89936","33.06","DUALSPOT-UV-BLUE-GREEN-RED-IR","708310","691703","910046","18.304386","5.684177","-0.005878","710001","878193","760741","11.618453","3.112413","-0.844234","814088","889708","812138","9.112108","2.137708","0.748484","820283","917589","862890","6.856048","1.278620","0.278367","704971","842807","950757","5.427583","1.330090","-0.082573","2173","2028","1962","1835","616","169","1730","178","-297","1599","-1133","-1760","3287","2519","2270",""
"MA200-0416","32317","95","1","1.10","1.4","2023-05-31T09:13:31","120","2023/05/31","09:13:31","-15.78717589378357","35.034430991858244","0.0","16","30","64","84","-2588","8316","-24516","13","150","149.80","113.74","36.06","34.77","37.9","18.30","89940","33.25","DUALSPOT-UV-BLUE-GREEN-RED-IR","703865","687615","904808","18.353854","5.698343","-0.008893","711560","880373","762657","11.651793","3.118200","-0.138787","815746","891786","814085","9.139521","2.139473","2.805246","816659","913764","859262","6.874006","1.274609","0.278633","706320","844565","952817","5.452398","1.334057","-0.350233","2554","2307","2196","2173","1189","830","2000","406","-81","1584","-1116","-1730","3047","1536","1047",""
"MA200-0416","32318","95","1","1.10","1.4","2023-05-31T09:14:01","120","2023/05/31","09:14:01","-15.787179350852966","35.03443082422018","0.0","16","30","64","85","-2560","8288","-24712","13","150","149.61","114.23","35.38","34.95","37.6","18.35","89948","33.44","DUALSPOT-UV-BLUE-GREEN-RED-IR","704021","688078","905526","18.407730","5.711893","-0.020341","711268","880275","762629","11.685862","3.121246","-2.815992","819115","895753","817699","9.168870","2.138341","0.342818","823606","921814","866770","6.896371","1.269477","0.272898","705403","843649","951829","5.478126","1.338577","-0.244671","2770","2249","2015","2210","638","65","2133","-265","-995","1964","-1455","-2227","3146","1784","1344",""
"MA200-0416","32319","95","1","1.10","1.4","2023-05-31T09:14:31","120","2023/05/31","09:14:31","-15.787178695201874","35.034444995224476","0.0","17","30","64","85","-2454","8308","-24645","13","150","149.99","114.15","35.83","35.12","37.4","18.41","89948","33.56","DUALSPOT-UV-BLUE-GREEN-RED-IR","701813","686175","903199","18.466974","5.729385","-0.005096","710166","879237","761747","11.725132","3.126258","-0.361394","817365","894079","816180","9.200675","2.140665","-584.058350","820427","918495","863640","6.919169","1.265758","0.312572","706958","845728","954213","5.505651","1.342705","-0.405328","3048","2867","2786","2550","1037","486","2313","538","0","2003","-1041","-1723","3368","1609","1042",""
"MA200-0416","32320","95","1","1.10","1.4","2023-05-31T09:15:01","120","2023/05/31","09:15:01","-15.787165462970734","35.034450493752956","0.0","17","30","64","84","-2720","8179","-24452","13","150","150.16","114.28","35.88","35.29","37.1","18.46","89956","33.75","DUALSPOT-UV-BLUE-GREEN-RED-IR","703906","688478","906356","18.517790","5.741878","-0.024769","711336","880949","763244","11.757781","3.128606","1.774916","814206","890894","813258","9.227176","2.138549","0.279688","816653","914485","859786","6.937025","1.259636","0.236801","703805","842115","950177","5.531799","1.347277","-0.255617","2611","2045","1790","2117","485","-106","1925","-489","-1217","1567","-1711","-2439","3196","1780","1324",""
"MA200-0416","32321","95","1","1.10","1.4","2023-05-31T09:15:31","120","2023/05/31","09:15:31","-15.78717988729477","35.03445449098945","0.1","17","30","64","84","-2664","8308","-24612","13","150","149.86","114.19","35.67","35.45","37.0","18.53","89960","33.94","DUALSPOT-UV-BLUE-GREEN-RED-IR","703729","688603","906626","18.569854","5.755989","-0.012772","711359","881253","763526","11.791208","3.131635","-2.465106","813224","890038","812463","9.255166","2.138251","0.421367","815586","913514","858837","6.957862","1.254522","0.265661","706648","845728","954285","5.556974","1.350023","-1.102398","2678","2323","2164","2170","629","72","2035","-69","-701","1830","-1438","-2157","3079","1075","432",""
"MA200-0416","32322","95","1","1.10","1.4","2023-05-31T09:16:01","120","2023/05/31","09:16:01","-15.787189066410065","35.034435492008924","0.0","17","30","64","84","-2668","8232","-24732","13","150","149.32","114.23","35.09","35.63","36.7","18.57","89964","34.06","DUALSPOT-UV-BLUE-GREEN-RED-IR","701263","686406","903847","18.615166","5.769064","-0.005163","709543","879206","761786","11.820779","3.136070","-0.194177","815845","893118","815298","9.279907","2.138722","0.599970","819861","918511","863467","6.975763","1.249998","0.260778","704429","843210","951452","5.579529","1.352739","-0.728189","2329","2188","2125","1919","937","582","1798","111","-393","1572","-1293","-1919","2758","1081","544",""
"MA200-0416","32323","95","1","1.10","1.4","2023-05-31T09:16:31","120","2023/05/31","09:16:31","-15.787187814712524","35.034437488764524","0.0","17","30","64","85","-2640","8276","-24712","13","150","149.57","114.16","35.40","35.79","36.4","18.59","89960","34.25","DUALSPOT-UV-BLUE-GREEN-RED-IR","704620","689881","908543","18.657204","5.780004","-0.016281","711828","882223","764432","11.845407","3.137905","2.612857","814140","891449","813766","9.300900","2.138900","0.516212","817947","916511","861585","6.989763","1.244765","0.228064","706955","846380","955074","5.601284","1.356157","-0.333041","2162","1815","1658","1599","384","-53","1526","41","-401","1230","-1483","-2070","2662","1348","929",""
"MA200-0416","32324","95","1","1.10","1.4","2023-05-31T09:17:01","120","2023/05/31","09:17:01","-15.787182986736298","35.03444015607238","0.1","17","30","64","84","-2612","8320","-24848","13","150","150.14","114.34","35.81","35.93","36.1","18.57","89960","34.38","DUALSPOT-UV-BLUE-GREEN-RED-IR","701824","687361","905292","18.697852","5.791906","-0.005569","709977","880128","762619","11.870169","3.141231","-0.293112","815600","893235","815400","9.321232","2.137792","0.312244","820697","919800","864612","7.003638","1.238816","0.218820","703839","842777","951030","5.619076","1.358348","-0.712432","2088","1952","1891","1605","688","358","1476","-256","-772","1217","-1666","-2286","2173","854","434",""
"MA200-0416","32325","95","1","1.10","1.4","2023-05-31T09:17:31","120","2023/05/31","09:17:31","-15.787181317806244","35.03444182500243","0.0","17","30","64","84","-2564","8328","-24636","13","150","149.58","114.40","35.18","36.08","35.8","18.56","89956","34.50","DUALSPOT-UV-BLUE-GREEN-RED-IR","704117","689905","908841","18.763472","5.809961","-0.009584","711568","882426","764693","11.917736","3.150863","-0.072695","813513","891277","813653","9.363724","2.145106","-0.142205","817860","916885","861900","7.036208","1.241529","-1.098161","705945","845549","954219","5.651396","1.364590","-0.170245","3369","3014","2855","3082","2029","1651","3083","1726","1322","2856","773","327","3946","2478","2011",""
"MA200-0416","32326","95","1","1.10","1.4","2023-05-31T09:18:01","120","2023/05/31","09:18:01","-15.78717988729477","35.03444582596421","0.0","17","30","64","84","-2484","8312","-24852","13","150","149.32","114.69","34.63","36.24","35.6","18.62","89960","34.69","DUALSPOT-UV-BLUE-GREEN-RED-IR","701753","687870","906284","18.813272","5.824585","-0.002204","709584","880275","762851","11.952522","3.155918","-0.199843","814847","892963","815232","9.391496","2.146828","3.647602","820355","919910","864704","7.057843","1.239043","0.351755","706243","846098","954878","5.676130","1.368022","-0.435976","2550","2480","2448","2248","1082","663","2010","412","-60","1892","-720","-1276","3012","1384","867",""
"MA200-0416","32327","95","1","1.10","1.4","2023-05-31T09:18:31","120","2023/05/31","09:18:31","-15.787178039550781","35.03445399180055","0.0","17","30","64","84","-2513","8302","-24911","13","150","150.05","115.14","34.90","36.34","35.4","18.63","89968","34.81","DUALSPOT-UV-BLUE-GREEN-RED-IR","704406","690750","910192","18.866836","5.838562","-0.013384","711706","883174","765425","11.989681","3.161228","-0.212111","812600","890759","813214","9.420766","2.147650","0.711733","817933","917450","862396","7.079910","1.236706","0.363726","704050","843619","952124","5.699405","1.372542","-0.157678","2732","2351","2181","2392","1127","675","2110","195","-369","1922","-671","-1220","2823","1809","1487",""
"MA200-0416","32328","95","1","1.10","1.4","2023-05-31T09:19:01","120","2023/05/31","09:19:01","-15.787177383899689","35.034458827227354","0.0","17","30","64","84","-2532","8344","-24360","13","150","149.36","114.73","34.63","36.49","35.2","18.66","89976","35.00","DUALSPOT-UV-BLUE-GREEN-RED-IR","701872","688816","907992","18.959522","5.865837","-0.001984","709245","880674","763432","12.055378","3.175367","-0.052953","814142","892991","815365","9.478210","2.156264","-0.197157","814880","914498","859697","7.125895","1.240646","-0.915495","705700","845961","954855","5.742246","1.381959","-0.097029","4744","4626","4572","4244","3026","2590","4156","2065","1449","4021","1141","534","5216","3799","3349",""
"MA200-0416","32329","95","1","1.10","1.4","2023-05-31T09:19:31","120","2023/05/31","09:19:31","-15.787178218364716","35.034457325935364","0.0","17","30","64","84","-2675","8250","-24300","13","150","149.90","115.31","34.58","36.63","34.9","18.65","89972","35.13","DUALSPOT-UV-BLUE-GREEN-RED-IR","697764","685783","904609","19.157094","5.929331","0.004907","706274","878117","761588","12.217070","3.221286","-0.006349","810617","890145","813100","9.618656","2.193171","-0.019841","817213","918041","863252","7.240357","1.264697","-0.078608","702155","842359","951059","5.837778","1.405925","-0.047003","10063","10784","11107","10394","9843","9646","10111","8860","8491","9958","6977","6346","11572","9681","9081",""
"MA200-0416","32330","95","1","1.10","1.4","2023-05-31T09:20:01","120","2023/05/31","09:20:01","-15.787178575992584","35.03445432707667","0.0","17","30","64","84","-2564","8188","-24364","13","150","149.86","115.07","34.79","36.77","34.7","18.69","89968","35.25","DUALSPOT-UV-BLUE-GREEN-RED-IR","699488","688737","909266","19.390196","6.002952","0.003128","707429","880937","764516","12.408087","3.273141","-0.012982","811214","892078","815275","9.788750","2.236373","-0.026723","819694","921895","867185","7.382227","1.296764","-0.059789","703077","844244","953487","5.948740","1.434111","-0.044867","11898","12429","12666","12306","11049","10599","12272","10309","9727","12369","9247","8581","13471","11317","10633",""
"MA200-0416","32331","95","1","1.10","1.4","2023-05-31T09:20:31","120","2023/05/31","09:20:31","-15.7871795296669","35.0344498232007","0.0","17","30","64","84","-2476","8356","-24920","13","150","150.68","115.33","35.35","36.91","34.5","18.70","89968","35.38","DUALSPOT-UV-BLUE-GREEN-RED-IR","683396","680468","903453","21.097152","6.574566","0.005623","693886","872709","760837","13.880734","3.737682","0.002774","801249","889110","815812","11.103414","2.636021","-0.000968","805398","913014","861641","8.504025","1.623719","-0.007583","697844","842877","954194","6.775400","1.671151","-0.013794","86930","94984","98630","94657","97427","98447","94636","93868","93629","97583","92801","91672","100127","93680","91569",""
"MA200-0416","32332","95","1","1.10","1.4","2023-05-31T09:21:01","120","2023/05/31","09:21:01","-15.787175238132477","35.034445490688086","0.0","17","30","64","84","-2612","8264","-24896","13","150","150.49","114.72","35.77","37.05","34.4","18.76","89964","35.50","DUALSPOT-UV-BLUE-GREEN-RED-IR","685584","684626","910300","21.589062","6.739000","0.004387","695234","876673","765170","14.295758","3.864248","-0.002180","798446","888115","815643","11.477032","2.745539","-0.007459","801910","910938","860332","8.821835","1.710051","-0.021571","695408","841229","952916","7.018989","1.738914","-0.023858","25185","26998","27821","26819","26228","26009","27039","25417","24907","27794","24212","23350","29662","26461","25407",""
"MA200-0416","32333","95","1","1.10","1.4","2023-05-31T09:21:31","120","2023/05/31","09:21:31","-15.787172675132751","35.03444965556264","0.0","17","30","64","84","-2575","8308","-25225","13","150","149.53","114.79","34.73","37.19","34.1","18.77","89960","35.63","DUALSPOT-UV-BLUE-GREEN-RED-IR","677237","679612","905914","22.105020","6.912897","0.006434","688178","871460","762130","14.731416","4.000433","0.002957","792442","884831","814005","11.857136","2.856475","-0.004121","802071","914184","864542","9.144444","1.797974","-0.015409","694181","841892","954586","7.267320","1.810129","-0.010273","26399","29408","30777","28134","29068","29416","27490","26518","26209","28195","25397","24713","30219","28643","28120",""
"MA200-0416","32334","95","1","1.10","1.4","2023-05-31T09:22:01","120","2023/05/31","09:22:01","-15.787173330783844","35.034447990357876","0.0","17","30","64","84","-2508","8229","-24904","13","150","149.62","114.40","35.22","37.33","33.8","18.75","89964","35.75","DUALSPOT-UV-BLUE-GREEN-RED-IR","676808","681556","910159","22.746738","7.133777","0.006445","687344","873084","764590","15.269530","4.171850","0.002976","790889","885588","815643","12.338094","3.003525","-0.000757","796032","909510","860915","9.550767","1.913541","-0.011036","689604","837869","950747","7.576179","1.897893","-0.015140","32948","36833","38608","34871","36078","36531","34905","34661","34582","35635","32918","32237","37716","34807","33835",""
"MA200-0416","32335","95","1","1.10","1.4","2023-05-31T09:22:31","120","2023/05/31","09:22:31","-15.787170231342316","35.03444666042924","0.0","17","30","64","84","-2552","8268","-25012","13","150","150.16","114.72","35.44","37.45","33.6","18.74","89964","35.88","DUALSPOT-UV-BLUE-GREEN-RED-IR","671981","677744","905795","23.077054","7.246982","0.005955","683306","869139","761575","15.543264","4.255106","-0.001408","787722","883154","813819","12.585230","3.074026","-0.008969","797583","912304","863904","9.763645","1.969540","-0.023418","689890","838957","952292","7.741852","1.942480","-0.026846","16912","18760","19606","17689","17414","17310","17885","16514","16071","18617","15851","15152","20174","17573","16702",""
"MA200-0416","32336","95","1","1.10","1.4","2023-05-31T09:23:01","120","2023/05/31","09:23:01","-15.787168383598328","35.03444415703416","0.0","17","30","64","84","-2824","8268","-23772","13","150","149.73","114.57","35.16","37.60","33.4","18.80","89960","36.00","DUALSPOT-UV-BLUE-GREEN-RED-IR","665310","677607","910395","24.366410","7.695390","0.006692","677725","869527","765130","16.644411","4.611362","0.004196","780654","882166","815843","13.568399","3.380096","0.001392","792916","913285","867380","10.605927","2.219164","-0.004267","686453","839236","954674","8.377777","2.127384","-0.009034","66099","74909","78976","71248","75116","76598","71243","72273","72615","73755","71230","70562","77536","73466","72080",""
"MA200-0416","32337","95","1","1.10","1.4","2023-05-31T09:23:31","120","2023/05/31","09:23:31","-15.787185847759247","35.034438490867615","0.0","17","30","64","84","-2548","8296","-24900","13","150","150.21","114.46","35.75","37.74","33.2","18.81","89960","36.19","DUALSPOT-UV-BLUE-GREEN-RED-IR","648635","670076","907303","26.355968","8.401079","0.006295","663205","861611","762931","18.349298","5.180914","0.004811","769242","879229","817559","15.087010","3.868205","0.002486","778644","905867","864164","11.907723","2.618056","-0.002102","676164","832983","950655","9.360825","2.419222","-0.007659","102095","115930","122404","110421","118093","121112","110151","113343","114443","114105","111932","111319","119977","114025","111951",""
"MA200-0416","32338","95","1","1.10","1.4","2023-05-31T09:24:01","120","2023/05/31","09:24:01","-15.787189364433289","35.034435492008924","0.0","17","30","64","84","-2656","8332","-24240","13","150","149.70","114.32","35.38","37.88","33.0","18.84","89964","36.31","DUALSPOT-UV-BLUE-GREEN-RED-IR","638638","664855","904288","27.657722","8.869862","0.007021","658632","861647","765708","19.461568","5.554779","0.005530","761277","875679","816734","16.098122","4.193276","0.003105","770287","901223","861893","12.785980","2.885890","-0.001496","674168","834203","953810","10.031479","2.618495","-0.005679","66882","77830","82999","72127","78343","80825","73430","76287","77293","77075","75955","75629","81951","78687","77534",""
"MA200-0416","32339","95","1","1.10","1.4","2023-05-31T09:24:31","120","2023/05/31","09:24:31","-15.78718250989914","35.03443182259798","0.0","17","30","64","83","-2664","8292","-24628","13","150","149.70","114.32","35.38","38.03","32.8","18.84","89964","36.50","DUALSPOT-UV-BLUE-GREEN-RED-IR","636929","666213","908638","28.644264","9.237953","0.008131","652617","857355","763560","20.310122","5.848671","0.007061","755484","872421","815308","16.868966","4.449600","0.005450","770231","904316","866232","13.458517","3.097611","0.001633","669445","830602","950863","10.549107","2.776982","-0.001383","50686","61113","66076","55025","61585","64237","55981","60153","61648","59021","60042","60347","63252","62582","62342",""
"MA200-0416","32340","95","1","1.10","1.4","2023-05-31T09:25:01","120","2023/05/31","09:25:01","-15.787181556224823","35.034428995102644","0.0","17","30","64","83","-2637","8291","-24612","13","150","149.66","113.96","35.70","38.17","32.6","18.89","89964","36.63","DUALSPOT-UV-BLUE-GREEN-RED-IR","629125","662175","906497","29.577358","9.584486","0.007281","645795","853065","762021","21.107582","6.125177","0.006199","751414","872205","817183","17.582614","4.686619","0.004314","761814","898580","862561","14.075607","3.290516","-0.000195","667507","831191","953039","11.025150","2.922672","-0.002936","48092","57014","61292","51875","57418","59684","51991","55121","56258","54326","54212","54178","58354","57009","56524",""
"MA200-0416","32341","95","1","1.10","1.4","2023-05-31T09:25:31","120","2023/05/31","09:25:31","-15.787183582782745","35.03442765772343","0.0","17","30","64","84","-2484","8328","-24872","13","150","149.86","114.19","35.67","38.31","32.4","18.91","89964","36.75","DUALSPOT-UV-BLUE-GREEN-RED-IR","623312","661741","910695","31.039250","10.137941","0.007718","640365","852451","764715","22.357234","6.569380","0.007315","742667","868160","816367","18.718818","5.074537","0.006051","752921","893696","860447","15.066311","3.611791","0.003182","664667","831715","955796","11.783207","3.158584","-0.000421","75193","91144","98880","81126","92328","96989","82607","90298","93159","87041","90373","91423","92735","92400","92278",""
"MA200-0416","32342","95","1","1.10","1.4","2023-05-31T09:26:01","120","2023/05/31","09:26:01","-15.787193894386292","35.03442282602191","0.0","17","30","64","84","-2725","8345","-24579","13","150","149.43","113.62","35.81","38.46","32.2","18.93","89968","36.88","DUALSPOT-UV-BLUE-GREEN-RED-IR","616921","657852","907815","31.639102","10.367165","0.007591","634661","848302","762649","22.872730","6.750196","0.006040","737363","865081","814974","19.182572","5.228913","0.003743","752117","895651","863633","15.467335","3.735393","-0.001932","659770","827717","952280","12.098087","3.254394","-0.004097","31009","37599","40810","33633","37434","39025","33886","35792","36507","35410","34630","34382","38713","37377","36885",""
"MA200-0416","32343","95","1","1.10","1.4","2023-05-31T09:26:31","120","2023/05/31","09:26:31","-15.787182986736298","35.03442915901542","0.0","17","30","64","83","-2553","8326","-24826","13","150","149.80","114.46","35.34","38.61","32.1","19.01","89976","37.06","DUALSPOT-UV-BLUE-GREEN-RED-IR","603265","650201","903436","33.396298","11.052204","0.008443","626981","846157","765001","24.412622","7.312549","0.008481","728730","862803","816867","20.586514","5.722946","0.007880","740578","889205","860968","16.701471","4.148054","0.005958","655124","827316","954739","13.057785","3.560528","0.003347","90172","113865","125585","99736","117976","125775","101835","116072","121553","108177","117162","120131","117129","121022","122482",""
"MA200-0416","32344","95","1","1.10","1.4","2023-05-31T09:27:01","120","2023/05/31","09:27:01","-15.787178218364716","35.0344351567328","0.0","17","30","64","83","-2600","8408","-24556","13","150","149.39","114.16","35.22","38.75","31.9","19.05","89980","37.19","DUALSPOT-UV-BLUE-GREEN-RED-IR","602840","652018","908023","34.144528","11.344612","0.008356","622000","842110","762728","25.060272","7.549364","0.008356","724330","860174","815696","21.177880","5.928773","0.007128","741622","892895","865695","17.221694","4.318768","0.004539","651602","824680","952668","13.469608","3.691680","0.003147","38496","48758","53864","42056","49839","53195","43006","48512","50653","45718","48623","49595","50393","52012","52623",""
"MA200-0416","32345","95","1","1.10","1.4","2023-05-31T09:27:31","120","2023/05/31","09:27:31","-15.787181317806244","35.03443482890725","0.0","17","30","64","84","-2536","8312","-24584","13","150","149.86","113.62","36.24","38.91","31.9","19.18","89992","37.38","DUALSPOT-UV-BLUE-GREEN-RED-IR","596047","648008","905526","35.031548","11.696377","0.007640","615778","837559","760675","25.824866","7.832462","0.007267","718370","856832","814434","21.874184","6.173581","0.005708","734131","887415","862095","17.832700","4.520458","0.002513","649325","824448","953793","13.948391","3.843561","-0.000532","45853","57017","62612","49886","57915","61411","50878","56088","58137","53951","55841","56482","58865","58551","58431",""
"MA200-0416","32346","95","1","1.10","1.4","2023-05-31T09:28:01","120","2023/05/31","09:28:01","-15.787182986736298","35.03443715721369","0.0","17","30","64","83","-2520","8300","-24644","13","150","150.29","114.04","36.25","39.05","31.8","19.23","89984","37.50","DUALSPOT-UV-BLUE-GREEN-RED-IR","593113","649059","910911","35.961580","12.066238","0.007626","613068","838822","764502","26.625638","8.129472","0.007273","713820","856022","816107","22.595458","6.430018","0.006288","731852","888927","865659","18.459754","4.730057","0.003512","643232","819849","950263","14.444645","4.004723","0.002015","47900","59927","66000","52054","60738","64555","52509","58730","61204","55164","58008","58988","60788","62105","62610",""
"MA200-0416","32347","95","1","1.10","1.4","2023-05-31T09:28:31","120","2023/05/31","09:28:31","-15.78720074892044","35.034430991858244","0.0","17","30","64","83","-2548","8412","-24612","13","150","149.96","114.12","35.84","39.21","31.6","19.27","89984","37.69","DUALSPOT-UV-BLUE-GREEN-RED-IR","586139","644740","907979","36.979488","12.476223","0.008083","606739","833956","762153","27.500932","8.457865","0.007978","708119","852877","815104","23.400252","6.719077","0.007167","725310","884498","863113","19.170472","4.971385","0.005153","642073","821034","953113","15.008213","4.186595","0.002453","52389","67188","74723","56858","67924","72839","58548","66958","70346","62481","67553","69330","68985","70887","71623",""
"MA200-0416","32348","95","1","1.10","1.4","2023-05-31T09:29:01","120","2023/05/31","09:29:01","-15.787205159664154","35.03442182391882","0.0","17","30","64","83","-2484","8360","-24848","13","150","150.24","113.85","36.39","39.37","31.4","19.32","89976","37.81","DUALSPOT-UV-BLUE-GREEN-RED-IR","577891","639438","904115","37.781252","12.799549","0.007506","603971","834633","765234","28.186478","8.716095","0.007287","701663","849275","813916","24.015904","6.941277","0.006404","723918","886740","867261","19.705332","5.150223","0.002984","633472","812949","945334","15.435162","4.323874","0.000537","41363","52189","57736","44638","52609","56176","44895","50697","53055","47133","49308","50077","52387","52702","52824",""
"MA200-0416","32349","95","1","1.10","1.4","2023-05-31T09:29:31","120","2023/05/31","09:29:31","-15.787208259105682","35.03441999480128","0.0","17","30","64","83","-2520","8324","-24604","13","150","150.55","113.89","36.66","39.51","31.2","19.32","89968","37.94","DUALSPOT-UV-BLUE-GREEN-RED-IR","575289","640355","909222","38.941560","13.275925","0.007571","597169","829553","763132","29.178914","9.100098","0.007781","697828","848819","815865","24.919484","7.275129","0.006934","715899","880887","863626","20.500364","5.428838","0.005255","634539","817338","952164","16.063377","4.532861","0.002779","59838","76326","84854","64597","77654","83571","65867","75608","79625","70034","76251","78490","77053","79637","80653",""
"MA200-0416","32350","95","1","1.10","1.4","2023-05-31T09:30:01","120","2023/05/31","09:30:01","-15.787215828895569","35.03442098945379","0.0","17","30","64","83","-2520","8232","-24764","13","150","150.31","114.00","36.31","39.67","30.8","19.29","89972","38.06","DUALSPOT-UV-BLUE-GREEN-RED-IR","571349","637220","906039","39.347028","13.444698","0.008082","597394","831365","765636","29.519728","9.227575","0.006857","694849","846649","814530","25.233762","7.386685","0.005524","712000","877453","860907","20.776944","5.518407","0.001079","634921","818848","954514","16.287266","4.605526","0.001593","20890","27303","30632","22162","26028","27786","22887","25509","26594","24340","24750","24898","27434","27958","28165",""
"MA200-0416","32351","95","1","1.10","1.4","2023-05-31T09:30:31","120","2023/05/31","09:30:31","-15.787213206291199","35.03442432358861","0.0","17","30","64","83","-2612","8270","-24441","13","150","150.09","113.84","36.25","39.80","30.6","19.28","89972","38.19","DUALSPOT-UV-BLUE-GREEN-RED-IR","569802","637999","909709","39.805060","13.634113","0.007847","592145","826921","763216","29.905736","9.376539","0.007887","692573","846595","816009","25.575806","7.511336","0.006639","710790","878531","863269","21.071356","5.615002","0.001885","629807","814190","950196","16.526352","4.682746","0.001182","23631","30689","34366","25136","30462","32895","24944","28547","30045","25945","26733","27019","29337","29756","29922",""
"MA200-0416","32352","95","1","1.10","1.4","2023-05-31T09:31:01","120","2023/05/31","09:31:01","-15.78720486164093","35.0344253256917","0.0","17","30","64","83","-2508","8332","-24564","13","150","149.22","113.74","35.48","39.93","30.4","19.29","89968","38.31","DUALSPOT-UV-BLUE-GREEN-RED-IR","558704","629829","902434","40.995956","14.132980","0.008380","586765","824411","763919","30.930064","9.781357","0.009079","684173","840998","813417","26.505790","7.864476","0.008907","701315","871203","858462","21.888864","5.909294","0.007961","626723","813539","951507","17.170272","4.903061","0.006954","61498","82589","93685","66763","84587","92830","67883","82637","88862","72110","83221","87329","79086","86748","89810",""
"MA200-0416","32353","95","1","1.10","1.4","2023-05-31T09:31:31","120","2023/05/31","09:31:31","-15.787199437618256","35.0344248265028","0.0","17","30","64","83","-2545","8350","-24725","13","150","149.83","113.80","36.03","40.08","30.2","19.30","89968","38.38","DUALSPOT-UV-BLUE-GREEN-RED-IR","557694","632355","910032","41.879076","14.508678","0.008232","581082","820843","763398","31.702790","10.089680","0.008718","680924","841355","816412","27.212142","8.134199","0.008353","700103","873873","863465","22.510912","6.133896","0.007193","625166","814743","954793","17.665478","5.069666","0.004579","45579","61251","69559","50336","63444","69563","51530","62157","66688","54838","62547","65434","60787","64602","66137",""
"MA200-0416","32354","95","1","1.10","1.4","2023-05-31T09:32:01","120","2023/05/31","09:32:01","-15.787197351455688","35.034426495432854","0.0","17","30","64","83","-2544","8396","-24568","13","150","149.92","113.77","36.15","40.21","29.9","19.27","89968","38.50","DUALSPOT-UV-BLUE-GREEN-RED-IR","554616","629128","905675","42.277424","14.682140","0.008566","582399","823057","765612","32.060634","10.233088","0.008652","679098","839458","814747","27.553614","8.263857","0.007910","702465","877177","866889","22.817648","6.241232","0.005367","622499","811549","951192","17.912156","5.152333","0.003987","20564","28185","32240","23316","29410","32267","24917","29779","31862","27048","29790","30823","30287","31947","32617",""
"MA200-0416","32355","95","1","1.10","1.4","2023-05-31T09:32:31","120","2023/05/31","09:32:31","-15.787199914455414","35.03442232683301","0.0","17","30","64","83","-2470","8462","-24629","13","150","150.43","113.97","36.46","40.32","29.6","19.21","89968","38.63","DUALSPOT-UV-BLUE-GREEN-RED-IR","556600","631483","909192","42.313404","14.698666","0.009458","579967","819747","762583","32.090504","10.242041","-0.003191","680139","840924","816196","27.579772","8.269358","-0.034763","698752","872711","862430","22.839922","6.242132","0.260208","623296","812730","952622","17.939830","5.158116","-0.052902","1854","2661","3091","1942","1820","1762","1905","1252","972","1960","247","-396","3392","2215","1740",""
"MA200-0416","32356","95","1","1.10","1.4","2023-05-31T09:33:01","120","2023/05/31","09:33:01","-15.787199914455414","35.03442399203777","0.0","17","30","64","83","-2468","8220","-24776","13","150","149.54","113.66","35.88","40.40","29.2","19.06","89976","38.75","DUALSPOT-UV-BLUE-GREEN-RED-IR","553571","628139","904531","42.342528","14.712315","0.010061","581121","821497","764303","32.113442","10.250439","0.005918","678706","839255","814647","27.600776","8.275950","-0.000307","702007","876910","866605","22.857182","6.242985","0.316217","625530","815783","956241","17.960488","5.160465","-0.489054","1505","2234","2622","1495","1734","1846","1534","1525","1521","1523","238","-244","2538","914","259",""
"MA200-0416","32357","95","1","1.10","1.4","2023-05-31T09:33:31","120","2023/05/31","09:33:31","-15.78720498085022","35.03442399203777","0.0","17","30","64","83","-2452","8372","-24824","13","150","149.51","113.52","35.98","40.44","28.7","18.81","89980","38.81","DUALSPOT-UV-BLUE-GREEN-RED-IR","554617","629469","906644","42.388276","14.735916","0.011570","582169","823134","765945","32.144874","10.264488","0.011697","679677","840623","816041","27.630596","8.287842","0.009752","697750","871785","861624","22.881806","6.249326","-0.015178","622784","812367","952279","17.983634","5.164267","-0.115902","2366","3852","4644","2052","2894","3289","2180","2743","2985","2176","1768","1615","2848","1476","923",""
"MA200-0416","32358","95","1","1.10","1.4","2023-05-31T09:34:01","120","2023/05/31","09:34:01","-15.787211835384369","35.034421157091856","0.0","17","30","64","83","-2480","8436","-24612","13","150","149.73","113.85","35.88","40.44","28.2","18.51","89980","38.88","DUALSPOT-UV-BLUE-GREEN-RED-IR","555794","630971","908989","42.430672","14.757092","0.011141","579374","819297","762485","32.176796","10.280109","0.013930","679840","840980","816514","27.660884","8.301795","0.014370","698351","872656","862579","22.909568","6.260020","0.010215","623490","813420","953533","18.000958","5.166278","-0.432088","2187","3466","4148","2078","3227","3766","2208","3228","3665","2446","2989","3194","2125","782","242",""
"MA200-0416","32359","95","1","1.10","1.4","2023-05-31T09:34:31","120","2023/05/31","09:34:31","-15.787211835384369","35.03441099449992","0.0","17","30","64","83","-2576","8468","-24236","13","150","150.39","113.94","36.45","40.41","27.7","18.20","89980","38.94","DUALSPOT-UV-BLUE-GREEN-RED-IR","555732","630947","909133","42.463700","14.776585","0.013293","579283","819258","762576","32.207340","10.296078","0.014981","680235","841546","817210","27.690596","8.319975","0.020445","699345","874021","864000","22.934324","6.272673","0.019686","624240","814467","954772","18.009738","5.166207","0.182449","1702","3141","3909","1987","3247","3840","2164","4141","4989","2179","3483","3973","1076","-27","-471",""
"MA200-0416","32360","95","1","1.10","1.4","2023-05-31T09:35:01","120","2023/05/31","09:35:01","-15.787214159965515","35.03441082686186","0.0","17","30","64","83","-2475","8412","-24608","13","150","149.89","113.44","36.46","40.36","27.3","17.91","89980","38.94","DUALSPOT-UV-BLUE-GREEN-RED-IR","555941","631267","909772","42.495216","14.794411","0.012667","579413","819597","762997","32.238812","10.315109","0.017512","677700","838491","814393","27.720890","8.337677","0.019452","699538","874370","864501","22.962248","6.287217","0.020068","621595","811043","950716","18.013844","5.165537","0.105318","1631","2872","3534","2056","3870","4723","2217","4031","4811","2469","4002","4580","505","-256","-563",""
"MA200-0416","32361","95","1","1.10","1.4","2023-05-31T09:35:31","120","2023/05/31","09:35:31","-15.787220537662506","35.03441149368882","0.0","17","30","64","83","-2560","8348","-24652","13","150","150.31","113.73","36.58","40.27","26.9","17.62","89980","38.94","DUALSPOT-UV-BLUE-GREEN-RED-IR","555076","630404","908687","42.527776","14.811592","0.011656","578774","818786","762390","32.270150","10.332949","0.016457","677032","837779","813851","27.751810","8.357698","0.021324","698328","872945","863260","22.989716","6.305283","0.025669","621423","810811","950455","18.015320","5.165761","-0.158235","1681","2758","3334","2042","3615","4356","2257","4544","5529","2423","4954","5911","181","85","47",""
"MA200-0416","32362","95","1","1.10","1.4","2023-05-31T09:36:01","120","2023/05/31","09:36:01","-15.787221848964691","35.034414160996675","0.0","17","30","64","83","-2576","8424","-24572","13","150","150.58","113.64","36.93","40.16","26.6","17.36","89980","38.88","DUALSPOT-UV-BLUE-GREEN-RED-IR","553056","628250","905834","42.580744","14.839348","0.011377","577180","816700","760619","32.314266","10.356636","0.015154","676324","837029","813317","27.792212","8.381534","0.019379","696868","871238","861770","23.027442","6.326753","0.022091","621139","810454","950052","18.019112","5.167857","0.027507","2737","4413","5310","2877","4754","5639","2951","5357","6396","3330","5831","6779","466","792","924",""
"MA200-0416","32363","95","1","1.10","1.4","2023-05-31T09:36:31","120","2023/05/31","09:36:31","-15.787226021289825","35.03441282734275","0.0","17","30","64","83","-2548","8376","-24484","13","150","150.49","113.63","36.86","40.03","26.4","17.11","89980","38.88","DUALSPOT-UV-BLUE-GREEN-RED-IR","551798","626954","904118","42.621096","14.860058","0.011071","579983","820818","764644","32.354950","10.379650","0.016153","678562","839957","816389","27.830636","8.403773","0.019007","696278","870621","861337","23.062400","6.349152","0.024873","621750","811227","950929","18.019150","5.169575","0.055211","2085","3299","3949","2654","4627","5560","2807","5008","5960","3086","6096","7239","4","651","911",""
"MA200-0416","32364","95","1","1.10","1.4","2023-05-31T09:37:01","120","2023/05/31","09:37:01","-15.787224650382996","35.03440982848406","0.0","17","30","64","83","-2404","8400","-24716","13","150","149.64","113.95","35.68","39.94","26.4","17.03","89980","38.88","DUALSPOT-UV-BLUE-GREEN-RED-IR","554756","630555","909628","42.685132","14.888393","0.009093","578539","819075","763278","32.417564","10.406763","0.011121","677398","838785","815455","27.887760","8.430667","0.015029","699964","875508","866396","23.114938","6.375038","0.019117","624223","814512","954916","18.031074","5.177276","0.033187","3300","4663","5394","4073","5632","6370","4161","6257","7164","4625","7277","8288","1461","3014","3640",""
"MA200-0416","32365","95","1","1.10","1.4","2023-05-31T09:37:31","120","2023/05/31","09:37:31","-15.787227392196655","35.03440199419856","0.0","17","30","64","83","-2555","8408","-24619","13","150","150.17","113.09","37.09","39.88","26.5","17.08","89980","38.81","DUALSPOT-UV-BLUE-GREEN-RED-IR","553572","629518","908400","42.766476","14.922153","0.006775","577437","817919","762412","32.497414","10.439098","0.007910","678761","840818","817734","27.960504","8.461762","0.010846","697578","872815","863962","23.177722","6.403190","0.014526","622933","812935","953182","18.055352","5.190806","0.027437","4224","5346","5948","5234","6463","7045","5340","6961","7664","5569","7615","8396","2998","5096","5942",""
"MA200-0416","32366","95","1","1.10","1.4","2023-05-31T09:38:01","120","2023/05/31","09:38:01","-15.787236988544464","35.03439649194479","0.0","17","30","64","82","-2528","8404","-24644","13","150","150.11","113.85","36.26","39.85","26.9","17.24","89976","38.81","DUALSPOT-UV-BLUE-GREEN-RED-IR","550991","626759","904652","42.826904","14.948242","0.008247","575050","814737","759607","32.552514","10.461344","0.008686","674806","836149","813278","28.009770","8.480412","0.007601","695401","870293","861612","23.221742","6.421613","0.013034","622079","811828","952001","18.071606","5.201261","0.032578","3117","4225","4820","3587","4547","5002","3592","4270","4564","3879","5097","5563","1994","4027","4849",""
"MA200-0416","32367","95","1","1.10","1.4","2023-05-31T09:38:31","120","2023/05/31","09:38:31","-15.787234365940094","35.034398820251226","0.0","16","30","64","83","-2552","8448","-24396","13","150","150.32","113.18","37.14","39.85","27.2","17.43","89976","38.75","DUALSPOT-UV-BLUE-GREEN-RED-IR","551762","627985","906782","42.914856","14.985924","0.007445","576078","816596","761559","32.623574","10.487206","0.004245","674563","836211","813491","28.070802","8.500845","0.001000","695419","870605","862089","23.273508","6.440788","0.006493","621576","811321","951556","18.102748","5.215564","0.019854","4564","5959","6707","4654","5162","5402","4477","4567","4606","4588","5179","5405","3843","5379","6000",""
"MA200-0416","32368","95","1","1.10","1.4","2023-05-31T09:39:01","120","2023/05/31","09:39:01","-15.787228226661682","35.03439682349563","0.0","16","30","64","82","-2500","8392","-24308","13","150","149.76","113.60","36.16","39.87","27.4","17.60","89976","38.75","DUALSPOT-UV-BLUE-GREEN-RED-IR","551600","627959","906987","42.971384","15.012211","0.009650","576034","816748","761774","32.663024","10.501297","0.004670","677009","839418","816711","28.103512","8.510728","-0.002795","695247","870556","862087","23.302344","6.450641","0.003959","621278","811058","951358","18.126290","5.226706","0.022418","2922","4269","4993","2574","2888","3037","2390","2269","2216","2546","2733","2805","2894","4304","4876",""
"MA200-0416","32369","95","1","1.10","1.4","2023-05-31T09:39:31","120","2023/05/31","09:39:31","-15.787223815917969","35.0344018265605","0.0","16","30","64","82","-2548","8452","-24708","13","150","150.30","113.74","36.57","39.91","27.6","17.75","89976","38.81","DUALSPOT-UV-BLUE-GREEN-RED-IR","551582","628071","907280","43.009460","15.029778","0.009318","575675","816357","761458","32.686668","10.507126","-0.016017","677274","839899","817195","28.124408","8.513654","-0.150992","696128","871794","863333","23.317226","6.450742","0.164316","621232","811106","951482","18.146924","5.234370","0.009872","1966","2821","3281","1541","1181","1011","1525","664","290","1312","27","-463","2534","2927","3087",""
"MA200-0416","32370","95","1","1.10","1.4","2023-05-31T09:40:01","120","2023/05/31","09:40:01","-15.787221014499664","35.034410160034895","0.0","16","30","64","82","-2540","8404","-24656","13","150","149.33","113.33","36.00","39.95","27.9","17.92","89976","38.81","DUALSPOT-UV-BLUE-GREEN-RED-IR","551645","628281","907734","43.042076","15.043945","0.008386","575946","816885","761958","32.707062","10.510326","-0.089545","674364","836414","813775","28.139916","8.513558","0.112533","696978","872949","864469","23.330196","6.450331","0.125276","621322","811364","951840","18.169216","5.241110","-0.004009","1690","2311","2645","1333","659","339","1136","-21","-524","1148","-114","-597","2748","2615","2561",""
"MA200-0416","32371","95","1","1.10","1.4","2023-05-31T09:40:31","120","2023/05/31","09:40:31","-15.787213504314423","35.03442149236798","0.0","16","30","64","82","-2420","8433","-24766","13","150","149.34","113.42","35.92","40.02","27.9","18.01","89972","38.81","DUALSPOT-UV-BLUE-GREEN-RED-IR","552032","628837","908687","43.078716","15.060898","0.009629","576444","817726","762769","32.725850","10.514671","-0.020143","674727","836984","814341","28.156792","8.514763","0.356754","697274","873457","864950","23.340486","6.446755","0.065419","621133","811280","951782","18.195458","5.247891","-0.019161","1897","2772","3242","1227","896","740","1235","278","-136","910","-998","-1727","3232","2637","2396",""
"MA200-0416","32372","95","1","1.10","1.4","2023-05-31T09:41:01","120","2023/05/31","09:41:01","-15.787207782268524","35.03443382680416","0.0","16","30","64","82","-2516","8520","-24641","13","150","150.56","113.84","36.71","40.07","27.7","17.92","89976","38.81","DUALSPOT-UV-BLUE-GREEN-RED-IR","548333","624786","903006","43.122592","15.081295","0.009377","577520","819394","764375","32.752094","10.523964","0.003844","674755","837155","814586","28.177394","8.519794","-0.018955","697505","873841","865349","23.354996","6.447238","0.222124","621012","811316","951889","18.224820","5.253653","-0.067076","2263","3263","3800","1709","1876","1955","1502","1137","979","1278","131","-305","3602","2192","1621",""
"MA200-0416","32373","95","1","1.10","1.4","2023-05-31T09:41:31","120","2023/05/31","09:41:31","-15.787209868431091","35.03442915901542","0.0","16","30","64","82","-2479","8437","-24866","13","150","150.08","113.54","36.53","40.08","27.4","17.76","89972","38.75","DUALSPOT-UV-BLUE-GREEN-RED-IR","552674","629825","910427","43.157568","15.097832","0.009718","576906","818607","763733","32.769992","10.530193","0.003277","674352","836741","814179","28.193156","8.522673","-0.057758","696857","873154","864653","23.367730","6.447750","0.248265","620619","810970","951497","18.249340","5.257402","-0.153706","1809","2658","3115","1168","1264","1309","1152","654","438","1125","140","-234","3016","1433","792",""
"MA200-0416","32374","95","1","1.10","1.4","2023-05-31T09:42:01","120","2023/05/31","09:42:01","-15.787214457988739","35.03442882746458","0.0","16","30","64","82","-2504","8404","-24684","13","150","150.03","113.92","36.11","40.07","27.0","17.54","89968","38.75","DUALSPOT-UV-BLUE-GREEN-RED-IR","552227","629370","909959","43.188060","15.113914","0.011701","576553","818173","763401","32.789502","10.539963","0.014057","674385","836907","814378","28.211030","8.531357","0.015351","696827","873204","864766","23.380406","6.450498","-0.033127","621124","811714","952426","18.266060","5.258692","0.929389","1572","2616","3178","1269","2005","2354","1302","1996","2297","1116","763","629","2050","498","-128",""
"MA200-0416","32375","95","1","1.10","1.4","2023-05-31T09:42:31","120","2023/05/31","09:42:31","-15.78721672296524","35.03443432599306","0.0","16","30","64","82","-2337","8466","-25350","13","150","150.21","113.79","36.42","40.03","26.7","17.33","89972","38.75","DUALSPOT-UV-BLUE-GREEN-RED-IR","552085","629321","910018","43.218636","15.130817","0.012219","576444","818081","763417","32.810666","10.551239","0.015084","674354","836902","814507","28.228034","8.540745","0.018058","697042","873562","865136","23.396650","6.457710","0.014892","621425","812223","953018","18.280922","5.261460","-0.077710","1578","2725","3344","1378","2295","2729","1240","2140","2530","1432","1986","2198","1824","1061","753",""
"MA200-0416","32376","95","1","1.10","1.4","2023-05-31T09:43:01","120","2023/05/31","09:43:01","-15.787217378616333","35.034438490867615","0.0","16","30","64","82","-2384","8376","-24924","13","150","149.99","113.77","36.21","39.98","26.5","17.14","89972","38.81","DUALSPOT-UV-BLUE-GREEN-RED-IR","551448","628656","909189","43.243784","15.144821","0.012388","575843","817315","762821","32.833390","10.565140","0.017547","674466","837098","814837","28.250640","8.554871","0.020535","697168","873776","865455","23.414584","6.468737","0.024040","621648","812590","953431","18.289382","5.262368","-0.733424","1298","2271","2796","1480","2845","3493","1649","3238","3929","1581","3055","3617","1038","350","72",""
"MA200-0416","32377","95","1","1.10","1.4","2023-05-31T09:43:31","120","2023/05/31","09:43:31","-15.787221133708954","35.03442566096783","0.0","16","30","64","82","-2436","8284","-24792","13","150","149.96","113.49","36.48","39.94","26.3","17.01","89968","38.81","DUALSPOT-UV-BLUE-GREEN-RED-IR","551628","628955","909737","43.272308","15.159611","0.011219","575978","817630","763200","32.857944","10.578037","0.014710","674278","836960","814760","28.273816","8.569146","0.020091","696433","872915","864739","23.434966","6.481212","0.023706","621739","812727","953637","18.294842","5.264494","0.012516","1476","2381","2869","1603","2621","3104","1695","3249","3924","1801","3431","4054","671","814","871",""
"MA200-0416","32378","95","1","1.10","1.4","2023-05-31T09:44:01","120","2023/05/31","09:44:01","-15.787220001220703","35.034422159194946","0.0","16","30","64","82","-2440","8364","-24576","13","150","149.80","113.67","36.13","39.93","26.4","17.05","89972","38.81","DUALSPOT-UV-BLUE-GREEN-RED-IR","550670","627968","908375","43.295032","15.170597","0.010281","575340","816824","762504","32.882240","10.589554","0.012777","673748","836371","814280","28.295788","8.580012","0.015682","696665","873265","865167","23.454666","6.491685","0.020542","621716","812665","953575","18.295806","5.266830","0.049346","1174","1786","2116","1584","2362","2732","1604","2496","2885","1738","2908","3355","118","903","1220",""
"MA200-0416","32379","95","1","1.10","1.4","2023-05-31T09:44:31","120","2023/05/31","09:44:31","-15.787220537662506","35.03439582511783","0.0","16","30","64","82","-2420","8412","-24692","13","150","150.11","113.93","36.19","39.93","26.6","17.15","89968","38.75","DUALSPOT-UV-BLUE-GREEN-RED-IR","550479","627825","908288","43.319012","15.181084","0.008476","575279","816797","762552","32.904328","10.598928","0.010079","676053","839354","817273","28.316536","8.588273","0.009424","695091","871392","863374","23.472934","6.501383","0.020511","620841","811486","952248","18.297306","5.270144","0.048821","1236","1702","1953","1437","1920","2150","1512","1895","2062","1608","2688","3102","183","1279","1722",""
"MA200-0416","32380","95","1","1.10","1.4","2023-05-31T09:45:01","120","2023/05/31","09:45:01","-15.787210524082184","35.03439632803202","0.0","16","30","64","82","-2562","8358","-24600","13","150","150.01","113.78","36.22","39.93","26.7","17.24","89968","38.75","DUALSPOT-UV-BLUE-GREEN-RED-IR","549663","627050","907328","43.350384","15.194328","0.007711","574525","815945","761869","32.931640","10.608675","0.004594","673077","835807","813915","28.341092","8.597399","0.006835","694214","870453","862542","23.493978","6.509113","0.007473","620263","810815","951526","18.306594","5.275645","0.029891","1619","2147","2432","1779","1994","2096","1791","2091","2222","1855","2141","2250","1140","2121","2518",""
"MA200-0416","32381","95","1","1.10","1.4","2023-05-31T09:45:31","120","2023/05/31","09:45:31","-15.78720885515213","35.03440349176526","0.0","16","30","64","82","-2456","8288","-24704","13","150","150.56","113.92","36.64","39.97","27.0","17.40","89964","38.75","DUALSPOT-UV-BLUE-GREEN-RED-IR","549463","626936","907278","43.393368","15.210251","0.004363","573949","815260","761311","32.967334","10.620708","0.002012","675395","838865","816937","28.371022","8.605785","-0.007999","694457","870848","862977","23.518832","6.516677","-0.003418","620111","810684","951431","18.324790","5.283924","0.020092","2216","2552","2733","2322","2434","2487","2181","1900","1777","2188","2071","2025","2231","3156","3531",""
"MA200-0416","32382","95","1","1.10","1.4","2023-05-31T09:46:01","120","2023/05/31","09:46:01","-15.787198841571808","35.03440282866359","0.1","16","30","64","82","-2456","8364","-24568","13","150","149.76","113.33","36.44","40.00","27.2","17.54","89964","38.69","DUALSPOT-UV-BLUE-GREEN-RED-IR","548482","625975","906080","43.433984","15.227928","0.008118","577441","820430","766202","32.997162","10.629333","-0.005287","674849","838386","816507","28.397294","8.611555","-0.029398","693993","870464","862620","23.539796","6.520456","-0.065824","619558","810072","950802","18.345184","5.291704","0.011321","2105","2849","3251","1951","1754","1661","1924","1314","1049","1856","1040","728","2513","2982","3172",""
"MA200-0416","32383","95","1","1.10","1.4","2023-05-31T09:46:31","120","2023/05/31","09:46:31","-15.78720086812973","35.03440949693322","0.0","16","30","64","82","-2536","8488","-24584","13","150","149.93","113.90","36.02","40.06","27.3","17.70","89964","38.69","DUALSPOT-UV-BLUE-GREEN-RED-IR","545797","624012","904152","43.672800","15.319630","0.005681","575195","818459","765013","33.193386","10.698559","0.004390","672024","835947","814710","28.565156","8.666981","0.002087","689947","866325","858993","23.680744","6.565356","0.000426","620270","811729","953164","18.459182","5.329376","0.003223","12314","14953","16378","12770","14247","14949","12234","12775","13010","12414","12506","12541","13980","14610","14865",""
"MA200-0416","32384","95","1","1.10","1.4","2023-05-31T09:47:01","120","2023/05/31","09:47:01","-15.787203013896942","35.03441099449992","0.0","16","30","64","82","-2528","8492","-24496","13","150","149.90","113.52","36.37","40.11","27.4","17.79","89960","38.69","DUALSPOT-UV-BLUE-GREEN-RED-IR","546168","624804","905677","43.815356","15.375145","0.005689","575461","819270","765910","33.302608","10.734911","0.001629","672635","837115","815993","28.662874","8.697487","-0.001331","691715","868930","861669","23.759696","6.586468","-0.012486","620989","812948","954753","18.529640","5.351398","-0.001918","7375","8965","9824","7132","7409","7541","7146","6963","6883","6977","5823","5381","8669","8458","8372",""
"MA200-0416","32385","95","1","1.10","1.4","2023-05-31T09:47:31","120","2023/05/31","09:47:31","-15.787204384803772","35.03441382572055","0.0","16","30","64","81","-2504","8480","-24604","13","150","149.90","113.56","36.33","40.15","27.4","17.80","89968","38.69","DUALSPOT-UV-BLUE-GREEN-RED-IR","541852","622993","906107","44.652640","15.706673","0.006008","571567","817392","766232","34.022000","11.003328","0.005799","668270","835113","815889","29.299894","8.925177","0.004925","688283","867660","862028","24.298944","6.772279","0.003973","618324","811721","954562","18.937858","5.484693","0.001493","43304","53597","59182","46960","54769","58502","46570","52030","54422","47639","51311","52729","50214","51252","51675",""
"MA200-0416","32386","95","1","1.10","1.4","2023-05-31T09:48:01","120","2023/05/31","09:48:01","-15.787207782268524","35.03441799432039","0.0","16","30","64","82","-2608","8336","-24240","13","150","149.92","113.93","36.00","40.17","27.1","17.68","89968","38.75","DUALSPOT-UV-BLUE-GREEN-RED-IR","542717","624289","908267","44.729144","15.740570","0.008563","568273","812962","762239","34.075212","11.023737","0.007050","668270","835368","816281","29.345004","8.940745","0.003996","688417","868119","862567","24.336234","6.780761","-0.026081","618272","811878","954880","18.979366","5.496177","-0.011177","3944","5531","6392","3462","4203","4557","3287","3590","3723","3283","2364","2008","5089","4456","4198",""
"MA200-0416","32387","95","1","1.10","1.4","2023-05-31T09:48:31","120","2023/05/31","09:48:31","-15.787212014198303","35.03442098945379","0.0","16","30","64","81","-2528","8448","-24756","13","150","149.70","113.92","35.77","40.18","26.8","17.52","89964","38.75","DUALSPOT-UV-BLUE-GREEN-RED-IR","542855","624847","909543","44.828732","15.782013","0.007454","568135","813236","762752","34.148956","11.051334","0.006465","665912","832799","813956","29.408110","8.961422","0.001997","689715","870121","864698","24.387562","6.794452","-0.010819","615593","808676","951248","19.026100","5.506609","-0.036076","5134","6804","7711","4798","5718","6158","4598","4798","4885","4520","3839","3576","5730","4073","3398",""
"MA200-0416","32388","95","1","1.10","1.4","2023-05-31T09:49:01","120","2023/05/31","09:49:01","-15.787215292453766","35.034411665052176","0.0","16","30","64","82","-2444","8488","-24408","13","150","149.63","113.76","35.87","40.17","26.6","17.34","89964","38.81","DUALSPOT-UV-BLUE-GREEN-RED-IR","543090","625391","910670","44.927752","15.824806","0.008101","568531","814065","763737","34.225308","11.082233","0.008634","665693","832790","814128","29.474846","8.987648","0.008880","689549","870146","864878","24.444168","6.814074","0.004957","615521","808836","951499","19.072762","5.518526","-0.019127","5112","7007","8038","4975","6386","7062","4870","6070","6597","4992","5488","5680","5729","4641","4198",""
"MA200-0416","32389","95","1","1.10","1.4","2023-05-31T09:49:31","120","2023/05/31","09:49:31","-15.78721833229065","35.03441399335861","0.0","16","30","64","82","-2480","8364","-24852","13","150","149.58","114.22","35.36","40.14","26.4","17.19","89964","38.81","DUALSPOT-UV-BLUE-GREEN-RED-IR","538260","620267","903557","45.035020","15.868191","0.007132","568621","814645","764527","34.311424","11.114664","0.007068","665911","833451","815053","29.549718","9.017903","0.010330","689672","870699","865574","24.505848","6.836051","0.007061","616239","810038","953019","19.115428","5.530517","-0.007797","5515","7206","8126","5589","6799","7378","5442","7103","7833","5417","6235","6551","5218","4737","4541",""
