"Serial number","Datum ID","Session ID","Data format version","Firmware version","App version","Date / time local","Timezone offset (mins)","Date local (yyyy/MM/dd)","Time local (hh:mm:ss)","GPS lat (ddmm.mmmmm)","GPS long (dddmm.mmmmm)","GPS speed (km/h)","GPS sat count","Timebase (s)","Status","Battery remaining (%)","Accel X","Accel Y","Accel Z","Tape position","Flow setpoint (mL/min)","Flow total (mL/min)","Flow1 (mL/min)","Flow2 (mL/min)","Sample temp (C)","Sample RH (%)","Sample dewpoint (C)","Internal pressure (Pa)","Internal temp (C)","Optical config","UV Sen1","UV Sen2","UV Ref","UV ATN1","UV ATN2","UV K","Blue Sen1","Blue Sen2","Blue Ref","Blue ATN1","Blue ATN2","Blue K","Green Sen1","Green Sen2","Green Ref","Green ATN1","Green ATN2","Green K","Red Sen1","Red Sen2","Red Ref","Red ATN1","Red ATN2","Red K","IR Sen1","IR Sen2","IR Ref","IR ATN1","IR ATN2","IR K","UV BC1","UV BC2","UV BCc","Blue BC1","Blue BC2","Blue BCc","Green BC1","Green BC2","Green BCc","Red BC1","Red BC2","Red BCc","IR BC1","IR BC2","IR BCc","Readable status"
"MA200-0416","25280","68","1","1.10","1.4","2023-05-14T08:45:30","120","2023/05/14","08:45:30","-15.795632004737854","35.00289283297025","0.0","11","30","194","91","-24391","2308","-7375","5","150","158.69","126.86","31.83","24.27","55.5","14.79","90628","23.38","DUALSPOT-UV-BLUE-GREEN-RED-IR","838556","719684","882657","0.000000","0.000000","0.000000","771608","876483","726783","0.000000","0.000000","0.000000","863343","880353","777186","0.000000","0.000000","0.000000","822595","872208","801822","0.000000","0.000000","0.000000","729801","837014","926408","0.000000","0.000000","0.000000","","","","","","","","","","","","","","","","Start up-Flow unstable"
"MA200-0416","25281","68","1","1.10","1.4","2023-05-14T08:46:00","120","2023/05/14","08:46:00","-15.79561859369278","35.00289649958722","0.1","12","30","66","91","-24260","2400","-7475","5","150","150.43","118.93","31.49","24.39","55.6","14.92","90640","23.75","DUALSPOT-UV-BLUE-GREEN-RED-IR","856244","735658","902620","0.000000","0.000000","0.000000","810997","921837","764541","0.000000","0.000000","0.000000","904066","922415","814555","0.000000","0.000000","0.000000","887225","941087","865341","0.000000","0.000000","0.000000","748956","859417","951317","0.000000","0.000000","0.000000","","","","","","","","","","","","","","","","Start up"
"MA200-0416","25282","68","1","1.10","1.4","2023-05-14T08:46:30","120","2023/05/14","08:46:30","-15.795621871948242","35.002890333067626","0.1","12","30","66","91","-24664","2200","-6060","5","150","149.83","118.73","31.10","24.48","55.4","14.96","90636","24.00","DUALSPOT-UV-BLUE-GREEN-RED-IR","861706","741131","909704","0.000000","0.000000","0.000000","809925","921242","764191","0.000000","0.000000","0.000000","907126","926008","817891","0.000000","0.000000","0.000000","885366","939530","863994","0.000000","0.000000","0.000000","751871","863091","955474","0.000000","0.000000","0.000000","","","","","","","","","","","","","","","","Start up"
"MA200-0416","25283","68","1","1.10","1.4","2023-05-14T08:47:00","120","2023/05/14","08:47:00","-15.79562383890152","35.002871999749914","0.1","12","30","66","91","-24748","1927","-6344","5","150","149.43","118.15","31.28","24.57","55.2","14.98","90632","24.19","DUALSPOT-UV-BLUE-GREEN-RED-IR","857588","738469","906676","0.000000","0.000000","0.000000","807333","918897","762357","0.000000","0.000000","0.000000","904001","923326","815561","0.000000","0.000000","0.000000","882391","936766","861488","0.000000","0.000000","0.000000","748867","859771","951903","0.000000","0.000000","0.000000","","","","","","","","","","","","","","","","Start up"
"MA200-0416","25284","68","1","1.10","1.4","2023-05-14T08:47:30","120","2023/05/14","08:47:30","-15.795640170574188","35.002861166140065","0.1","12","30","66","91","-24728","1896","-6324","5","150","149.96","118.10","31.86","24.65","54.9","14.99","90628","24.31","DUALSPOT-UV-BLUE-GREEN-RED-IR","858588","740329","909327","0.000000","0.000000","0.000000","808237","920551","763880","0.000000","0.000000","0.000000","904397","924189","816442","0.000000","0.000000","0.000000","884586","939475","864071","0.000000","0.000000","0.000000","750011","861353","953695","0.000000","0.000000","0.000000","","","","","","","","","","","","","","","","Start up"
"MA200-0416","25285","68","1","1.10","1.4","2023-05-14T08:48:00","120","2023/05/14","08:48:00","-15.795638859272003","35.00288233277388","0.0","12","30","64","90","-24912","-336","-5996","5","150","149.94","118.71","31.23","24.72","54.9","15.04","90632","24.44","DUALSPOT-UV-BLUE-GREEN-RED-IR","852574","736147","904568","0.000000","0.000000","0.000000","809427","922571","765737","0.000000","0.000000","0.000000","905545","925877","818050","0.000000","0.000000","0.000000","886570","941955","866435","0.000000","0.000000","0.000000","751399","863179","955805","0.000000","0.000000","0.000000","","","","","","","","","","","","","","","",""
"MA200-0416","25286","68","1","1.10","1.4","2023-05-14T08:48:30","120","2023/05/14","08:48:30","-15.795927464962006","35.00285299937241","2.1","12","30","64","90","-24920","368","-5676","5","150","150.03","118.50","31.53","24.78","54.6","15.02","90636","24.50","DUALSPOT-UV-BLUE-GREEN-RED-IR","853562","737770","906854","0.138074","0.032653","0.000000","804889","917946","762067","0.082588","0.019384","0.000000","901562","922254","814987","0.064831","0.016612","0.000000","882745","938229","863069","0.048828","0.011396","0.000000","747581","859026","951259","0.033424","0.007444","0.000000","6844","6082","6844","5166","4557","5166","4542","4373","4542","4134","3626","4134","3940","3298","3940",""
"MA200-0416","25287","68","1","1.10","1.4","2023-05-14T08:49:00","120","2023/05/14","08:49:00","-15.796110272407532","35.002988499589264","2.2","12","30","64","90","-24624","1408","-7020","5","150","149.92","118.57","31.35","24.85","54.2","14.96","90640","24.56","DUALSPOT-UV-BLUE-GREEN-RED-IR","855253","739996","909856","0.272474","0.063646","0.000000","806402","920234","764116","0.163298","0.040822","0.000000","901634","922808","815592","0.127565","0.032263","0.000000","883463","939351","864194","0.098252","0.024127","0.000000","747918","859645","952037","0.065921","0.014150","0.000000","6657","5805","6657","5046","5068","5046","4392","4144","4392","4182","4073","4182","3828","2987","3828",""
"MA200-0416","25288","68","1","1.10","1.4","2023-05-14T08:49:30","120","2023/05/14","08:49:30","-15.796179175376892","35.003444499801844","0.1","12","30","64","90","-24604","959","-7072","5","150","149.46","118.79","30.67","24.90","54.0","14.95","90680","24.63","DUALSPOT-UV-BLUE-GREEN-RED-IR","850174","736461","905804","0.419776","0.095310","0.000000","802214","916117","760870","0.252699","0.060003","0.000000","902730","924413","817155","0.196266","0.046551","0.000000","884912","941298","866098","0.149643","0.033187","0.000000","748884","860931","953528","0.100582","0.021743","0.000000","7283","6064","7283","5579","4636","5579","4801","3867","4801","4340","2963","4340","4075","3458","4075",""
"MA200-0416","25289","68","1","1.10","1.4","2023-05-14T08:50:00","120","2023/05/14","08:50:00","-15.795449078083038","35.00415749941021","7.5","12","30","64","90","-25276","-76","-3269","5","150","149.67","118.83","30.84","24.97","53.7","14.93","90772","24.69","DUALSPOT-UV-BLUE-GREEN-RED-IR","849114","736397","906044","0.570284","0.130931","0.000000","807316","922583","766402","0.345218","0.081884","0.000000","897722","919778","813175","0.269019","0.063377","0.000000","880322","936800","862068","0.204539","0.044882","0.000000","750046","862548","955369","0.135862","0.028476","0.000000","7439","6785","7439","5771","5260","5771","5082","4530","5082","4634","3805","4634","4147","3050","4147",""
"MA200-0416","25290","68","1","1.10","1.4","2023-05-14T08:50:30","120","2023/05/14","08:50:30","-15.792274057865143","35.004223498981446","13.5","12","30","64","90","-24612","-2572","-6524","5","150","149.66","118.38","31.28","25.01","53.3","14.85","90728","24.75","DUALSPOT-UV-BLUE-GREEN-RED-IR","849479","738067","908611","0.801215","0.183700","0.000000","802651","918331","763105","0.492358","0.115936","0.000000","897704","920643","814188","0.387513","0.091075","0.000000","880781","937985","863354","0.294774","0.064354","0.000000","749873","862788","955755","0.199077","0.042459","0.000000","11458","9907","11458","9214","8069","9214","8310","7351","8310","7647","6244","7647","7459","6244","7459",""
"MA200-0416","25291","68","1","1.10","1.4","2023-05-14T08:51:00","120","2023/05/14","08:51:00","-15.789564073085785","35.00467983307317","11.3","12","30","64","89","-25144","-1600","-6312","5","150","150.09","118.54","31.56","25.05","53.0","14.79","90568","24.81","DUALSPOT-UV-BLUE-GREEN-RED-IR","846800","737089","907939","1.042109","0.240652","0.000000","800899","917433","762689","0.653558","0.155395","0.000000","895975","919731","813621","0.514924","0.120997","0.000000","878706","936487","862150","0.394570","0.086820","0.000000","743658","856084","948477","0.265535","0.057539","0.000000","11936","10599","11936","10081","9269","10081","8923","7871","8923","8446","7142","8446","7832","6675","7832",""
"MA200-0416","25292","68","1","1.10","1.4","2023-05-14T08:51:30","120","2023/05/14","08:51:30","-15.788899660110474","35.004873832687736","0.1","12","30","64","90","-25173","-1461","-5223","5","150","149.90","118.34","31.56","25.10","52.6","14.74","90592","24.81","DUALSPOT-UV-BLUE-GREEN-RED-IR","842977","734844","905613","1.243067","0.288616","0.000000","802412","920025","765079","0.778192","0.184816","0.000000","897852","922349","816115","0.612878","0.143867","0.000000","882222","940777","866249","0.470519","0.104022","0.000000","745722","858739","951540","0.311489","0.067606","0.000000","9974","8926","9974","7807","6911","7807","6872","6016","6872","6438","5468","6438","5424","4456","5424",""
"MA200-0416","25293","68","1","1.10","1.4","2023-05-14T08:52:00","120","2023/05/14","08:52:00","-15.788898646831512","35.00487999944016","0.0","12","30","64","89","-24940","-1280","-5404","5","150","149.87","118.63","31.24","25.15","52.5","14.73","90592","24.88","DUALSPOT-UV-BLUE-GREEN-RED-IR","841461","734617","905691","1.431334","0.333532","0.000000","802513","920967","766053","0.893991","0.211549","0.000000","897425","922584","816502","0.704664","0.164264","0.000000","875448","934054","860178","0.537472","0.118488","0.000000","746034","859416","952379","0.356477","0.078900","0.000000","9321","8444","9321","7236","6343","7236","6423","5420","6423","5662","4645","5662","5297","5049","5297",""
"MA200-0416","25294","68","1","1.10","1.4","2023-05-14T08:52:30","120","2023/05/14","08:52:30","-15.78887689113617","35.004873499274254","0.1","12","30","64","89","-24973","-1207","-5119","5","150","150.41","118.84","31.57","25.21","52.5","14.79","90588","24.94","DUALSPOT-UV-BLUE-GREEN-RED-IR","841522","735735","907445","1.615521","0.374809","0.000000","796908","915375","761572","1.009082","0.234460","0.000000","897495","923360","817306","0.794386","0.180214","0.000000","877031","936316","862373","0.608098","0.129991","0.000000","746380","860122","953238","0.400054","0.085254","0.000000","9103","7680","9103","7179","5380","7179","6268","4195","6268","5962","3656","5962","5122","2812","5122",""
"MA200-0416","25295","68","1","1.10","1.4","2023-05-14T08:53:00","120","2023/05/14","08:53:00","-15.786562323570251","35.005289832130075","11.6","12","30","64","89","-24868","-1835","-3639","5","150","150.01","118.79","31.21","25.22","52.4","14.79","90484","25.00","DUALSPOT-UV-BLUE-GREEN-RED-IR","840288","735972","908281","1.840070","0.428529","0.000000","796983","916599","762878","1.156109","0.268865","0.000000","892324","918956","813630","0.912380","0.206369","0.000000","877859","937942","864059","0.699508","0.149607","0.000000","746754","861053","954403","0.462490","0.098941","0.000000","11102","10109","11102","9175","8171","9175","8246","6956","8246","7720","6305","7720","7342","6125","7342",""
"MA200-0416","25296","68","1","1.10","1.4","2023-05-14T08:53:30","120","2023/05/14","08:53:30","-15.785707473754883","35.00537349842489","10.2","12","30","64","89","-25044","-4732","-4120","5","150","150.17","118.41","31.76","25.24","52.2","14.74","0","0.00","DUALSPOT-UV-BLUE-GREEN-RED-IR","839100","736336","909250","2.100113","0.490938","0.000000","795721","916274","762928","1.330834","0.311374","0.000000","890298","917783","812873","1.055055","0.240219","0.000000","875490","936139","862614","0.811791","0.174940","0.000000","745286","859799","953176","0.538549","0.115777","0.000000","12898","11541","12898","10938","9922","10938","10003","8848","10003","9513","8002","9513","8972","7405","8972",""
"MA200-0416","25297","68","1","1.10","1.4","2023-05-14T08:54:00","120","2023/05/14","08:54:00","-15.78541100025177","35.0071473326534","16.3","12","30","64","89","-25416","-2168","-3992","5","150","149.57","118.89","30.67","25.30","52.0","14.74","0","0.00","DUALSPOT-UV-BLUE-GREEN-RED-IR","832704","731751","903993","2.287970","0.534618","0.000000","796625","918141","764650","1.448965","0.338686","0.000000","891089","919239","814321","1.147651","0.260341","0.000000","878405","939778","866061","0.883287","0.188821","0.000000","746597","861666","955306","0.589445","0.126944","0.000000","9280","8364","9280","7365","6601","7365","6465","5446","6465","6033","4540","6033","5980","5085","5980",""
"MA200-0416","25298","68","1","1.10","1.4","2023-05-14T08:54:30","120","2023/05/14","08:54:30","-15.787123620510101","35.01175049971789","14.6","12","30","64","89","-24588","146","-5134","5","150","150.49","119.19","31.30","25.34","51.8","14.71","90504","25.13","DUALSPOT-UV-BLUE-GREEN-RED-IR","833192","733330","906434","2.500072","0.586967","0.000000","797032","919573","766085","1.583635","0.370895","0.000000","891885","920878","815958","1.256161","0.285696","0.000000","872595","934162","861071","0.967305","0.208348","0.000000","747580","863195","957136","0.646354","0.140004","0.000000","10451","9824","10451","8375","7629","8375","7558","6726","7558","7072","6259","7072","6669","5829","6669",""
"MA200-0416","25299","68","1","1.10","1.4","2023-05-14T08:55:00","120","2023/05/14","08:55:00","-15.786914646625519","35.01454783137888","14.1","12","30","64","89","-24784","1084","-5292","5","150","149.84","118.72","31.13","25.38","51.6","14.69","90536","25.19","DUALSPOT-UV-BLUE-GREEN-RED-IR","833437","734897","908862","2.707260","0.636306","0.000000","792176","915106","762667","1.720565","0.402046","0.000000","891252","921141","816446","1.364099","0.309830","0.000000","872275","934622","861654","1.049584","0.225347","0.000000","742619","857889","951428","0.701446","0.152244","0.000000","10250","9310","10250","8550","7418","8550","7548","6436","7548","6953","5479","6953","6482","5493","6482",""
"MA200-0416","25300","68","1","1.10","1.4","2023-05-14T08:55:30","120","2023/05/14","08:55:30","-15.78567636013031","35.016904663294554","20.2","12","30","64","89","-24744","-3168","-6640","5","150","149.85","118.54","31.31","25.43","51.5","14.70","90356","25.19","DUALSPOT-UV-BLUE-GREEN-RED-IR","827543","733250","908282","3.359689","0.796108","-0.031385","787926","913582","762316","2.222675","0.524032","0.000000","882526","915016","811824","1.788735","0.409454","0.000000","870800","935438","863130","1.396703","0.307088","0.000000","741101","857697","951793","0.945953","0.211050","0.000000","32327","29974","29243","31400","28879","31400","29740","26413","29740","29378","26189","29378","28814","26234","28814",""
"MA200-0416","25301","68","1","1.10","1.4","2023-05-14T08:56:00","120","2023/05/14","08:56:00","-15.784759402275085","35.02219666168094","19.4","12","30","64","88","-25492","1364","-2224","5","150","149.81","118.73","31.09","25.46","51.4","14.70","90260","25.19","DUALSPOT-UV-BLUE-GREEN-RED-IR","819711","732034","909130","4.341967","1.040626","-0.015949","782467","912966","763347","3.001004","0.714546","-0.031143","881674","919080","816855","2.453094","0.572395","0.000000","865545","933937","862946","1.938325","0.436580","0.000000","738252","857138","952077","1.332355","0.300893","0.000000","48594","46201","45447","48598","45434","44445","46457","43518","46457","45768","41793","45768","45464","40374","45464",""
"MA200-0416","25302","68","1","1.10","1.4","2023-05-14T08:56:30","120","2023/05/14","08:56:30","-15.7850062251091","35.02513716183603","19.2","12","30","64","88","-25192","-2000","-4316","5","150","149.90","118.54","31.36","25.49","51.3","14.69","90324","25.19","DUALSPOT-UV-BLUE-GREEN-RED-IR","817175","732135","910208","4.845628","1.166568","-0.016066","780426","912811","763833","3.383785","0.810277","-0.022893","879381","918569","816938","2.779483","0.651269","0.000000","864514","934386","863799","2.207076","0.501281","0.000000","737014","856723","951947","1.523370","0.345176","0.000000","24957","23588","23154","23939","22630","22218","22860","20881","22860","22746","20699","22746","22511","19726","22511",""
"MA200-0416","25303","68","1","1.10","1.4","2023-05-14T08:57:00","120","2023/05/14","08:57:00","-15.786354899406433","35.0285509955138","9.4","12","30","64","89","-24980","-2232","-5560","5","150","150.03","118.30","31.73","25.52","51.1","14.66","90216","25.25","DUALSPOT-UV-BLUE-GREEN-RED-IR","813632","731579","910662","5.273204","1.275281","-0.013994","777741","912117","763941","3.698611","0.888633","-0.028356","872510","913414","812939","3.040510","0.716257","-0.034100","863916","935399","865216","2.414683","0.549990","0.000000","736336","857031","952661","1.669717","0.380271","0.000000","21229","20123","19770","19729","18306","17856","18319","17003","16598","17607","15400","17607","17281","15450","17281",""
"MA200-0416","25304","68","1","1.10","1.4","2023-05-14T08:57:30","120","2023/05/14","08:57:30","-15.786353349685669","35.03031149506569","2.4","12","30","64","88","-25240","-672","-5060","5","150","150.49","118.24","32.25","25.54","50.9","14.63","90140","25.25","DUALSPOT-UV-BLUE-GREEN-RED-IR","804919","726781","905968","5.874342","1.427253","-0.018186","776061","912980","765416","4.141313","0.997602","-0.035583","869931","913076","813325","3.409123","0.806051","-0.047714","861661","934922","865337","2.710003","0.621402","0.000000","735349","857099","953152","1.870876","0.428074","0.000000","29861","27679","26978","27755","25049","24190","25881","23117","22260","25057","22216","25057","23765","20707","23765",""
"MA200-0416","25305","68","1","1.10","1.4","2023-05-14T08:58:00","120","2023/05/14","08:58:00","-15.786525547504425","35.03231733292341","11.5","12","30","64","88","-24812","-3371","-5272","5","150","149.61","118.19","31.42","25.58","50.7","14.60","90012","25.25","DUALSPOT-UV-BLUE-GREEN-RED-IR","802014","725158","904353","6.083768","1.479940","-0.012545","774840","912320","765083","4.280090","1.030612","-0.037597","868817","912572","813022","3.520399","0.829529","-0.105021","860988","934717","865308","2.796865","0.638312","0.000000","734467","856400","952480","1.929861","0.441849","0.000000","10407","9849","9669","8704","7788","7498","7816","6204","5706","7373","5399","7373","6971","6124","6971",""
"MA200-0416","25306","68","1","1.10","1.4","2023-05-14T08:58:30","120","2023/05/14","08:58:30","-15.78676301240921","35.03402115777135","5.2","12","30","64","88","-24940","-2768","-4216","5","150","149.96","118.30","31.66","25.61","50.5","14.56","89896","25.31","DUALSPOT-UV-BLUE-GREEN-RED-IR","801841","725662","905232","6.219423","1.513750","-0.016106","774888","912909","765769","4.368019","1.052105","-0.029574","873605","918071","818056","3.591716","0.845802","-0.066596","861702","935904","866472","2.851986","0.650275","0.000000","734840","857090","953345","1.968647","0.449779","0.000000","6735","6271","6122","5510","5031","4879","5005","4266","4039","4674","3790","4674","4580","3498","4580",""
"MA200-0416","25307","68","1","1.10","1.4","2023-05-14T08:59:00","120","2023/05/14","08:59:00","-15.787198007106781","35.03509299457073","2.7","12","30","64","88","-24912","-1100","-5304","5","150","150.16","118.22","31.94","25.63","50.2","14.50","89816","25.31","DUALSPOT-UV-BLUE-GREEN-RED-IR","801695","725785","905496","6.273639","1.526405","-0.034964","768334","905475","759534","4.403698","1.058738","-0.158204","868517","912911","813501","3.621035","0.850892","-0.242303","854012","927665","858880","2.874042","0.652998","0.000000","734298","856571","952749","1.985178","0.451648","0.000000","2693","2327","2209","2237","1539","1318","2059","1322","1096","1871","855","1871","1953","817","1953",""
"MA200-0416","25308","68","1","1.10","1.4","2023-05-14T08:59:30","120","2023/05/14","08:59:30","-15.787233889102936","35.035224322229624","0.0","12","30","64","88","-24744","-2340","-6328","5","150","150.17","118.45","31.72","25.66","50.0","14.48","89812","25.38","DUALSPOT-UV-BLUE-GREEN-RED-IR","803694","727914","908298","6.328532","1.538782","-0.041710","770531","908325","762007","4.440469","1.066995","-0.060791","870239","914956","815338","3.649330","0.856381","-0.154169","857085","931258","862181","2.896428","0.656551","0.000000","735980","858616","955086","2.001369","0.454936","0.000000","2721","2291","2153","2301","1929","1812","1983","1436","1269","1896","1123","1896","1909","1448","1909",""
"MA200-0416","25309","68","1","1.10","1.4","2023-05-14T09:00:00","120","2023/05/14","09:00:00","-15.787230491638184","35.035223323851824","0.0","12","30","64","88","-24750","-2407","-6553","5","150","150.09","118.50","31.60","25.68","50.0","14.47","89808","25.38","DUALSPOT-UV-BLUE-GREEN-RED-IR","805044","729462","910315","6.387484","1.551111","-0.062373","771086","909253","762837","4.480326","1.074558","-0.136487","870498","915478","815871","3.681498","0.862294","-0.185458","857886","932281","863206","2.920833","0.660360","0.000000","731740","853789","949710","2.018484","0.456886","0.000000","2922","2291","2089","2493","1774","1547","2253","1553","1339","2066","1209","2066","2017","861","2017",""
"MA200-0416","25310","68","1","1.10","1.4","2023-05-14T09:00:30","120","2023/05/14","09:00:30","-15.787233233451843","35.03522115573287","0.0","12","30","64","88","-24768","-2312","-6136","5","150","149.39","118.73","30.65","25.72","50.0","14.51","89808","25.44","DUALSPOT-UV-BLUE-GREEN-RED-IR","804863","729520","910530","6.433202","1.563936","0.015973","771950","910494","763924","4.510695","1.080364","-0.114765","870690","915850","816245","3.705001","0.864195","-2.311028","858770","933389","864246","2.939954","0.661981","0.000000","736878","859922","956569","2.032714","0.459869","0.000000","2261","2457","2520","1896","1404","1249","1643","515","171","1615","530","1615","1674","1359","1674",""
"MA200-0416","25311","68","1","1.10","1.4","2023-05-14T09:01:00","120","2023/05/14","09:01:00","-15.787228345870972","35.03522365540266","0.0","12","30","64","88","-24724","-2408","-6344","5","150","150.16","118.85","31.31","25.75","50.1","14.56","89808","25.50","DUALSPOT-UV-BLUE-GREEN-RED-IR","798955","724479","904327","6.479088","1.574173","-0.039101","772673","911542","764833","4.539686","1.086729","-0.061743","871127","916481","816812","3.726834","0.868076","-0.197503","860183","935084","865834","2.956883","0.663352","0.000000","732500","854910","951007","2.045269","0.462589","0.000000","2267","1920","1809","1808","1507","1412","1525","1029","878","1428","439","1428","1475","1213","1475",""
"MA200-0416","25312","68","1","1.10","1.4","2023-05-14T09:01:30","120","2023/05/14","09:01:30","-15.787229359149933","35.035222824662924","0.0","13","30","64","88","-24756","-2244","-6268","5","150","149.92","118.64","31.28","25.78","50.0","14.58","89804","25.56","DUALSPOT-UV-BLUE-GREEN-RED-IR","800811","726382","906821","6.527035","1.587192","0.005838","769194","907649","761630","4.570174","1.092392","-0.138874","867387","912724","813488","3.751934","0.873005","-0.132694","861730","936892","867543","2.973959","0.666100","0.000000","733626","856288","952559","2.057632","0.463927","0.000000","2373","2444","2467","1904","1342","1165","1756","1308","1172","1443","881","1443","1455","597","1455",""
"MA200-0416","25313","68","1","1.10","1.4","2023-05-14T09:02:00","120","2023/05/14","09:02:00","-15.787229478359222","35.0352234877646","0.0","13","30","64","88","-24776","-2340","-6575","5","150","149.96","118.62","31.35","25.82","50.0","14.62","89808","25.63","DUALSPOT-UV-BLUE-GREEN-RED-IR","803596","729248","910533","6.588453","1.601451","-0.029017","770231","909131","762921","4.604530","1.098281","-0.185989","868652","914299","814911","3.779566","0.876826","-0.433288","856944","931882","862900","2.994686","0.667888","0.000000","734677","857648","954102","2.073902","0.466499","0.000000","3041","2671","2553","2147","1392","1156","1934","1011","733","1753","572","1753","1916","1146","1916",""
"MA200-0416","25314","68","1","1.10","1.4","2023-05-14T09:02:30","120","2023/05/14","09:02:30","-15.78722882270813","35.03522048890591","0.0","13","30","64","88","-24740","-2312","-6168","5","150","149.49","118.26","31.22","25.86","50.0","14.64","89804","25.63","DUALSPOT-UV-BLUE-GREEN-RED-IR","802800","728804","910102","6.641507","1.614461","-0.015638","769932","909024","762866","4.638004","1.104808","-0.112692","868120","913899","814587","3.804951","0.879508","-0.933079","856717","931769","862832","3.014457","0.670928","-0.385135","734359","857350","953780","2.087474","0.468846","0.000000","2634","2447","2387","2098","1549","1378","1782","713","391","1677","976","776","1603","1050","1603",""
"MA200-0416","25315","68","1","1.10","1.4","2023-05-14T09:03:00","120","2023/05/14","09:03:00","-15.787227392196655","35.03523148968816","0.0","13","30","64","87","-24796","-2461","-6307","5","150","150.56","118.54","32.02","25.90","49.9","14.66","89800","25.69","DUALSPOT-UV-BLUE-GREEN-RED-IR","799583","726169","906897","6.688003","1.625715","-0.023787","767742","906639","760944","4.665971","1.112037","-0.012811","869675","915690","816243","3.826517","0.884223","-0.086056","858736","934144","865045","3.031963","0.672591","-1.646822","735718","859029","955671","2.100839","0.470426","0.000000","2303","2064","1987","1748","1673","1650","1510","1222","1136","1481","521","247","1574","689","1574",""
"MA200-0416","25316","68","1","1.10","1.4","2023-05-14T09:03:30","120","2023/05/14","09:03:30","-15.787258207798004","35.035628993064165","3.6","13","30","64","88","-24664","-1680","-4832","5","150","150.09","118.85","31.24","25.93","49.9","14.66","89764","25.75","DUALSPOT-UV-BLUE-GREEN-RED-IR","799442","726265","907120","6.732734","1.637029","-0.007781","768162","907328","761568","4.694611","1.117223","-0.146949","870007","916234","816749","3.848600","0.888085","-0.200028","860828","936509","867242","3.047802","0.674170","-1.286615","731194","853852","949928","2.113992","0.472693","0.000000","2210","2127","2100","1786","1230","1057","1542","1026","871","1337","507","271","1545","1013","1545",""
"MA200-0416","25317","68","1","1.10","1.4","2023-05-14T09:04:00","120","2023/05/14","09:04:00","-15.786161541938782","35.036194156855345","2.3","13","30","64","87","-24892","431","-5756","5","150","149.50","118.49","31.01","25.97","49.7","14.65","89732","25.81","DUALSPOT-UV-BLUE-GREEN-RED-IR","801617","728499","910087","6.782884","1.650281","0.001853","768787","908329","762440","4.724645","1.123315","-0.088661","871103","917541","817979","3.873592","0.893789","-0.051531","856143","931616","862710","3.064749","0.675589","-2.233181","732500","855479","951802","2.128410","0.475200","0.000000","2486","2509","2517","1879","1456","1324","1751","1527","1459","1434","458","182","1699","1129","1699",""
"MA200-0416","25318","68","1","1.10","1.4","2023-05-14T09:04:30","120","2023/05/14","09:04:30","-15.786281526088715","35.03660999238491","2.6","13","30","64","88","-25304","-2068","-3944","5","150","149.81","118.96","30.85","26.02","49.6","14.67","89724","25.81","DUALSPOT-UV-BLUE-GREEN-RED-IR","802182","729402","911346","6.849120","1.666635","-0.009888","769832","909852","763782","4.765600","1.132589","-0.041906","866603","913102","814043","3.904032","0.898295","-0.322706","856128","931787","862922","3.089845","0.679285","-0.401998","732754","855884","952282","2.144638","0.478224","0.000000","3270","3113","3062","2552","2228","2127","2124","1212","940","2116","1201","943","1905","1369","1905",""
"MA200-0416","25319","68","1","1.10","1.4","2023-05-14T09:05:00","120","2023/05/14","09:05:00","-15.78628659248352","35.036657489836216","0.1","13","30","64","87","-24968","-1292","-5076","5","150","150.01","119.08","30.93","26.05","49.5","14.67","89724","25.88","DUALSPOT-UV-BLUE-GREEN-RED-IR","792880","721627","901940","6.969495","1.699094","0.006891","768393","908746","763031","4.846662","1.153404","-0.003139","865287","912221","813378","3.970235","0.914538","-0.019537","855327","931298","862557","3.141990","0.691294","-0.054074","731689","854917","951281","2.182912","0.487654","0.000000","5937","6164","6237","5046","4989","4971","4615","4360","4283","4393","3895","3755","4490","4259","4490",""
"MA200-0416","25320","68","1","1.10","1.4","2023-05-14T09:05:30","120","2023/05/14","09:05:30","-15.786253869533539","35.036666322499514","0.1","13","30","64","88","-24984","-1428","-5240","5","150","149.56","118.88","30.68","26.08","49.4","14.65","89724","25.88","DUALSPOT-UV-BLUE-GREEN-RED-IR","796271","725295","906697","7.073871","1.721891","-0.036048","770386","911605","765515","4.917616","1.167757","-0.080470","866628","914026","815048","4.027051","0.924658","-0.167023","858012","934591","865672","3.187776","0.698745","-0.281785","733334","857077","953741","2.216253","0.493491","0.000000","5157","4364","4109","4424","3468","3170","3967","2738","2372","3864","2436","2035","3917","2657","3917",""
"MA200-0416","25321","68","1","1.10","1.4","2023-05-14T09:06:00","120","2023/05/14","09:06:00","-15.786197543144226","35.036705657839775","0.5","13","30","64","87","-24992","-1288","-5000","5","150","149.37","118.64","30.73","26.12","49.3","14.67","89724","25.94","DUALSPOT-UV-BLUE-GREEN-RED-IR","796702","726195","908005","7.169096","1.745483","-0.008502","765500","906201","761065","4.977619","1.180959","-0.049381","867372","915141","816142","4.075187","0.934225","-0.106140","859536","936514","867499","3.223886","0.704669","-0.274022","734079","858117","954943","2.243168","0.499647","0.000000","4714","4509","4443","3749","3185","3009","3368","2584","2351","3053","1934","1621","3169","2798","3169",""
"MA200-0416","25322","68","1","1.10","1.4","2023-05-14T09:06:30","120","2023/05/14","09:06:30","-15.786217272281647","35.03666382282972","0.1","13","30","64","87","-24884","-1428","-5328","5","150","149.90","118.73","31.16","26.15","49.2","14.66","89728","26.00","DUALSPOT-UV-BLUE-GREEN-RED-IR","796173","726127","908154","7.248164","1.765783","-0.004082","766138","907337","762137","5.029315","1.192670","-0.043446","867059","915115","816190","4.116905","0.942367","-0.120927","853130","929738","861270","3.254352","0.710189","-0.201603","734078","858254","955149","2.264837","0.503519","0.000000","3911","3826","3798","3227","2786","2648","2917","2169","1947","2574","1777","1554","2549","1735","2549",""
"MA200-0416","25323","68","1","1.10","1.4","2023-05-14T09:07:00","120","2023/05/14","09:07:00","-15.786254048347473","35.03670249134302","0.0","13","30","64","87","-24828","-1392","-5348","5","150","149.76","119.06","30.70","26.19","49.2","14.69","89732","26.00","DUALSPOT-UV-BLUE-GREEN-RED-IR","797391","727715","910298","7.330981","1.785121","-0.019438","766939","908694","763307","5.078864","1.202302","-0.093672","867396","915782","816843","4.155469","0.948554","-0.230823","854113","931060","862541","3.283359","0.713324","-0.875970","734279","858653","955619","2.286365","0.507566","0.000000","4085","3699","3575","3085","2325","2090","2689","1673","1372","2444","1024","630","2525","1841","2525",""
"MA200-0416","25324","68","1","1.10","1.4","2023-05-14T09:07:30","120","2023/05/14","09:07:30","-15.786263823509216","35.03670398890972","0.0","13","30","64","87","-24984","-1376","-4904","5","150","150.70","118.92","31.78","26.23","49.1","14.71","89732","26.06","DUALSPOT-UV-BLUE-GREEN-RED-IR","791854","723106","904693","7.414491","1.804597","-0.027291","767373","909554","764124","5.128550","1.211238","-0.145992","868317","917065","818055","4.194796","0.955760","-0.163628","855674","932965","864333","3.313350","0.718868","-0.196091","730540","854436","950952","2.307060","0.510883","0.000000","4124","3599","3430","3097","2084","1771","2745","1882","1628","2530","1749","1533","2431","1457","2431",""
"MA200-0416","25325","68","1","1.10","1.4","2023-05-14T09:08:00","120","2023/05/14","09:08:00","-15.786288261413574","35.03669399023056","0.1","13","30","64","87","-25004","-1392","-5012","5","150","150.08","119.00","31.07","26.26","49.1","14.74","89736","26.13","DUALSPOT-UV-BLUE-GREEN-RED-IR","792097","723764","905690","7.495146","1.825599","-0.000492","767803","910425","764932","5.179149","1.223064","-0.030754","863661","912380","813918","4.234153","0.963938","-0.084913","856003","933605","864940","3.343109","0.723135","-0.405053","730734","854775","951369","2.328569","0.514758","0.000000","3980","3969","3966","3152","2821","2718","2745","2184","2019","2508","1377","1065","2524","1741","2524",""
"MA200-0416","25326","68","1","1.10","1.4","2023-05-14T09:08:30","120","2023/05/14","09:08:30","-15.78630244731903","35.036679327487946","0.0","13","30","64","87","-24946","-1373","-5050","5","150","150.35","118.63","31.73","26.31","49.2","14.79","89736","26.19","DUALSPOT-UV-BLUE-GREEN-RED-IR","793732","725685","908280","7.574196","1.845203","-0.014044","764302","906550","761795","5.227178","1.233173","-0.073946","864518","913584","815061","4.272556","0.970357","-0.220588","857440","935412","866666","3.371275","0.725305","-2.897471","731433","855748","952503","2.349233","0.518326","0.000000","3914","3629","3537","3001","2362","2164","2687","1679","1383","2382","686","221","2433","1571","2433",""
"MA200-0416","25327","68","1","1.10","1.4","2023-05-14T09:09:00","120","2023/05/14","09:09:00","-15.786314725875854","35.03668415918946","0.0","13","30","64","86","-24960","-1316","-4736","5","150","150.29","118.54","31.76","26.34","49.2","14.82","89740","26.19","DUALSPOT-UV-BLUE-GREEN-RED-IR","792658","725093","907702","7.645612","1.862377","-0.020481","763354","905763","761175","5.272275","1.242446","-0.082885","863217","912464","814089","4.306191","0.975972","-0.220829","856243","934281","865664","3.398123","0.730282","-0.190003","730399","854668","951305","2.368543","0.521073","0.000000","3538","3176","3059","2820","2164","1962","2355","1467","1207","2272","1572","1380","2275","1208","2275",""
"MA200-0416","25328","68","1","1.10","1.4","2023-05-14T09:09:30","120","2023/05/14","09:09:30","-15.786308944225311","35.03669065609574","0.0","13","30","64","86","-25092","-1436","-4436","5","150","150.23","119.41","30.82","26.37","49.1","14.82","89736","26.25","DUALSPOT-UV-BLUE-GREEN-RED-IR","793922","726611","909798","7.711914","1.879959","0.004563","764558","907477","762718","5.311447","1.250738","-0.057898","865028","914613","816093","4.336756","0.981861","-0.112332","853576","931562","863185","3.421132","0.733250","-0.511896","732427","857182","954169","2.387500","0.525384","0.000000","3261","3351","3380","2431","1994","1859","2125","1586","1428","1933","966","702","2217","1954","2217",""
"MA200-0416","25329","68","1","1.10","1.4","2023-05-14T09:10:00","120","2023/05/14","09:10:00","-15.786301076412201","35.03669149056077","0.0","13","30","64","86","-24948","-1420","-5072","5","150","150.49","118.89","31.60","26.41","49.0","14.83","89736","26.25","DUALSPOT-UV-BLUE-GREEN-RED-IR","788393","722349","904787","7.837640","1.912738","-0.003280","765006","908670","763907","5.392253","1.271564","-0.007632","865383","915577","817089","4.401713","0.997102","-0.040528","854329","932852","864484","3.471750","0.744373","-0.081465","732691","857807","954936","2.422453","0.531874","0.000000","6211","6093","6055","5038","4886","4839","4535","4004","3849","4271","3531","3329","4106","2869","4106",""
"MA200-0416","25330","68","1","1.10","1.4","2023-05-14T09:10:30","120","2023/05/14","09:10:30","-15.786500215530396","35.03673832863569","3.1","13","30","64","86","-24764","140","-4168","5","150","150.14","118.84","31.31","26.45","48.9","14.84","89736","26.31","DUALSPOT-UV-BLUE-GREEN-RED-IR","788408","723143","906135","8.006090","1.957241","0.000448","760591","904249","760395","5.521911","1.302934","-0.021683","864697","915511","817225","4.511154","1.021731","-0.051513","853748","932843","864633","3.562740","0.764036","-0.083302","732408","857875","955127","2.488536","0.547641","0.000000","8325","8348","8355","8088","7427","7223","7645","6530","6204","7681","6300","5923","7768","7034","7768",""
"MA200-0416","25331","68","1","1.10","1.4","2023-05-14T09:11:00","120","2023/05/14","09:11:00","-15.787409961223602","35.036257822066545","6.9","13","30","64","86","-24776","-348","-5992","5","150","150.49","119.01","31.48","26.49","48.7","14.82","89756","26.31","DUALSPOT-UV-BLUE-GREEN-RED-IR","793750","728583","913219","8.096075","1.980905","-0.000939","764571","909408","764844","5.580593","1.317071","-0.023673","864399","915596","817395","4.559863","1.033151","-0.037735","854926","934426","866154","3.599505","0.770390","-0.219127","732881","858610","956016","2.515855","0.553043","0.000000","4440","4415","4407","3655","3329","3228","3397","3012","2899","3099","2025","1732","3206","2397","3206",""
"MA200-0416","25332","68","1","1.10","1.4","2023-05-14T09:11:30","120","2023/05/14","09:11:30","-15.787287175655365","35.03521632403135","0.1","13","30","64","86","-24584","3692","-6643","5","150","149.96","118.97","30.99","26.52","48.6","14.82","89812","26.38","DUALSPOT-UV-BLUE-GREEN-RED-IR","785347","721164","904037","8.168414","1.997028","-0.028906","763336","908229","763918","5.629216","1.326305","-0.097533","863683","915015","816911","4.597431","1.038795","-0.262419","853100","932616","864479","3.630267","0.775170","-0.290083","731705","857360","954658","2.537902","0.556826","0.000000","3571","3055","2889","3029","2208","1955","2621","1512","1188","2594","1547","1263","2588","1705","2588",""
"MA200-0416","25333","68","1","1.10","1.4","2023-05-14T09:12:00","120","2023/05/14","09:12:00","-15.787288844585419","35.035194996744394","0.0","13","30","64","86","-24568","916","-6752","5","150","149.76","118.56","31.20","26.55","48.5","14.82","89812","26.38","DUALSPOT-UV-BLUE-GREEN-RED-IR","788562","724471","908294","8.226196","2.009759","-0.033346","760620","905259","761471","5.667301","1.333416","-0.108082","860141","911536","813845","4.629540","1.045745","-0.064219","848975","928287","860531","3.653523","0.778240","-0.472609","728407","853619","950522","2.555528","0.560529","0.000000","2862","2396","2246","2381","1689","1476","2248","1849","1733","1967","987","721","2076","1658","2076",""
"MA200-0416","25334","68","1","1.10","1.4","2023-05-14T09:12:30","120","2023/05/14","09:12:30","-15.787282645702362","35.0351793281734","0.0","13","30","64","86","-24528","948","-7008","5","150","149.09","118.38","30.71","26.58","48.7","14.89","89816","26.44","DUALSPOT-UV-BLUE-GREEN-RED-IR","786233","722672","906196","8.292696","2.027708","0.006118","759243","903985","760441","5.713149","1.342815","-0.066115","858629","910176","812664","4.664362","1.050591","-0.319400","854445","934518","866347","3.682332","0.782484","-0.330273","727379","852543","949383","2.575937","0.564604","0.000000","3299","3432","3475","2871","2269","2083","2442","1310","980","2441","1386","1101","2408","1853","2408",""
"MA200-0416","25335","68","1","1.10","1.4","2023-05-14T09:13:00","120","2023/05/14","09:13:00","-15.787284553050995","35.03516515344381","0.0","13","30","64","86","-24636","963","-6560","5","150","149.32","118.63","30.68","26.62","48.9","15.00","89812","26.44","DUALSPOT-UV-BLUE-GREEN-RED-IR","774571","722554","910956","10.219854","2.545387","0.004779","749193","903026","762965","7.300320","1.760154","0.002934","848920","909555","815126","6.034893","1.404995","-0.000051","840748","927720","862626","4.814153","1.069367","-0.005488","723149","853083","951929","3.391740","0.766130","-0.018168","95413","99093","100313","99180","100827","101350","95913","95890","95883","95716","93800","93252","96063","91746","90487",""
"MA200-0416","25336","68","1","1.10","1.4","2023-05-14T09:13:30","120","2023/05/14","09:13:30","-15.787292540073395","35.035180158913136","0.0","13","30","64","86","-24616","876","-6528","5","150","149.76","118.38","31.39","26.65","49.3","15.14","89820","26.50","DUALSPOT-UV-BLUE-GREEN-RED-IR","765449","716932","905355","10.822712","2.716776","0.008127","747334","903804","764569","7.791287","1.892883","0.003240","845682","908718","815254","6.462109","1.517802","-0.000837","838198","927209","862903","5.170789","1.162099","-0.004942","721712","852887","952335","3.644880","0.830503","-0.015346","29912","32072","32796","30746","31349","31542","29962","29839","29801","30225","29641","29472","29872","28650","28290",""
"MA200-0416","25337","68","1","1.10","1.4","2023-05-14T09:14:00","120","2023/05/14","09:14:00","-15.787294089794159","35.035179663449526","0.0","13","30","64","85","-24546","930","-6950","5","150","151.95","117.50","34.44","26.69","49.7","15.30","89820","26.56","DUALSPOT-UV-BLUE-GREEN-RED-IR","762237","714804","903077","11.031620","2.773759","-0.009273","744894","901697","763066","7.953042","1.935243","-0.020625","844374","908130","814928","6.602072","1.550787","-0.052174","838270","927926","863737","5.284129","1.186513","-0.098341","720974","852430","951947","3.725963","0.848766","-0.115001","10442","9717","9473","10205","9117","8767","9889","7950","7355","9677","7111","6368","9639","7406","6748",""
"MA200-0416","25338","68","1","1.10","1.4","2023-05-14T09:14:30","120","2023/05/14","09:14:30","-15.787294209003448","35.03517649695277","0.0","13","30","64","86","-24712","992","-5800","5","150","150.23","119.15","31.09","26.71","49.9","15.41","89820","26.56","DUALSPOT-UV-BLUE-GREEN-RED-IR","764199","717202","906385","11.150564","2.806518","0.006207","746666","904396","765486","8.041282","1.955621","-0.022242","845626","909921","816665","6.675422","1.567512","-0.029542","840906","931254","866909","5.345861","1.199234","-0.069552","722403","854417","954237","3.769460","0.857392","-0.119473","5863","6189","6299","5490","4859","4657","5110","4466","4269","5198","4105","3789","5099","3876","3516",""
"MA200-0416","25339","68","1","1.10","1.4","2023-05-14T09:15:00","120","2023/05/14","09:15:00","-15.787288248538971","35.0351719930768","0.0","13","30","64","86","-24604","896","-6475","5","150","149.53","118.46","31.07","26.76","50.1","15.50","89824","26.63","DUALSPOT-UV-BLUE-GREEN-RED-IR","764802","718266","907947","11.246185","2.831934","0.001581","742313","899575","761546","8.109298","1.972271","-0.011895","846196","910929","817693","6.731361","1.580137","-0.033086","835494","925564","861713","5.391402","1.207769","-0.107845","722815","855120","955082","3.802991","0.863783","-0.143718","4741","4805","4826","4256","3973","3882","3920","3374","3206","3856","2756","2438","3954","2874","2556",""
"MA200-0416","25340","68","1","1.10","1.4","2023-05-14T09:15:30","120","2023/05/14","09:15:30","-15.787282109260559","35.035169661045074","1.2","13","30","64","86","-24560","-855","-7104","5","150","149.70","118.42","31.28","26.80","50.3","15.60","89828","26.69","DUALSPOT-UV-BLUE-GREEN-RED-IR","761103","715299","904422","11.343145","2.858369","0.003631","743478","901473","763251","8.177741","1.987648","-0.030091","842109","906968","814206","6.790263","1.590908","-0.098972","836520","927072","863173","5.436138","1.215767","-0.131157","718990","850811","950347","3.837440","0.870921","-0.100837","4809","4963","5015","4284","3644","3438","4129","2858","2469","3790","2565","2212","4063","3187","2930",""
"MA200-0416","25341","68","1","1.10","1.4","2023-05-14T09:16:00","120","2023/05/14","09:16:00","-15.787231504917145","35.035170156508684","0.0","13","30","64","86","-24788","-56","-6292","5","150","149.70","118.42","31.28","26.83","50.4","15.65","89828","26.69","DUALSPOT-UV-BLUE-GREEN-RED-IR","760430","715119","904388","11.428219","2.881885","0.005112","743926","902436","764169","8.236043","2.001583","-0.017463","842157","907345","814624","6.836945","1.600933","-0.047268","838037","929064","865065","5.474337","1.222032","-0.174185","719411","851487","951167","3.863943","0.875754","-0.172805","4219","4415","4481","3649","3302","3190","3272","2660","2473","3236","2009","1656","3126","2158","1874",""
"MA200-0416","25342","68","1","1.10","1.4","2023-05-14T09:16:30","120","2023/05/14","09:16:30","-15.78756582736969","35.03590815886855","6.2","13","30","64","86","-24976","-824","-4564","5","150","149.83","118.42","31.41","26.87","50.5","15.72","89776","26.75","DUALSPOT-UV-BLUE-GREEN-RED-IR","761063","716192","906017","11.519072","2.906023","0.000175","744681","903765","765397","8.295958","2.015001","-0.031228","841998","907519","814869","6.886423","1.610196","-0.090547","837958","929281","865328","5.513017","1.228363","-0.176331","719152","851411","951079","3.893322","0.880122","-0.337639","4506","4513","4515","3750","3166","2979","3468","2448","2136","3277","2021","1661","3465","1942","1497",""
"MA200-0416","25343","68","1","1.10","1.4","2023-05-14T09:17:00","120","2023/05/14","09:17:00","-15.790086686611176","35.03634249418974","10.7","13","30","64","85","-24676","3292","-5932","5","150","150.49","118.46","32.03","26.91","50.2","15.65","89892","26.81","DUALSPOT-UV-BLUE-GREEN-RED-IR","760442","715945","905871","11.594780","2.928659","0.010678","743092","902083","764106","8.345357","2.030193","0.018394","841594","907326","814765","6.925315","1.620966","0.004382","837198","928634","864780","5.544633","1.235282","-0.058621","718700","851022","950726","3.918508","0.885952","-0.058319","3753","4150","4284","3091","3515","3652","2725","2791","2811","2677","2167","2020","2970","2542","2417",""
"MA200-0416","25344","68","1","1.10","1.4","2023-05-14T09:17:30","120","2023/05/14","09:17:30","-15.791707217693329","35.03489249199629","4.6","13","30","64","86","-24384","4123","-5353","5","150","149.39","118.50","30.89","26.94","49.6","15.49","89964","26.81","DUALSPOT-UV-BLUE-GREEN-RED-IR","762915","718509","909245","11.642260","2.943576","0.018511","740523","899157","761696","8.374227","2.040779","0.041750","843202","909185","816502","6.949222","1.629746","0.050104","839850","931696","867676","5.562932","1.240653","0.025058","720146","852806","952781","3.933641","0.891188","0.075577","2353","2836","2999","1806","2540","2777","1675","2359","2569","1549","1744","1800","1784","2367","2538",""
"MA200-0416","25345","68","1","1.10","1.4","2023-05-14T09:18:00","120","2023/05/14","09:18:00","-15.793964505195618","35.035842660814524","18.0","13","30","64","85","-24828","28","-5540","5","150","150.23","118.58","31.65","26.98","49.0","15.35","90064","26.81","DUALSPOT-UV-BLUE-GREEN-RED-IR","762512","718448","909323","11.696529","2.960626","0.016378","740842","899855","762375","8.413102","2.052402","0.016298","843080","909306","816673","6.979322","1.637572","-0.005033","839976","932060","868088","5.587418","1.246321","-0.036891","720270","853129","953176","3.953468","0.897008","0.028910","2688","3164","3325","2430","2722","2816","2107","2052","2036","2071","1796","1717","2335","2568","2637",""
"MA200-0416","25346","68","1","1.10","1.4","2023-05-14T09:18:30","120","2023/05/14","09:18:30","-15.798291742801666","35.03665482252836","13.6","13","30","64","85","-24992","-1952","-5444","5","150","149.31","118.09","31.22","27.01","48.5","15.22","90016","26.81","DUALSPOT-UV-BLUE-GREEN-RED-IR","761252","717626","908470","11.773355","2.981174","0.001300","739956","899039","761809","8.466914","2.066017","-0.007135","842346","908830","816337","7.025201","1.648765","-0.015970","832992","924501","861110","5.622951","1.254415","-0.038549","719497","852350","952359","3.979402","0.901857","-0.153187","3821","3865","3880","3378","3232","3185","3225","2976","2900","3018","2601","2481","3068","2169","1906",""
"MA200-0416","25347","68","1","1.10","1.4","2023-05-14T09:19:00","120","2023/05/14","09:19:00","-15.8012655377388","35.036098159849644","8.8","13","30","64","86","-24220","-863","-5948","5","150","150.08","118.63","31.45","27.05","47.9","15.06","89888","26.81","DUALSPOT-UV-BLUE-GREEN-RED-IR","761840","718587","909879","11.851721","3.002725","0.004021","745230","905887","767702","8.522340","2.080308","-0.004403","842463","909260","816824","7.070768","1.659739","-0.019225","833119","924879","861516","5.658509","1.262009","-0.058988","719530","852581","952681","4.008794","0.909010","-0.029569","3880","4025","4074","3463","3368","3338","3189","2897","2807","3007","2422","2254","3461","3177","3094",""
"MA200-0416","25348","68","1","1.10","1.4","2023-05-14T09:19:30","120","2023/05/14","09:19:30","-15.801629364490509","35.03468466177583","10.9","13","30","64","85","-24732","748","-5268","5","150","149.38","118.43","30.95","27.07","47.5","14.96","89928","26.88","DUALSPOT-UV-BLUE-GREEN-RED-IR","757232","715777","907054","12.055220","3.055778","-0.000287","736887","897335","760920","8.685714","2.121532","-0.005528","839836","907865","815964","7.209713","1.693100","-0.016513","830902","923678","860770","5.772786","1.287824","-0.036672","718016","851636","951918","4.094829","0.928444","-0.052018","10093","10067","10058","10227","9872","9758","9740","8947","8704","9681","8367","7989","10148","8770","8366",""
"MA200-0416","25349","68","1","1.10","1.4","2023-05-14T09:20:00","120","2023/05/14","09:20:00","-15.80210691690445","35.03394865617156","3.5","13","30","64","85","-24036","-963","-8368","5","150","150.16","118.50","31.66","27.11","47.3","14.91","89960","26.88","DUALSPOT-UV-BLUE-GREEN-RED-IR","754884","714437","905714","12.310671","3.122991","-0.001706","738922","900716","764016","8.895082","2.174318","-0.009086","840821","909733","817845","7.393998","1.737684","-0.019092","832239","925880","863010","5.929484","1.324666","-0.030868","718728","852925","953522","4.210191","0.955616","-0.043039","12662","12467","12401","13098","12358","12118","12911","11689","11314","13267","11673","11214","13600","11987","11513",""
"MA200-0416","25350","68","1","1.10","1.4","2023-05-14T09:20:30","120","2023/05/14","09:20:30","-15.801913321018219","35.03394132480025","0.0","13","30","64","85","-24964","-928","-5052","5","150","150.29","118.34","31.96","27.13","47.0","14.85","89964","26.94","DUALSPOT-UV-BLUE-GREEN-RED-IR","753843","713820","905106","12.372931","3.141004","0.007059","738853","900977","764350","8.940608","2.185804","-0.010656","840548","909752","817975","7.434106","1.746195","-0.052277","832742","926687","863799","5.960971","1.330555","-0.109869","718726","853130","953797","4.234993","0.960971","-0.082572","3090","3310","3385","2852","2664","2603","2813","2211","2026","2669","1848","1613","2927","2341","2169",""
"MA200-0416","25351","68","1","1.10","1.4","2023-05-14T09:21:00","120","2023/05/14","09:21:00","-15.801914036273956","35.03393065929413","0.0","13","30","64","85","-24884","-844","-5608","5","150","149.67","118.27","31.41","27.16","46.8","14.81","89968","26.94","DUALSPOT-UV-BLUE-GREEN-RED-IR","757413","718003","910794","12.531315","3.183216","0.000388","737247","899881","763671","9.071053","2.217699","-0.012914","838288","908087","816708","7.546956","1.773005","-0.021159","830754","925153","862563","6.054838","1.350981","-0.049986","717477","852107","952810","4.305715","0.978325","-0.025307","7865","7894","7904","8176","7528","7319","7921","7087","6831","7962","6525","6112","8353","7719","7532",""
"MA200-0416","25352","68","1","1.10","1.4","2023-05-14T09:21:30","120","2023/05/14","09:21:30","-15.801918685436249","35.03390932828188","0.1","13","30","64","85","-24992","-1028","-5296","5","150","150.49","118.42","32.07","27.20","46.5","14.75","89968","27.00","DUALSPOT-UV-BLUE-GREEN-RED-IR","754706","715791","908160","12.603304","3.202772","0.000318","734460","896818","761156","9.124615","2.231783","-0.004399","836490","906408","815255","7.592463","1.784027","-0.021134","834933","930047","867164","6.091490","1.358479","-0.075450","719905","855198","956327","4.336298","0.983764","-0.184257","3570","3581","3585","3353","3255","3223","3190","2853","2749","3105","2345","2127","3607","2368","2005",""
"MA200-0416","25353","68","1","1.10","1.4","2023-05-14T09:22:00","120","2023/05/14","09:22:00","-15.801917016506195","35.03392282873392","0.1","13","30","64","85","-24948","-916","-5128","5","150","149.76","118.14","31.63","27.23","46.3","14.72","89972","27.06","DUALSPOT-UV-BLUE-GREEN-RED-IR","754943","716295","908951","12.658297","3.218151","0.004464","734662","897314","761669","9.164488","2.241474","-0.015144","836026","906121","815071","7.625603","1.790583","-0.067867","835485","930845","867987","6.119710","1.363808","-0.099776","719984","855413","956582","4.356430","0.987710","-0.121705","2734","2856","2897","2502","2271","2197","2328","1721","1534","2396","1690","1487","2380","1742","1555",""
"MA200-0416","25354","68","1","1.10","1.4","2023-05-14T09:22:30","120","2023/05/14","09:22:30","-15.801897168159485","35.033930994570255","0.0","13","30","64","85","-24984","-963","-5000","5","150","149.70","118.38","31.32","27.26","46.2","14.68","89972","27.06","DUALSPOT-UV-BLUE-GREEN-RED-IR","756254","717844","911020","12.714611","3.233402","0.002410","736014","899270","763391","9.204698","2.251434","-0.010020","836358","906720","815669","7.658756","1.798046","-0.031633","829788","924737","862309","6.147008","1.369107","-0.084829","715386","850072","950656","4.375419","0.991403","-0.119033","2794","2860","2882","2518","2357","2305","2325","1978","1871","2313","1697","1520","2240","1647","1473",""
"MA200-0416","25355","68","1","1.10","1.4","2023-05-14T09:23:00","120","2023/05/14","09:23:00","-15.801907658576965","35.033934995532036","0.1","13","30","64","85","-24836","-984","-5416","5","150","149.83","118.26","31.57","27.29","46.0","14.66","89976","27.13","DUALSPOT-UV-BLUE-GREEN-RED-IR","750878","713248","905458","12.811110","3.259863","0.002735","735708","899387","763644","9.279943","2.269411","-0.017425","836881","907789","816743","7.723826","1.811880","-0.046945","831282","926791","864349","6.199757","1.380259","-0.058961","716235","851395","952216","4.416980","1.000655","-0.061973","4792","4922","4966","4717","4221","4060","4568","3637","3352","4475","3543","3277","4909","4093","3854",""
"MA200-0416","25356","68","1","1.10","1.4","2023-05-14T09:23:30","120","2023/05/14","09:23:30","-15.80192655324936","35.03391349315643","0.0","13","30","64","85","-24880","-912","-5140","5","150","149.96","118.54","31.43","27.34","45.8","14.63","89976","27.19","DUALSPOT-UV-BLUE-GREEN-RED-IR","750987","713625","906069","12.871136","3.275676","-0.000662","736632","900799","764923","9.323827","2.280347","-0.009245","832870","903620","813076","7.761342","1.821017","-0.015318","832666","928572","866021","6.230685","1.385283","-0.159184","716664","852020","952982","4.440571","1.005589","-0.084488","2974","2955","2949","2744","2579","2526","2627","2413","2348","2617","1604","1314","2780","2193","2021",""
"MA200-0416","25357","68","1","1.10","1.4","2023-05-14T09:24:00","120","2023/05/14","09:24:00","-15.801937460899353","35.03389182314277","0.0","13","30","64","85","-24876","-912","-5096","5","150","149.99","118.11","31.87","27.37","45.5","14.55","89976","27.19","DUALSPOT-UV-BLUE-GREEN-RED-IR","750633","713531","906040","12.917023","3.288684","0.004906","735786","899972","764285","9.355420","2.289014","0.002286","832045","902940","812483","7.786972","1.827627","-0.007903","831008","926881","864463","6.250325","1.388800","-0.121995","716084","851466","952383","4.457941","1.009109","-0.106526","2281","2397","2436","1983","2015","2026","1801","1721","1697","1668","1106","946","2054","1542","1392",""
"MA200-0416","25358","68","1","1.10","1.4","2023-05-14T09:24:30","120","2023/05/14","09:24:30","-15.801940977573395","35.033893160521984","0.0","13","30","64","85","-24984","-1020","-5364","5","150","150.29","119.05","31.24","27.41","45.2","14.49","89976","27.25","DUALSPOT-UV-BLUE-GREEN-RED-IR","748240","711462","903565","12.961996","3.302168","0.012386","734089","898070","762718","9.387445","2.296621","-0.015292","834494","905790","815080","7.812166","1.831936","-0.106768","834112","930496","867855","6.270168","1.391489","-0.262027","717940","853797","955034","4.474399","1.013228","-0.014219","2218","2535","2643","1994","1805","1743","1756","1145","957","1672","863","632","1931","1841","1815",""
"MA200-0416","25359","68","1","1.10","1.4","2023-05-14T09:25:00","120","2023/05/14","09:25:00","-15.801944136619568","35.03389149159193","0.0","13","30","64","84","-24976","-1044","-5424","5","150","150.01","118.17","31.84","27.43","44.9","14.42","89976","27.31","DUALSPOT-UV-BLUE-GREEN-RED-IR","747193","710680","902677","13.001966","3.313175","0.002218","733223","897216","762032","9.415094","2.302528","-0.040097","833187","904543","814013","7.836670","1.837682","-0.026020","826291","921880","859875","6.287297","1.394224","-0.174598","716989","852737","953837","4.487890","1.015789","-0.137714","1986","2030","2045","1734","1375","1259","1721","1498","1429","1454","862","693","1594","1123","985",""
"MA200-0416","25360","68","1","1.10","1.4","2023-05-14T09:25:30","120","2023/05/14","09:25:30","-15.801943361759186","35.03390049561858","0.0","13","30","64","85","-24848","-916","-5480","5","150","149.57","118.06","31.51","27.47","44.8","14.40","89976","27.31","DUALSPOT-UV-BLUE-GREEN-RED-IR","748951","712878","905651","13.091925","3.335041","-0.010386","734987","899908","764467","9.483903","2.317464","-0.034580","834465","906381","815763","7.894397","1.847648","-0.108342","829510","925860","863659","6.337190","1.402652","-0.140700","718347","854638","956047","4.525358","1.022723","-0.144895","4475","4076","3939","4320","3514","3253","4059","2626","2188","4239","2683","2241","4433","3074","2677",""
"MA200-0416","25361","68","1","1.10","1.4","2023-05-14T09:26:00","120","2023/05/14","09:26:00","-15.801939308643341","35.0339156575501","0.0","13","30","64","85","-24948","-900","-5096","5","150","149.87","118.25","31.62","27.52","44.6","14.37","89976","27.38","DUALSPOT-UV-BLUE-GREEN-RED-IR","749828","714043","907276","13.159187","3.353639","0.003336","735693","901092","765530","9.531176","2.328182","-0.026419","835179","907428","816779","7.934421","1.856994","-0.024960","830384","927086","864826","6.367168","1.407439","-0.168178","714305","849957","950879","4.548919","1.028124","-0.049614","3340","3455","3494","2963","2513","2367","2810","2454","2345","2543","1518","1228","2783","2386","2270",""
"MA200-0416","25362","68","1","1.10","1.4","2023-05-14T09:26:30","120","2023/05/14","09:26:30","-15.801936686038971","35.03391049429774","0.0","13","30","64","85","-24848","-908","-5164","5","150","150.22","117.99","32.22","27.55","44.4","14.35","89976","27.44","DUALSPOT-UV-BLUE-GREEN-RED-IR","750330","714762","908364","13.212002","3.366819","-0.009906","735676","901346","765797","9.569162","2.336263","-0.043185","835371","907860","817209","7.964665","1.862091","-0.125461","831982","929030","866677","6.390622","1.410830","-0.238543","714996","850896","951968","4.566532","1.031605","-0.121557","2629","2402","2324","2386","1859","1688","2127","1313","1064","1994","1055","789","2085","1509","1340",""
"MA200-0416","25363","68","1","1.10","1.4","2023-05-14T09:27:00","120","2023/05/14","09:27:00","-15.801944136619568","35.0339136607945","0.0","13","30","64","85","-24884","-900","-5400","5","150","150.69","118.06","32.63","27.58","44.4","14.36","89976","27.44","DUALSPOT-UV-BLUE-GREEN-RED-IR","745829","710742","903354","13.258120","3.379135","-0.003585","732133","897214","762344","9.600945","2.343999","-0.019528","831170","903470","813291","7.990312","1.866769","-0.099797","831992","929231","866918","6.411623","1.415085","-0.081196","715156","851216","952319","4.582691","1.034793","-0.127960","2294","2216","2190","1995","1757","1680","1803","1190","1003","1784","1308","1173","1912","1364","1205",""
"MA200-0416","25364","68","1","1.10","1.4","2023-05-14T09:27:30","120","2023/05/14","09:27:30","-15.8019477725029","35.03391866013408","0.0","13","30","64","84","-24936","-876","-5244","5","150","149.96","117.82","32.14","27.63","44.2","14.35","89980","27.50","DUALSPOT-UV-BLUE-GREEN-RED-IR","750842","715781","909884","13.310383","3.394830","0.008958","730995","896034","761417","9.635470","2.352291","-0.019529","830674","903119","813034","8.019042","1.872819","-0.052825","825200","921842","860006","6.433983","1.417244","-0.752695","714834","850964","952105","4.598362","1.037341","-0.237387","2605","2868","2958","2172","1912","1828","2024","1562","1422","1904","673","325","1858","1107","888",""
"MA200-0416","25365","68","1","1.10","1.4","2023-05-14T09:28:00","120","2023/05/14","09:28:00","-15.801939845085144","35.03390699252486","0.0","13","30","64","85","-24884","-851","-5720","5","150","149.70","118.34","31.36","27.67","44.1","14.34","89976","27.50","DUALSPOT-UV-BLUE-GREEN-RED-IR","746767","712143","905379","13.357210","3.406198","-0.009509","733206","898990","763953","9.668529","2.359926","-0.021180","831542","904262","814081","8.045209","1.877432","-0.096353","828369","925522","863482","6.454619","1.420086","-0.248003","715967","852399","953722","4.616398","1.040754","-0.126736","2324","2129","2062","2070","1804","1718","1835","1221","1034","1749","909","672","2129","1520","1343",""
"MA200-0416","25366","68","1","1.10","1.4","2023-05-14T09:28:30","120","2023/05/14","09:28:30","-15.801938652992249","35.033905826509","0.0","13","30","64","85","-24888","-730","-5153","5","150","149.96","118.46","31.51","27.70","43.9","14.29","89976","27.56","DUALSPOT-UV-BLUE-GREEN-RED-IR","747068","712677","906158","13.402889","3.419565","0.008848","733072","899005","764060","9.698455","2.367300","-0.011119","832177","905138","814903","8.069766","1.882565","-0.048028","829437","926847","864765","6.474267","1.423031","-0.196196","716464","853098","954558","4.632158","1.044276","-0.056118","2264","2491","2569","1872","1735","1690","1721","1352","1240","1664","937","732","1858","1561","1475",""
"MA200-0416","25367","68","1","1.10","1.4","2023-05-14T09:29:00","120","2023/05/14","09:29:00","-15.801939845085144","35.033900160342455","0.0","13","30","64","85","-24932","-1040","-4960","5","150","149.90","117.90","32.00","27.73","43.7","14.26","89984","27.56","DUALSPOT-UV-BLUE-GREEN-RED-IR","747554","713352","907117","13.447115","3.431921","0.002829","734054","900449","765335","9.727546","2.373434","-0.043016","832222","905356","815166","8.094686","1.887983","-0.043276","829505","927065","864974","6.492998","1.426941","-0.064701","716412","853146","954632","4.645666","1.046236","-0.323775","2203","2268","2290","1829","1421","1289","1754","1405","1299","1593","1226","1122","1600","855","639",""
"MA200-0416","25368","68","1","1.10","1.4","2023-05-14T09:29:30","120","2023/05/14","09:29:30","-15.801933526992798","35.03389382362366","0.0","13","30","64","85","-24896","-871","-5724","5","150","150.09","118.28","31.81","27.78","43.5","14.23","89980","27.63","DUALSPOT-UV-BLUE-GREEN-RED-IR","749135","715077","909423","13.488274","3.443367","0.003249","730256","895978","761585","9.755201","2.379381","-0.036956","833333","906724","816443","8.116078","1.891666","-0.108869","830192","927990","865839","6.511073","1.428998","-0.435407","716769","853643","955212","4.660198","1.049370","-0.073584","2043","2113","2137","1733","1386","1274","1501","961","797","1533","648","399","1716","1376","1278",""
"MA200-0416","25369","68","1","1.10","1.4","2023-05-14T09:30:00","120","2023/05/14","09:30:00","-15.801928222179413","35.03388932719827","0.0","13","30","64","84","-24946","-896","-5538","5","150","150.36","118.46","31.90","27.81","43.4","14.21","89980","27.63","DUALSPOT-UV-BLUE-GREEN-RED-IR","749085","715237","909779","13.530132","3.455495","0.006836","730554","896528","762099","9.783897","2.387500","0.006415","833249","906824","816537","8.138799","1.895297","-0.138632","831097","929146","866966","6.527449","1.430685","-0.579093","717042","854057","955721","4.673919","1.051825","-0.163540","2075","2233","2287","1795","1886","1916","1592","944","748","1386","530","290","1618","1074","917",""
"MA200-0416","25370","68","1","1.10","1.4","2023-05-14T09:30:30","120","2023/05/14","09:30:30","-15.801932334899902","35.0338729955256","1.3","13","30","64","84","-25224","-2580","-5380","5","150","149.63","118.34","31.29","27.84","43.2","14.18","89980","27.69","DUALSPOT-UV-BLUE-GREEN-RED-IR","742984","709682","902771","13.577396","3.468336","0.002605","731297","897633","763094","9.815700","2.393919","-0.046465","833995","907800","817467","8.165955","1.901477","-0.027179","825447","923007","861269","6.548503","1.433665","-0.224352","713640","850097","951304","4.689697","1.055561","-0.033312","2345","2409","2431","1992","1520","1368","1905","1639","1559","1785","955","722","1862","1667","1610",""
"MA200-0416","25371","68","1","1.10","1.4","2023-05-14T09:31:00","120","2023/05/14","09:31:00","-15.802427351474762","35.034723326563835","4.7","13","30","64","84","-25691","-724","-2840","5","150","149.57","118.38","31.19","27.87","43.2","14.20","89960","27.69","DUALSPOT-UV-BLUE-GREEN-RED-IR","742024","709067","902116","13.626059","3.479467","-0.015781","730550","897042","762645","9.850596","2.401489","-0.030939","833686","907728","817491","8.193344","1.906717","-0.067756","826894","924818","862995","6.569773","1.437610","-0.092809","713585","850200","951435","4.707336","1.058789","-0.138110","2414","2096","1987","2185","1799","1674","1920","1394","1235","1802","1269","1119","2081","1445","1261",""
"MA200-0416","25372","68","1","1.10","1.4","2023-05-14T09:31:30","120","2023/05/14","09:31:30","-15.802702367305756","35.035422660410404","2.8","13","30","64","84","-24712","-1524","-3004","5","150","149.59","118.09","31.51","27.90","43.1","14.21","89908","27.75","DUALSPOT-UV-BLUE-GREEN-RED-IR","748270","715281","910169","13.684807","3.495851","0.004191","729956","896570","762285","9.890673","2.408403","-0.088621","832187","906340","816225","8.227855","1.911914","-0.159381","824249","922045","860410","6.596212","1.440167","-0.670564","711974","848384","949456","4.726932","1.062538","-0.121604","2922","3054","3099","2515","1626","1340","2426","1369","1049","2246","814","414","2318","1662","1472",""
"MA200-0416","25373","68","1","1.10","1.4","2023-05-14T09:32:00","120","2023/05/14","09:32:00","-15.801809966564178","35.0357854925096","8.1","13","30","64","84","-24612","548","-9532","5","150","149.70","118.66","31.04","27.94","43.2","14.28","89884","27.75","DUALSPOT-UV-BLUE-GREEN-RED-IR","742625","710365","904108","13.743647","3.510776","-0.003101","731392","898705","764250","9.933517","2.418296","-0.018481","829039","903266","813565","8.262474","1.918590","-0.063022","826627","925041","863285","6.623952","1.444537","-0.156461","713180","850072","951413","4.747715","1.066580","-0.104108","2912","2823","2793","2676","2362","2261","2422","1785","1592","2345","1412","1151","2446","1819","1637",""
"MA200-0416","25374","68","1","1.10","1.4","2023-05-14T09:32:30","120","2023/05/14","09:32:30","-15.802208364009857","35.03879149258137","14.7","13","30","64","84","-24836","-2648","-5920","5","150","149.96","118.18","31.78","27.98","43.3","14.34","89676","27.75","DUALSPOT-UV-BLUE-GREEN-RED-IR","738259","708388","902536","14.120687","3.604545","-0.007967","727422","896341","762845","10.257639","2.495319","-0.017729","825696","901855","812880","8.552659","1.984733","-0.028974","823936","924023","862858","6.875096","1.500171","-0.042361","711162","849076","950728","4.944858","1.111524","-0.049467","18739","17328","16844","20332","17964","17203","20386","17277","16337","21320","17561","16512","23303","19753","18723",""
"MA200-0416","25375","68","1","1.10","1.4","2023-05-14T09:33:00","120","2023/05/14","09:33:00","-15.804189503192902","35.04237949475646","14.1","13","30","64","84","-24636","-252","-5332","5","150","149.57","117.90","31.67","27.98","43.3","14.34","89480","27.75","DUALSPOT-UV-BLUE-GREEN-RED-IR","740316","711265","906569","14.336403","3.661838","-0.001058","729151","899427","765757","10.436840","2.538936","-0.013551","826140","903183","814286","8.711422","2.022069","-0.022192","825064","926026","864948","7.012525","1.530212","-0.044560","711840","850388","952455","5.051178","1.138943","-0.010723","10746","10627","10586","11267","10211","9871","11179","9789","9368","11694","9517","8910","12597","12096","11950",""
"MA200-0416","25376","68","1","1.10","1.4","2023-05-14T09:33:30","120","2023/05/14","09:33:30","-15.803687334060669","35.046562153846025","14.7","13","30","64","84","-25016","1856","-5484","5","150","149.57","118.18","31.39","28.01","43.2","14.34","89464","27.81","DUALSPOT-UV-BLUE-GREEN-RED-IR","736569","709737","905692","14.752554","3.777288","0.003829","726458","898266","765443","10.773802","2.629554","0.001516","823748","902500","814337","9.006619","2.099842","-0.001177","823081","925489","864999","7.262168","1.594162","-0.006562","710624","850139","952591","5.240282","1.186231","-0.015603","20683","21604","21921","21137","21402","21488","20738","20571","20520","21193","20441","20229","22353","21046","20663",""
"MA200-0416","25377","68","1","1.10","1.4","2023-05-14T09:34:00","120","2023/05/14","09:34:00","-15.801673889160156","35.05037549510598","15.2","13","30","64","84","-24956","-1168","-4452","5","150","149.46","118.00","31.46","28.03","43.2","14.36","89436","27.75","DUALSPOT-UV-BLUE-GREEN-RED-IR","733359","707384","903021","14.899885","3.817070","0.001132","723643","895507","763308","10.885550","2.658540","-0.003418","821879","901063","813204","9.100301","2.122431","-0.015645","821056","923747","863468","7.337154","1.611274","-0.030849","709145","848717","951138","5.296467","1.200056","-0.020909","7333","7427","7459","7020","6830","6768","6591","5961","5769","6375","5457","5198","6651","6138","5988",""
"MA200-0416","25378","68","1","1.10","1.4","2023-05-14T09:34:30","120","2023/05/14","09:34:30","-15.801794946193695","35.054664488881826","18.1","13","30","64","84","-24956","-1927","-4344","5","150","149.33","117.90","31.43","28.05","43.2","14.36","89356","27.75","DUALSPOT-UV-BLUE-GREEN-RED-IR","734724","709038","905304","14.971651","3.835804","-0.001909","725323","897908","765459","10.934131","2.669656","-0.021064","822163","901707","813825","9.141469","2.131384","-0.034565","822110","925173","864853","7.369929","1.616252","-0.166647","709440","849201","951697","5.320558","1.205145","-0.068864","3575","3501","3475","3054","2622","2482","2899","2365","2202","2788","1588","1251","2854","2262","2089",""
"MA200-0416","25379","68","1","1.10","1.4","2023-05-14T09:35:00","120","2023/05/14","09:35:00","-15.803806602954865","35.059221155941486","17.7","13","30","64","84","-24752","-544","-6296","5","150","149.57","117.54","32.02","28.08","43.1","14.34","89228","27.75","DUALSPOT-UV-BLUE-GREEN-RED-IR","733897","708558","904818","15.034662","3.851667","-0.007563","724370","897025","764766","10.980532","2.680469","-0.021571","822198","901938","814124","9.181297","2.139806","-0.044894","822501","925838","865500","7.401321","1.622599","-0.066591","709607","849570","952154","5.342165","1.208832","-0.174851","3148","2909","2827","2926","2502","2366","2813","2183","1992","2679","1988","1794","2567","1608","1327",""
"MA200-0416","25380","68","1","1.10","1.4","2023-05-14T09:35:30","120","2023/05/14","09:35:30","-15.804381132125854","35.06397499144077","18.1","13","30","64","84","-25048","-784","-6852","5","150","150.42","118.04","32.38","28.09","43.0","14.31","89180","27.75","DUALSPOT-UV-BLUE-GREEN-RED-IR","730742","708025","905438","15.533062","3.996477","0.004758","721947","896678","765316","11.387104","2.794891","0.002929","823250","905433","818086","9.532285","2.236331","0.000357","819260","924137","864600","7.690313","1.699740","-0.004640","707615","848449","951466","5.549869","1.263814","-0.008536","24799","26269","26778","25533","26198","26414","24685","24750","24770","24562","23902","23715","24580","23721","23468",""
"MA200-0416","25381","68","1","1.10","1.4","2023-05-14T09:36:00","120","2023/05/14","09:36:00","-15.804709076881409","35.06622165441513","5.0","13","30","64","84","-24764","-1943","-4324","5","150","150.03","119.13","30.90","28.10","42.9","14.30","89180","27.75","DUALSPOT-UV-BLUE-GREEN-RED-IR","728327","705950","902922","15.586353","4.012333","0.010618","719961","894404","763479","11.423842","2.803712","-0.009536","821863","904103","816941","9.562516","2.242136","-0.053654","816515","921242","861953","7.716622","1.704276","-0.097859","705893","846524","949318","5.568924","1.266621","-0.227588","2627","3014","3148","2286","2116","2061","2106","1559","1392","2215","1472","1262","2234","1269","985",""
"MA200-0416","25382","68","1","1.10","1.4","2023-05-14T09:36:30","120","2023/05/14","09:36:30","-15.805034458637238","35.0687844902277","9.3","13","30","64","84","-24976","-1400","-4928","5","150","150.16","118.38","31.78","28.11","42.8","14.26","89060","27.75","DUALSPOT-UV-BLUE-GREEN-RED-IR","730241","708372","906300","15.692028","4.040222","-0.001498","720710","895930","764936","11.508181","2.825374","-0.005307","818441","900879","814139","9.634018","2.259415","-0.015583","819098","924600","865179","7.775643","1.717680","-0.031703","707471","848736","951874","5.612489","1.277143","-0.026642","5243","5153","5122","5281","5052","4977","5014","4513","4360","5002","4231","4012","5141","4624","4472",""
"MA200-0416","25383","68","1","1.10","1.4","2023-05-14T09:37:00","120","2023/05/14","09:37:00","-15.804280817508698","35.07149615138769","12.0","13","30","64","84","-24780","-2848","-5172","5","150","149.57","118.38","31.19","28.13","42.6","14.23","88864","27.75","DUALSPOT-UV-BLUE-GREEN-RED-IR","729303","708004","906121","15.790386","4.068548","0.007055","720415","896110","765287","11.583548","2.845169","-0.000361","817441","900212","813707","9.697575","2.275925","-0.001927","818138","923918","864651","7.827242","1.729399","-0.027509","706674","848018","951178","5.650333","1.286448","-0.016745","4880","5334","5492","4719","4705","4700","4457","4394","4375","4373","3769","3598","4465","4167","4079",""
"MA200-0416","25384","68","1","1.10","1.4","2023-05-14T09:37:30","120","2023/05/14","09:37:30","-15.803211033344269","35.074335142970085","8.7","13","30","64","84","-24924","-863","-5792","5","150","149.76","119.21","30.55","28.14","42.6","14.24","88728","27.75","DUALSPOT-UV-BLUE-GREEN-RED-IR","729091","708418","906911","15.912243","4.100818","0.002701","715425","890454","760595","11.677359","2.868587","-0.003049","817111","900362","813995","9.777308","2.295356","-0.007009","817944","924127","865002","7.891611","1.744950","-0.010070","706538","848173","951457","5.697725","1.296717","-0.043882","6003","6204","6273","5833","5682","5633","5552","5280","5196","5417","5106","5018","5553","4695","4442",""
"MA200-0416","25385","68","1","1.10","1.4","2023-05-14T09:38:00","120","2023/05/14","09:38:00","-15.802530527114868","35.07579465955496","6.6","13","30","64","83","-24608","-1808","-5400","5","150","149.80","118.95","30.85","28.16","42.5","14.22","88664","27.75","DUALSPOT-UV-BLUE-GREEN-RED-IR","726254","706121","904196","16.011683","4.127971","0.004156","717753","893849","763636","11.751660","2.888525","0.003745","815767","899281","813084","9.839577","2.309597","-0.018562","816518","922884","863917","7.941983","1.755464","-0.042085","705460","847087","950300","5.733780","1.304942","-0.032210","4910","5170","5260","4630","4791","4843","4346","3832","3675","4248","3419","3184","4234","3724","3574",""
"MA200-0416","25386","68","1","1.10","1.4","2023-05-14T09:38:30","120","2023/05/14","09:38:30","-15.801621198654175","35.07733333110809","6.0","13","30","64","84","-24676","-1316","-5252","5","150","150.01","119.00","31.00","28.17","42.4","14.19","88660","27.81","DUALSPOT-UV-BLUE-GREEN-RED-IR","728503","708516","907375","16.052921","4.139635","0.006439","719973","896766","766169","11.779731","2.895767","-0.001127","816940","900734","814484","9.863681","2.316599","0.013256","818719","925470","866377","7.960260","1.759345","-0.039146","706848","848891","952345","5.749679","1.308299","-0.056587","2035","2209","2270","1748","1731","1725","1681","1875","1934","1540","1255","1174","1866","1512","1408",""
"MA200-0416","25387","68","1","1.10","1.4","2023-05-14T09:39:00","120","2023/05/14","09:39:00","-15.800856411457062","35.0785953104496","5.3","13","30","64","83","-25052","-1827","-5548","5","150","149.70","118.66","31.04","28.18","42.6","14.29","88628","27.81","DUALSPOT-UV-BLUE-GREEN-RED-IR","727652","707832","906590","16.084072","4.146930","-0.010222","719384","896242","765733","11.803101","2.898359","-0.273229","817111","901060","814785","9.883332","2.317434","1.174415","819222","926199","867027","7.976394","1.760721","-0.801655","706822","848893","952376","5.759763","1.309769","-0.232842","1542","1380","1324","1460","619","345","1375","223","-129","1364","444","184","1187","661","507",""
"MA200-0416","25388","68","1","1.10","1.4","2023-05-14T09:39:30","120","2023/05/14","09:39:30","-15.800308763980865","35.07953931391239","0.0","13","30","64","84","-25008","-1232","-3568","5","150","149.81","118.89","30.91","28.20","42.8","14.36","88596","27.81","DUALSPOT-UV-BLUE-GREEN-RED-IR","728784","709120","908312","16.121119","4.156904","0.002820","715700","891840","762046","11.829294","2.904714","-0.008246","817214","901353","815076","9.905809","2.323145","-0.003117","818692","925724","866643","7.994463","1.764190","-0.063220","706800","848969","952449","5.771839","1.311669","-0.181150","1830","1894","1917","1633","1523","1488","1569","1533","1522","1524","1125","1012","1418","858","693",""
"MA200-0416","25389","68","1","1.10","1.4","2023-05-14T09:40:00","120","2023/05/14","09:40:00","-15.800000607967377","35.07979999482632","4.4","13","30","64","84","-24588","-2776","-5436","5","150","149.63","118.77","30.86","28.20","43.0","14.43","88584","27.88","DUALSPOT-UV-BLUE-GREEN-RED-IR","729159","709716","909203","16.163767","4.169437","0.009294","715567","891851","762116","11.859441","2.911836","-0.011515","817749","902118","815836","9.930563","2.328580","-0.025507","814011","920548","861849","8.012661","1.767022","-0.132297","707758","850215","953919","5.786752","1.315159","-0.025426","2109","2385","2481","1881","1711","1655","1730","1462","1380","1537","920","746","1754","1580","1529",""
"MA200-0416","25390","68","1","1.10","1.4","2023-05-14T09:40:30","120","2023/05/14","09:40:30","-15.798915147781372","35.079116985201836","5.7","13","30","64","83","-24672","1416","-5700","5","150","149.45","118.34","31.11","28.23","43.1","14.48","88604","27.88","DUALSPOT-UV-BLUE-GREEN-RED-IR","720463","703282","902060","16.300318","4.209423","0.008167","714088","892278","763242","11.972335","2.942777","0.004463","815609","901751","816180","10.021389","2.351575","-0.005056","811770","919691","861597","8.086445","1.785380","-0.009120","706439","849713","953821","5.839113","1.328280","-0.011039","6777","7549","7818","7072","7373","7471","6372","6136","6064","6255","5920","5825","6181","5891","5806",""
"MA200-0416","25391","68","1","1.10","1.4","2023-05-14T09:41:00","120","2023/05/14","09:41:00","-15.79805201292038","35.077641651034355","5.6","13","30","64","84","-24728","-624","-5684","5","150","149.86","118.76","31.10","28.25","43.0","14.49","88700","27.88","DUALSPOT-UV-BLUE-GREEN-RED-IR","721834","708205","910297","17.281580","4.500543","0.008811","709778","890715","763226","12.811006","3.184688","0.009282","810449","899539","815436","10.768048","2.561831","0.008345","808097","918661","861745","8.721967","1.959550","0.006483","703661","848558","953361","6.303987","1.450481","0.000767","48532","54979","57249","52353","57662","59418","52198","56126","57352","53689","56184","56907","54683","54888","54949",""
"MA200-0416","25392","68","1","1.10","1.4","2023-05-14T09:41:30","120","2023/05/14","09:41:30","-15.797313034534454","35.07641031593084","4.1","13","30","64","84","-24968","516","-5620","5","150","149.76","118.05","31.71","28.25","43.0","14.48","88716","27.88","DUALSPOT-UV-BLUE-GREEN-RED-IR","715120","702031","902541","17.369482","4.525184","0.003193","709770","891145","763740","12.881383","3.203565","-0.000172","810654","900145","816099","10.828424","2.577561","-0.003820","808127","919013","862153","8.772631","1.971674","-0.018712","703665","848796","953682","6.341997","1.459025","-0.042449","4373","4563","4630","4419","4412","4409","4246","4117","4077","4305","3835","3698","4497","3763","3543",""
"MA200-0416","25393","68","1","1.10","1.4","2023-05-14T09:42:00","120","2023/05/14","09:42:00","-15.796937346458435","35.07560747116804","3.1","13","30","64","84","-23953","2003","-5688","5","150","150.09","118.66","31.44","28.27","42.9","14.48","88784","27.88","DUALSPOT-UV-BLUE-GREEN-RED-IR","714769","701893","902479","17.419410","4.539713","0.006730","708856","890208","763015","12.917919","3.214162","0.008673","810788","900467","816436","10.861334","2.586102","-0.002542","808356","919430","862580","8.798985","1.977843","-0.020095","703923","849209","954208","6.362560","1.464532","0.002181","2471","2714","2799","2282","2499","2570","2302","2255","2240","2228","1968","1893","2420","2447","2455",""
"MA200-0416","25394","68","1","1.10","1.4","2023-05-14T09:42:30","120","2023/05/14","09:42:30","-15.795872151851654","35.0759018138051","5.1","13","30","64","83","-24828","904","-5312","5","150","149.09","119.25","29.83","28.28","43.0","14.52","88804","27.88","DUALSPOT-UV-BLUE-GREEN-RED-IR","719003","706565","908731","17.499556","4.561298","0.005361","707438","888912","762063","12.981363","3.228260","-0.013483","808897","898821","815084","10.914873","2.597933","-0.016571","805911","917041","860443","8.842767","1.988656","-0.001914","702410","847631","952493","6.395303","1.471122","-0.053233","3947","4249","4356","3944","3502","3356","3727","3292","3156","3683","3635","3622","3835","3085","2861",""
"MA200-0416","25395","68","1","1.10","1.4","2023-05-14T09:43:00","120","2023/05/14","09:43:00","-15.794786870479584","35.076269306242466","4.0","13","30","64","84","-25147","852","-4825","5","150","150.30","118.80","31.51","28.29","43.1","14.57","88896","27.94","DUALSPOT-UV-BLUE-GREEN-RED-IR","713959","701929","902997","17.571600","4.583128","0.009197","708513","890634","763644","13.036856","3.244520","0.009394","809822","900188","816418","10.962937","2.610736","0.000521","809030","920842","864090","8.881001","1.995832","-0.068147","703890","849627","954804","6.424034","1.476253","-0.114634","3562","4069","4248","3462","3825","3946","3359","3373","3378","3229","2285","2011","3378","2274","1945",""
"MA200-0416","25396","68","1","1.10","1.4","2023-05-14T09:43:30","120","2023/05/14","09:43:30","-15.79403269290924","35.07477047294378","5.7","13","30","64","84","-25000","-807","-5000","5","150","150.09","119.01","31.08","28.30","43.1","14.56","89060","27.94","DUALSPOT-UV-BLUE-GREEN-RED-IR","714796","703053","904537","17.637856","4.602602","0.008228","709747","892450","765259","13.088191","3.257846","-0.000604","810396","901029","817246","11.007863","2.622336","-0.001374","808914","920933","864238","8.918629","2.005929","0.003844","704061","849993","955236","6.449941","1.483099","0.002331","3269","3680","3824","3197","3178","3172","3133","3098","3087","3171","3259","3284","3040","3076","3087",""
"MA200-0416","25397","68","1","1.10","1.4","2023-05-14T09:44:00","120","2023/05/14","09:44:00","-15.793173670768738","35.073424980044365","5.7","13","30","64","83","-24980","-3455","-5372","5","150","149.43","117.96","31.47","28.32","43.1","14.57","89012","28.00","DUALSPOT-UV-BLUE-GREEN-RED-IR","714969","703353","905017","17.670384","4.610656","-0.006097","709791","892646","765466","13.110698","3.263015","-0.017376","810681","901499","817700","11.026582","2.624779","-0.184420","809785","921992","865261","8.932831","2.007126","-0.837271","704555","850666","956009","6.462150","1.485282","-0.115920","1619","1503","1462","1414","1217","1152","1317","644","434","1207","381","142","1445","968","826",""
"MA200-0416","25398","68","1","1.10","1.4","2023-05-14T09:44:30","120","2023/05/14","09:44:30","-15.792181730270386","35.07251364737749","4.6","13","30","64","83","-25916","-2008","-3844","5","150","149.44","118.38","31.06","28.34","43.0","14.58","89012","28.00","DUALSPOT-UV-BLUE-GREEN-RED-IR","716042","704536","906654","17.699960","4.620138","0.013039","706132","888162","761674","13.130781","3.267599","-0.015977","810716","901669","817871","11.045268","2.630228","0.011532","810630","923081","866299","8.947366","2.010011","-0.051192","700222","845497","950211","6.472618","1.487023","-0.139852","1467","1792","1907","1257","1093","1039","1310","1456","1501","1231","931","844","1235","783","648",""
"MA200-0416","25399","68","1","1.10","1.4","2023-05-14T09:45:00","120","2023/05/14","09:45:00","-15.791309118270874","35.07207064330578","5.6","14","30","64","83","-24648","-520","-5176","5","150","150.18","119.13","31.05","28.37","43.1","14.62","88948","28.06","DUALSPOT-UV-BLUE-GREEN-RED-IR","715410","704129","906167","17.735692","4.628652","-0.007413","710168","893448","766238","13.157619","3.272832","-0.038334","806630","897227","813876","11.064813","2.632546","-0.226797","811551","924281","867467","8.965303","2.013481","-0.055655","700620","846027","950824","6.484571","1.489622","-0.042349","1761","1610","1557","1670","1249","1110","1362","619","388","1510","1120","1007","1401","1169","1099",""
"MA200-0416","25400","68","1","1.10","1.4","2023-05-14T09:45:30","120","2023/05/14","09:45:30","-15.789924323558807","35.07275481522083","5.5","14","30","64","83","-24920","356","-3860","5","150","149.73","118.75","30.98","28.39","43.1","14.63","89020","28.13","DUALSPOT-UV-BLUE-GREEN-RED-IR","714674","703547","905521","17.768750","4.638672","0.010116","705650","887911","761549","13.180014","3.278560","-0.002022","805478","896121","812933","11.084565","2.637582","-0.002749","810085","922727","866017","8.980302","2.015197","-0.291532","699480","844747","949444","6.495916","1.491819","-0.077308","1634","1899","1993","1397","1370","1361","1380","1349","1340","1267","555","350","1334","990","888",""
"MA200-0416","25401","68","1","1.10","1.4","2023-05-14T09:46:00","120","2023/05/14","09:46:00","-15.78854501247406","35.07345914840698","5.9","14","30","64","83","-24508","-204","-5904","5","150","150.36","118.93","31.43","28.41","43.1","14.64","89112","28.13","DUALSPOT-UV-BLUE-GREEN-RED-IR","717857","706885","909928","17.806290","4.648962","0.002706","707642","890585","763869","13.205709","3.285556","0.002968","807159","898147","814788","11.105007","2.640968","-0.086396","806694","919005","862534","8.996196","2.017659","-0.127072","701267","846990","951984","6.509880","1.494779","-0.053022","1853","1923","1947","1601","1650","1666","1426","894","728","1340","785","625","1640","1315","1219",""
"MA200-0416","25402","68","1","1.10","1.4","2023-05-14T09:46:30","120","2023/05/14","09:46:30","-15.78737998008728","35.07390397042036","5.9","14","30","64","83","-24468","888","-5020","5","150","150.58","119.09","31.49","28.44","43.1","14.67","89192","28.19","DUALSPOT-UV-BLUE-GREEN-RED-IR","711287","700601","901958","17.848500","4.662760","0.013567","708114","891426","764629","13.233507","3.291469","-0.026623","807507","898692","815321","11.128137","2.647209","0.002325","807397","919947","863438","9.014410","2.021420","-0.043707","701618","847531","952617","6.521595","1.496604","-0.175424","2081","2573","2747","1730","1391","1279","1612","1645","1655","1534","1198","1100","1374","809","640",""
"MA200-0416","25403","68","1","1.10","1.4","2023-05-14T09:47:00","120","2023/05/14","09:47:00","-15.786140501499176","35.07448948174715","4.7","14","30","64","83","-24730","-396","-5550","5","150","149.70","118.50","31.20","28.46","43.1","14.70","89260","28.19","DUALSPOT-UV-BLUE-GREEN-RED-IR","712649","702258","904249","17.904944","4.682823","0.017957","708719","892412","765598","13.272787","3.306001","0.026399","808382","899850","816475","11.159929","2.657866","0.023646","808017","920790","864327","9.039055","2.030212","0.034733","702280","848393","953671","6.539383","1.504843","0.075927","2797","3776","4123","2457","3452","3782","2227","2835","3025","2086","2827","3041","2097","3689","4164",""
"MA200-0416","25404","68","1","1.10","1.4","2023-05-14T09:47:30","120","2023/05/14","09:47:30","-15.785109519958496","35.075149320065975","5.0","14","30","64","83","-24816","1244","-5524","5","150","149.67","118.61","31.06","28.49","43.1","14.74","89340","28.25","DUALSPOT-UV-BLUE-GREEN-RED-IR","712841","702635","904904","17.953426","4.698723","0.014179","708777","892640","765841","13.304750","3.314621","0.002840","809144","900869","817458","11.186299","2.663874","-0.018409","810253","923486","866904","9.061410","2.034926","-0.037023","703272","849714","955163","6.554582","1.507295","-0.151829","2400","3006","3220","1997","2056","2076","1845","1605","1530","1891","1522","1415","1790","1102","897",""
"MA200-0416","25405","68","1","1.10","1.4","2023-05-14T09:48:00","120","2023/05/14","09:48:00","-15.784608244895935","35.07592665404081","2.4","14","30","64","83","-24636","976","-3423","5","150","150.03","118.66","31.37","28.52","43.1","14.76","89452","28.25","DUALSPOT-UV-BLUE-GREEN-RED-IR","713448","703480","906098","18.000512","4.711479","0.001795","704722","887710","761687","13.334188","3.321701","-0.010240","809396","901323","817924","11.209520","2.669948","-0.001274","809933","923250","866703","9.078233","2.037406","-0.146394","703384","849908","955459","6.567508","1.509962","-0.060822","2330","2388","2408","1839","1673","1618","1624","1607","1601","1422","792","610","1521","1187","1087",""
"MA200-0416","25406","68","1","1.10","1.4","2023-05-14T09:48:30","120","2023/05/14","09:48:30","-15.78506076335907","35.07642898708582","2.3","14","30","64","83","-26040","-1748","-3912","5","150","150.23","119.05","31.17","28.55","43.1","14.78","89460","28.31","DUALSPOT-UV-BLUE-GREEN-RED-IR","714304","704572","907654","18.051570","4.726608","0.008381","705619","889052","762906","13.366944","3.330785","0.005453","804701","896262","813331","11.234819","2.674079","-0.086936","810546","924132","867570","9.099985","2.042157","-0.029903","703320","849955","955520","6.583116","1.513071","-0.068465","2519","2850","2968","2039","2160","2200","1764","1100","892","1833","1528","1440","1831","1393","1262",""
"MA200-0416","25407","68","1","1.10","1.4","2023-05-14T09:49:00","120","2023/05/14","09:49:00","-15.785443305969238","35.076894313097","2.6","14","30","64","83","-25757","-534","-3469","5","150","150.43","118.81","31.61","28.57","43.2","14.82","89472","28.38","DUALSPOT-UV-BLUE-GREEN-RED-IR","713871","704441","907602","18.106598","4.740579","-0.003642","705699","889434","763289","13.402267","3.337753","-0.039158","809201","901525","818166","11.266067","2.680998","-0.025029","804974","917927","861744","9.121015","2.044534","-0.313844","699000","844837","949766","6.599293","1.516208","-0.082232","2720","2596","2551","2203","1634","1445","2183","1817","1703","1775","754","459","1901","1386","1232",""
"MA200-0416","25408","68","1","1.10","1.4","2023-05-14T09:49:30","120","2023/05/14","09:49:30","-15.785877227783203","35.07741764932871","2.7","13","30","64","83","-24868","-4404","-6811","5","150","149.66","118.59","31.07","28.60","43.2","14.85","89464","28.44","DUALSPOT-UV-BLUE-GREEN-RED-IR","715290","706098","909873","18.155228","4.755035","0.008484","706449","890583","764313","13.432738","3.345222","-0.007022","805616","897671","814710","11.289222","2.685154","-0.062471","807035","920438","864156","9.140056","2.047473","-0.123209","700093","846241","951391","6.612837","1.519036","-0.054219","2408","2732","2847","1904","1781","1740","1621","1110","950","1610","948","757","1595","1271","1174",""
"MA200-0416","25409","68","1","1.10","1.4","2023-05-14T09:50:00","120","2023/05/14","09:50:00","-15.786310911178589","35.077945813536644","2.5","13","30","64","82","-24761","-3857","-3434","5","150","150.62","119.21","31.41","28.64","43.3","14.93","89380","28.44","DUALSPOT-UV-BLUE-GREEN-RED-IR","707787","699013","900880","18.214302","4.771011","0.001894","705842","890123","763970","13.469838","3.352666","-0.034532","805431","897703","814774","11.316809","2.689832","-0.077554","805670","919076","862845","9.160673","2.049779","-0.312817","699169","845260","950305","6.629732","1.522386","-0.071368","2910","2987","3014","2307","1756","1574","1921","1236","1023","1735","736","448","1979","1489","1343",""
"MA200-0416","25410","68","1","1.10","1.4","2023-05-14T09:50:30","120","2023/05/14","09:50:30","-15.787163496017456","35.077945314347744","3.9","13","30","64","83","-25036","-1811","-4336","5","150","149.54","118.38","31.17","28.68","43.4","15.00","89308","28.50","DUALSPOT-UV-BLUE-GREEN-RED-IR","710901","702283","905226","18.261494","4.784210","0.004261","704011","887974","762211","13.500949","3.361511","0.007119","806761","899354","816314","11.342219","2.694810","-0.044588","809470","923500","867070","9.177972","2.051997","-0.212400","701063","847635","952984","6.642872","1.525159","-0.052204","2341","2487","2539","1948","2103","2155","1782","1325","1183","1466","713","497","1550","1243","1151",""
"MA200-0416","25411","68","1","1.10","1.4","2023-05-14T09:51:00","120","2023/05/14","09:51:00","-15.78802752494812","35.07768999040127","3.5","13","30","64","83","-25012","-1432","-5196","5","150","149.90","118.85","31.04","28.71","43.3","15.01","89280","28.56","DUALSPOT-UV-BLUE-GREEN-RED-IR","711663","703234","906596","18.304488","4.797950","0.012708","704618","888944","763108","13.528301","3.368002","-0.010245","807209","899984","816933","11.362002","2.698874","-0.034191","804541","918042","861982","9.195940","2.055776","-0.036412","701686","848489","953994","6.657058","1.527909","-0.075608","2124","2599","2768","1706","1550","1498","1381","1087","995","1516","1221","1136","1667","1237","1109",""
"MA200-0416","25412","68","1","1.10","1.4","2023-05-14T09:51:30","120","2023/05/14","09:51:30","-15.789064466953278","35.07758064568043","4.1","13","30","64","83","-24757","-3065","-4984","5","150","149.96","118.93","31.03","28.75","43.2","14.99","89224","28.56","DUALSPOT-UV-BLUE-GREEN-RED-IR","712720","704480","908325","18.347306","4.812425","0.015599","705816","890593","764571","13.553361","3.375925","0.016228","807930","900935","817835","11.383382","2.705192","0.013027","805608","919353","863223","9.212748","2.060211","0.001561","702249","849230","954870","6.668791","1.530227","-0.068886","2114","2740","2962","1562","1892","2002","1492","1690","1752","1417","1433","1438","1378","1043","944",""
"MA200-0416","25413","68","1","1.10","1.4","2023-05-14T09:52:00","120","2023/05/14","09:52:00","-15.790033400058746","35.07777614891529","2.8","14","30","64","83","-25040","-2520","-4156","5","150","149.33","118.06","31.27","28.78","43.0","14.95","89152","28.63","DUALSPOT-UV-BLUE-GREEN-RED-IR","707433","699455","901907","18.387508","4.823923","0.005311","705976","890961","764947","13.579189","3.381742","-0.018319","804856","897645","814882","11.404163","2.709585","-0.031582","807823","921973","865732","9.228128","2.062434","-0.152664","703598","850973","956820","6.681389","1.532492","-0.106940","2000","2159","2216","1621","1379","1298","1461","1166","1074","1307","713","542","1490","1011","869",""
"MA200-0416","25414","68","1","1.10","1.4","2023-05-14T09:52:30","120","2023/05/14","09:52:30","-15.790297210216522","35.07864531874657","3.4","14","30","64","83","-24496","-3976","-6216","5","150","150.56","118.54","32.02","28.82","42.9","14.94","89024","28.69","DUALSPOT-UV-BLUE-GREEN-RED-IR","708290","700540","903467","18.433142","4.837833","0.008044","702829","887198","761759","13.607906","3.388656","-0.012441","805045","898002","815237","11.425335","2.712190","-0.218420","808007","922383","866098","9.246117","2.063888","-0.996304","699326","845878","951123","6.696382","1.535708","-0.054499","2261","2551","2654","1795","1600","1535","1482","675","424","1522","455","149","1767","1402","1294",""
"MA200-0416","25415","68","1","1.10","1.4","2023-05-14T09:53:00","120","2023/05/14","09:53:00","-15.791104853153229","35.07884665578604","5.5","14","30","64","82","-24576","-2528","-6052","5","150","150.06","118.43","31.63","28.86","42.7","14.92","88944","28.69","DUALSPOT-UV-BLUE-GREEN-RED-IR","707045","699715","902549","18.508050","4.858330","0.001724","701745","886129","760943","13.654828","3.401310","0.000918","804631","897796","815119","11.462414","2.721679","-0.005080","807132","921543","865357","9.271918","2.069830","-0.023260","698961","845538","950789","6.713600","1.539155","-0.071771","3715","3805","3837","2937","2965","2974","2599","2490","2456","2185","1884","1798","2030","1521","1370",""
"MA200-0416","25416","68","1","1.10","1.4","2023-05-14T09:53:30","120","2023/05/14","09:53:30","-15.792417228221893","35.07808514684439","7.0","14","30","64","83","-24720","-475","-5444","5","150","149.51","117.78","31.73","28.90","42.5","14.87","88932","28.75","DUALSPOT-UV-BLUE-GREEN-RED-IR","709825","702674","906529","18.558656","4.873768","0.008211","704038","889213","763652","13.685726","3.410638","0.010134","801830","894843","812485","11.486496","2.728181","0.000268","804227","918367","862451","9.290120","2.073986","-0.026316","700615","847670","953220","6.728229","1.542264","-0.056033","2523","2858","2977","1944","2179","2257","1697","1701","1702","1550","1313","1245","1735","1368","1260",""
"MA200-0416","25417","68","1","1.10","1.4","2023-05-14T09:54:00","120","2023/05/14","09:54:00","-15.793661713600159","35.077099315822124","5.7","14","30","64","82","-24832","-1660","-6552","5","150","149.31","118.23","31.07","28.93","42.2","14.80","88956","28.75","DUALSPOT-UV-BLUE-GREEN-RED-IR","710378","703432","907598","18.598612","4.886165","0.010578","704507","889977","764343","13.710968","3.416723","-0.009034","806575","900299","817456","11.505921","2.731407","-0.081165","804694","919019","863034","9.304259","2.074993","-1.633363","700609","847733","953311","6.740907","1.545670","0.004171","1984","2343","2471","1582","1451","1408","1364","861","705","1199","325","74","1497","1531","1541",""
"MA200-0416","25418","68","1","1.10","1.4","2023-05-14T09:54:30","120","2023/05/14","09:54:30","-15.794769048690796","35.07653631269932","5.4","14","30","64","82","-24892","-2092","-6704","5","150","149.85","118.05","31.81","28.97","41.9","14.73","88892","28.81","DUALSPOT-UV-BLUE-GREEN-RED-IR","708987","702672","906910","18.701780","4.913425","-0.001438","703639","889401","764009","13.777584","3.432220","-0.016135","801475","895005","812808","11.559202","2.744871","-0.007671","806190","921057","865042","9.343811","2.083206","-0.044786","700830","848228","953952","6.771698","1.552277","-0.053000","5133","5034","4998","4183","3612","3422","3747","3514","3442","3361","2590","2369","3643","2901","2681",""
"MA200-0416","25419","68","1","1.10","1.4","2023-05-14T09:55:00","120","2023/05/14","09:55:00","-15.79617577791214","35.07577499002218","6.2","14","30","64","83","-24736","-2068","-5392","5","150","150.03","118.46","31.57","29.00","41.8","14.70","88808","28.81","DUALSPOT-UV-BLUE-GREEN-RED-IR","709693","703565","908200","18.763026","4.930006","0.001115","704688","890904","765330","13.818734","3.442587","-0.005708","805843","900060","817422","11.591990","2.752971","-0.009139","805951","920895","864916","9.370086","2.088535","-0.047420","700726","848216","953952","6.794012","1.557934","-0.009945","3036","3084","3101","2575","2433","2386","2298","2130","2077","2225","1693","1540","2631","2503","2464",""
"MA200-0416","25420","68","1","1.10","1.4","2023-05-14T09:55:30","120","2023/05/14","09:55:30","-15.797028839588165","35.07582715153694","3.3","14","30","64","83","-24884","-3464","-4472","5","150","150.03","118.18","31.85","29.03","41.7","14.70","88772","28.88","DUALSPOT-UV-BLUE-GREEN-RED-IR","708633","704626","910473","19.134890","5.022098","-0.006457","703592","891321","766173","14.059282","3.499656","-0.013483","800542","895487","813665","11.775869","2.794236","-0.023868","805067","920983","865279","9.504262","2.118415","-0.030292","700338","848489","954522","6.901005","1.581856","-0.041129","18482","16983","16449","15089","13283","12684","12918","10756","10083","11390","9412","8844","12647","10492","9851",""
"MA200-0416","25421","68","1","1.10","1.4","2023-05-14T09:56:00","120","2023/05/14","09:56:00","-15.797447443008423","35.07665381580591","4.0","14","30","64","82","-24516","-2096","-5896","5","150","149.71","118.44","31.26","29.06","41.5","14.65","88716","28.94","DUALSPOT-UV-BLUE-GREEN-RED-IR","705358","702198","907687","19.299544","5.064493","-0.001782","701177","888997","764380","14.176427","3.529567","-0.003209","803296","899213","817200","11.871531","2.816396","-0.016095","803956","920269","864737","9.578924","2.134049","-0.037819","699233","847556","953629","6.962202","1.596433","-0.020822","8165","7964","7893","7331","7092","7012","6705","5884","5629","6324","5017","4642","7217","6513","6303",""
"MA200-0416","25422","68","1","1.10","1.4","2023-05-14T09:56:30","120","2023/05/14","09:56:30","-15.798051595687866","35.07768131792545","4.0","14","30","64","82","-24744","-392","-6100","5","150","149.76","118.38","31.39","29.09","41.3","14.63","88708","28.94","DUALSPOT-UV-BLUE-GREEN-RED-IR","700822","698311","902991","19.445428","5.103452","0.000498","698136","885771","761789","14.285542","3.554815","-0.014282","800030","896139","814571","11.966484","2.836937","-0.026586","806263","923370","867810","9.660110","2.150947","-0.039572","700342","849261","955665","7.026745","1.611620","-0.024350","7238","7290","7309","6833","5963","5675","6659","5433","5052","6880","5401","4977","7616","6759","6503",""
"MA200-0416","25423","68","1","1.10","1.4","2023-05-14T09:57:00","120","2023/05/14","09:57:00","-15.798627853393555","35.07864297926426","4.0","14","30","64","82","-25124","-2984","-5420","5","150","149.71","117.91","31.80","29.14","41.2","14.62","88664","28.94","DUALSPOT-UV-BLUE-GREEN-RED-IR","700179","697901","902523","19.480974","5.112472","-0.004480","697891","885644","761745","14.309700","3.560066","-0.024358","799379","895583","814080","11.986974","2.840810","-0.053773","804415","921386","865973","9.675751","2.153904","-0.064686","699295","848060","954330","7.040689","1.613899","-0.148526","1770","1665","1628","1518","1224","1126","1442","1011","877","1330","932","818","1652","1001","807",""
"MA200-0416","25424","68","1","1.10","1.4","2023-05-14T09:57:30","120","2023/05/14","09:57:30","-15.799183011054993","35.07959597557783","4.0","14","30","64","82","-24552","-2072","-5328","5","150","150.70","118.38","32.32","29.16","41.1","14.59","88568","29.00","DUALSPOT-UV-BLUE-GREEN-RED-IR","702599","700492","906015","19.522728","5.126455","0.012036","699375","887701","763553","14.337403","3.567541","-0.001114","801169","897737","816094","12.009265","2.846908","0.000204","801928","918668","863396","9.692344","2.154595","1.254556","696907","845296","951234","7.055214","1.616796","-0.076168","2071","2540","2708","1734","1714","1707","1563","1566","1567","1406","214","-126","1714","1252","1114",""
"MA200-0416","25425","68","1","1.10","1.4","2023-05-14T09:58:00","120","2023/05/14","09:58:00","-15.800019979476929","35.07983247935772","2.9","14","30","64","82","-25403","-469","-4880","5","150","147.77","117.50","30.27","29.20","41.0","14.58","88580","29.06","DUALSPOT-UV-BLUE-GREEN-RED-IR","701244","699305","904528","19.558734","5.137153","0.008806","698357","886568","762598","14.359985","3.572130","-0.027216","800014","896553","815008","12.026059","2.849388","-0.105563","800842","917560","862405","9.707581","2.157671","-0.039707","696008","844312","950137","7.067106","1.619104","-0.066566","1799","2076","2174","1424","1123","1024","1186","680","522","1300","1019","938","1413","1065","961",""
"MA200-0416","25426","68","1","1.10","1.4","2023-05-14T09:58:30","120","2023/05/14","09:58:30","-15.800106167793274","35.081139482557774","8.0","14","30","64","82","-24808","460","-5648","5","150","149.96","118.18","31.78","29.23","40.9","14.60","88612","29.06","DUALSPOT-UV-BLUE-GREEN-RED-IR","702010","700434","906202","19.628492","5.157327","0.004721","699246","888072","764001","14.415455","3.585983","-0.007295","800668","897620","816098","12.073847","2.860731","-0.015068","800928","917920","862786","9.745251","2.165556","-0.040906","696063","844551","950498","7.096798","1.625906","-0.033555","3467","3728","3821","3479","3230","3148","3357","2962","2840","3198","2489","2286","3509","2989","2834",""
"MA200-0416","25427","68","1","1.10","1.4","2023-05-14T09:59:00","120","2023/05/14","09:59:00","-15.798687517642975","35.08273797482252","8.3","14","30","64","82","-24556","28","-6056","5","150","150.30","118.15","32.15","29.27","41.0","14.64","88728","29.06","DUALSPOT-UV-BLUE-GREEN-RED-IR","704077","702986","909782","19.684670","5.173425","0.003407","696834","885502","761932","14.453626","3.594703","-0.018797","801211","898672","817173","12.103339","2.866542","-0.046784","803810","921592","866342","9.768869","2.168620","-0.210388","697517","846584","952867","7.114115","1.628708","-0.155712","2792","2940","2993","2395","2010","1883","2072","1500","1323","2005","955","656","2047","1217","971",""
"MA200-0416","25428","68","1","1.10","1.4","2023-05-14T09:59:30","120","2023/05/14","09:59:30","-15.79665493965149","35.08365781605244","8.6","14","30","72","82","-24634","592","-5526","5","150","150.11","118.07","32.04","29.30","40.9","14.64","88844","29.13","DUALSPOT-UV-BLUE-GREEN-RED-IR","609409","608871","788166","19.814170","5.210563","0.003614","695974","884852","761533","14.557198","3.624445","0.004947","796767","894074","813101","12.194462","2.891069","-0.000876","796584","913668","858980","9.845142","2.187937","-0.009513","697679","847028","953441","7.173366","1.643402","-0.017533","6442","6808","6939","6502","6881","7007","6407","6355","6339","6480","6049","5925","7010","6406","6227",""
"MA200-0416","25429","68","1","1.10","1.4","2023-05-14T10:00:00","120","2023/05/14","10:00:00","-15.794625282287598","35.08379915356636","7.0","14","30","64","82","-24736","-516","-4892","5","150","149.72","118.12","31.60","29.33","40.9","14.67","88888","29.13","DUALSPOT-UV-BLUE-GREEN-RED-IR","704177","703875","911324","19.871704","5.227895","0.007349","696687","886017","762601","14.594546","3.632587","-0.022410","797049","894635","813653","12.224160","2.896160","-0.072794","797373","914740","860060","9.868219","2.191228","-0.152271","697893","847452","953935","7.191158","1.646005","-0.198064","2860","3221","3350","2344","1910","1766","2087","1337","1104","1960","1044","783","2104","1150","867",""
"MA200-0416","25430","68","1","1.10","1.4","2023-05-14T10:00:30","120","2023/05/14","10:00:30","-15.792978942394257","35.084037490189075","6.1","14","30","64","82","-24938","-1342","-4526","5","150","150.01","117.84","32.17","29.36","40.8","14.68","88872","29.19","DUALSPOT-UV-BLUE-GREEN-RED-IR","697387","697343","903029","19.933990","5.246412","0.005400","696442","885949","762631","14.633907","3.643322","-0.000099","797268","895071","814098","12.256924","2.903098","-0.033974","797222","914741","860077","9.892715","2.195341","-0.099028","698008","847685","954263","7.211065","1.651185","-0.009006","3104","3380","3479","2476","2473","2472","2308","1790","1629","2085","1282","1053","2360","2249","2216",""
"MA200-0416","25431","68","1","1.10","1.4","2023-05-14T10:01:00","120","2023/05/14","10:01:00","-15.791561007499695","35.08464465290308","5.2","14","30","64","82","-24968","700","-3636","5","150","150.29","118.38","31.92","29.39","40.8","14.71","88896","29.19","DUALSPOT-UV-BLUE-GREEN-RED-IR","698047","698418","904641","20.020186","5.270715","0.002923","697364","887525","764095","14.691254","3.656852","-0.013572","796988","895076","814203","12.302447","2.913737","-0.017182","797598","915479","860803","9.926556","2.201349","-0.078764","697938","847750","954395","7.236757","1.655548","-0.127511","4276","4472","4542","3591","3142","2994","3192","2767","2635","2868","1888","1609","3031","1909","1576",""
"MA200-0416","25432","68","1","1.10","1.4","2023-05-14T10:01:30","120","2023/05/14","10:01:30","-15.79007774591446","35.08560363948345","7.8","14","30","64","82","-25273","-415","-4946","5","150","149.99","117.84","32.14","29.43","40.9","14.75","88984","29.25","DUALSPOT-UV-BLUE-GREEN-RED-IR","696005","696821","902782","20.105956","5.295347","0.003336","695938","886069","762940","14.750317","3.671676","-0.008062","795727","893993","813332","12.349453","2.925700","-0.007780","796120","914061","859556","9.964913","2.209729","-0.034460","696862","846667","953241","7.265709","1.663490","0.001031","4274","4501","4582","3715","3418","3320","3311","3090","3021","3265","2615","2430","3431","3451","3457",""
"MA200-0416","25433","68","1","1.10","1.4","2023-05-14T10:02:00","120","2023/05/14","10:02:00","-15.78847748041153","35.08688281476498","6.8","14","30","64","82","-25100","-460","-4780","5","150","149.70","117.94","31.76","29.46","40.9","14.78","89032","29.25","DUALSPOT-UV-BLUE-GREEN-RED-IR","697884","699008","905798","20.166612","5.312654","0.003713","697190","887938","764653","14.790470","3.681959","-0.004719","797875","896672","815826","12.382513","2.931719","-0.059509","799238","917819","863135","9.990644","2.214330","-0.075977","694301","843689","949912","7.284477","1.666054","-0.242620","3020","3200","3265","2523","2400","2359","2327","1573","1339","2188","1453","1244","2223","1128","803",""
"MA200-0416","25434","68","1","1.10","1.4","2023-05-14T10:02:30","120","2023/05/14","10:02:30","-15.788106918334961","35.08756564557552","7.6","14","30","64","82","-24692","-4012","-5640","5","150","150.55","118.57","31.99","29.48","41.0","14.84","89024","29.25","DUALSPOT-UV-BLUE-GREEN-RED-IR","698264","699671","906789","20.224330","5.328848","0.002544","697694","888870","765516","14.829712","3.690391","-0.025041","797590","896532","815715","12.414291","2.937525","-0.059013","799274","918006","863323","10.015466","2.218616","-0.085919","694147","843603","949843","7.304100","1.670189","-0.054244","2859","2973","3014","2453","1954","1789","2225","1506","1284","2100","1344","1128","2311","1805","1655",""
"MA200-0416","25435","68","1","1.10","1.4","2023-05-14T10:03:00","120","2023/05/14","10:03:00","-15.789821028709412","35.08590914309025","8.3","14","30","64","82","-24758","-1366","-5125","5","150","150.10","118.32","31.78","29.52","41.0","14.90","88976","29.31","DUALSPOT-UV-BLUE-GREEN-RED-IR","697409","699116","906234","20.284898","5.345598","0.001897","692271","882186","759820","14.867517","3.699428","-0.011569","797039","896188","815486","12.447275","2.944684","-0.027017","798564","917421","862787","10.039071","2.222377","-0.109009","698113","848582","955482","7.321750","1.672564","-0.250311","3006","3095","3127","2368","2107","2021","2314","1869","1731","2001","1187","955","2083","1043","735",""
"MA200-0416","25436","68","1","1.10","1.4","2023-05-14T10:03:30","120","2023/05/14","10:03:30","-15.791548609733582","35.08476081490517","7.9","14","30","64","82","-24920","-2060","-6276","5","150","149.80","117.96","31.84","29.54","41.0","14.89","88892","29.31","DUALSPOT-UV-BLUE-GREEN-RED-IR","699110","701128","908982","20.343296","5.363228","0.006815","693592","884163","761602","14.905820","3.708749","-0.010097","798041","897492","816720","12.475940","2.950710","-0.032666","800903","920280","865516","10.063416","2.226657","-0.080567","694769","844602","951018","7.338787","1.675639","-0.102527","2907","3252","3375","2407","2170","2092","2017","1571","1433","2070","1348","1143","2017","1349","1151",""
"MA200-0416","25437","68","1","1.10","1.4","2023-05-14T10:04:00","120","2023/05/14","10:04:00","-15.793058931827545","35.08411198109388","4.4","14","30","64","82","-24800","-4824","-4596","5","150","150.43","118.26","32.17","29.58","40.8","14.87","88868","29.31","DUALSPOT-UV-BLUE-GREEN-RED-IR","699216","701651","909904","20.431718","5.388176","0.002357","694372","885489","762837","14.961906","3.722286","-0.011800","797910","897643","816966","12.520012","2.960663","-0.022831","800752","920366","865672","10.098023","2.232903","-0.075301","694920","844984","951504","7.365680","1.681276","-0.057429","4391","4555","4614","3515","3119","2988","3094","2568","2406","2936","1948","1667","3176","2448","2232",""
"MA200-0416","25438","68","1","1.10","1.4","2023-05-14T10:04:30","120","2023/05/14","10:04:30","-15.795903205871582","35.08388698101044","14.5","14","30","64","82","-25080","-1852","-5728","5","150","150.14","118.09","32.06","29.61","40.6","14.82","88840","29.38","DUALSPOT-UV-BLUE-GREEN-RED-IR","697801","700486","908566","20.484716","5.405798","0.011418","692702","883548","761245","14.994743","3.732771","0.012665","797495","897366","816747","12.547647","2.968913","0.009190","799931","919533","864909","10.117962","2.236420","-0.080787","694439","844473","950981","7.381349","1.684406","-0.070527","2636","3228","3440","2061","2424","2544","1942","2136","2196","1694","1100","932","1853","1363","1219",""
"MA200-0416","25439","68","1","1.10","1.4","2023-05-14T10:05:00","120","2023/05/14","10:05:00","-15.799230992794037","35.08253797888756","12.7","14","30","64","82","-24896","-1823","-4546","5","150","149.83","118.10","31.73","29.63","40.3","14.73","88680","29.38","DUALSPOT-UV-BLUE-GREEN-RED-IR","692429","695375","902051","20.543092","5.424343","0.009666","694188","885717","763181","15.031523","3.743118","0.003925","793985","893560","813352","12.575216","2.975029","-0.023539","795253","914367","860100","10.140547","2.242344","-0.003089","695307","845670","952372","7.398313","1.689357","0.013601","2903","3432","3622","2308","2417","2453","1938","1600","1495","1918","1873","1860","2006","2179","2231",""
"MA200-0416","25440","68","1","1.10","1.4","2023-05-14T10:05:30","120","2023/05/14","10:05:30","-15.800382375717163","35.08006481081247","0.0","14","30","64","82","-24640","1900","-6100","5","150","149.39","117.70","31.68","29.66","40.2","14.71","88588","29.44","DUALSPOT-UV-BLUE-GREEN-RED-IR","692716","695949","902903","20.597822","5.437776","-0.006611","694346","886139","763630","15.066152","3.751451","-0.010930","794457","894344","814063","12.604552","2.979612","-0.096775","795223","914469","860239","10.160660","2.244175","-0.556747","695570","846120","952885","7.415930","1.691358","-0.402157","2731","2490","2403","2181","1949","1872","2069","1200","932","1714","579","257","2090","882","525",""
"MA200-0416","25441","68","1","1.10","1.4","2023-05-14T10:06:00","120","2023/05/14","10:06:00","-15.800708413124084","35.07908431440592","12.2","14","30","64","82","-24994","-1333","-6530","5","150","149.81","118.12","31.69","29.68","40.2","14.73","88564","29.44","DUALSPOT-UV-BLUE-GREEN-RED-IR","693009","696416","903648","20.641134","5.450742","0.006594","694742","886854","764269","15.094879","3.756494","-0.056460","793461","893374","813210","12.626566","2.982735","-0.127497","794580","913898","859712","10.181178","2.247047","-0.155870","694916","845399","952114","7.431656","1.695319","-0.011584","2153","2403","2493","1802","1179","973","1547","818","592","1742","909","673","1859","1746","1712",""
"MA200-0416","25442","68","1","1.10","1.4","2023-05-14T10:06:30","120","2023/05/14","10:06:30","-15.802463352680206","35.07611666619778","12.2","14","30","64","82","-24576","-412","-3584","5","150","149.90","117.90","32.00","29.72","40.3","14.77","88620","29.44","DUALSPOT-UV-BLUE-GREEN-RED-IR","693243","697084","904737","20.720320","5.473295","0.003039","694169","886500","764078","15.150864","3.770673","-0.006431","794023","894345","814206","12.674140","2.994567","-0.009703","795784","915555","861324","10.218847","2.254856","-0.042555","695579","846419","953295","7.457235","1.698876","-0.229730","3944","4139","4210","3520","3285","3207","3350","3069","2983","3205","2448","2233","3030","1553","1117",""
"MA200-0416","25443","68","1","1.10","1.4","2023-05-14T10:07:00","120","2023/05/14","10:07:00","-15.803986966609955","35.07463530451059","8.9","14","30","64","82","-24792","-1024","-4472","5","150","149.90","117.98","31.92","29.74","40.1","14.74","88732","29.44","DUALSPOT-UV-BLUE-GREEN-RED-IR","692456","696892","904827","20.846746","5.512085","0.007398","694461","887509","765165","15.250657","3.798938","0.003857","793149","893940","814020","12.761257","3.018098","-0.000156","794748","914858","860845","10.289939","2.272534","-0.011241","694906","845928","952910","7.511896","1.712760","-0.011445","6294","7138","7441","6270","6564","6662","6130","6121","6118","6045","5557","5418","6472","6076","5959",""
"MA200-0416","25444","68","1","1.10","1.4","2023-05-14T10:07:30","120","2023/05/14","10:07:30","-15.806297063827515","35.07557114958763","9.9","14","30","64","81","-24912","-1832","-4092","5","150","149.63","118.02","31.61","29.76","40.0","14.71","88664","29.50","DUALSPOT-UV-BLUE-GREEN-RED-IR","690681","695326","902898","20.893402","5.525310","0.003514","692959","885774","763724","15.281316","3.806461","-0.008240","791746","892454","812724","12.784811","3.023224","-0.025461","792770","912689","858823","10.307550","2.275490","-0.089232","693819","844708","951516","7.526985","1.715054","-0.168990","2321","2457","2505","1925","1764","1710","1656","1346","1250","1497","938","779","1786","1013","786",""
"MA200-0416","25445","68","1","1.10","1.4","2023-05-14T10:08:00","120","2023/05/14","10:08:00","-15.808531165122986","35.076478987932205","5.9","14","30","64","81","-24608","-1576","-7036","5","150","150.09","117.98","32.12","29.78","39.8","14.65","88544","29.44","DUALSPOT-UV-BLUE-GREEN-RED-IR","692748","697622","906009","20.935802","5.537506","0.003415","693809","887028","764859","15.308095","3.812767","-0.014314","793332","894417","814546","12.806803","3.028500","-0.014378","795586","916067","862032","10.324857","2.278608","-0.074271","695227","846492","953584","7.539591","1.718063","-0.025167","2110","2230","2273","1682","1455","1380","1547","1363","1306","1471","973","832","1492","1308","1254",""
"MA200-0416","25446","68","1","1.10","1.4","2023-05-14T10:08:30","120","2023/05/14","10:08:30","-15.809897482395172","35.07495831698179","8.0","14","30","64","81","-25196","-244","-4216","5","150","149.40","117.79","31.61","29.80","39.8","14.67","88620","29.50","DUALSPOT-UV-BLUE-GREEN-RED-IR","692505","697668","906195","20.985856","5.552198","0.005399","693761","887229","765089","15.341058","3.820329","-0.015576","793417","894729","814866","12.831004","3.032797","-0.061966","795653","916326","862296","10.345939","2.281320","-0.194372","695386","846808","953948","7.554081","1.720925","-0.068729","2495","2730","2814","2074","1774","1674","1705","1128","950","1795","860","596","1718","1264","1131",""
"MA200-0416","25447","68","1","1.10","1.4","2023-05-14T10:09:00","120","2023/05/14","10:09:00","-15.810631692409515","35.07472248375416","4.2","14","30","64","82","-24728","-1896","-5028","5","150","149.76","117.74","32.02","29.81","39.7","14.63","88624","29.50","DUALSPOT-UV-BLUE-GREEN-RED-IR","691534","697405","906302","21.139684","5.599373","0.006993","693569","887554","765542","15.428267","3.844202","0.000553","792864","894552","814856","12.899328","3.050255","-0.006675","796152","917221","863223","10.395546","2.292806","-0.022677","695416","847046","954289","7.588371","1.729627","-0.012505","7673","8652","9005","5490","5526","5538","4817","4526","4435","4227","3598","3420","4068","3796","3715",""
