"Serial number","Datum ID","Session ID","Data format version","Firmware version","App version","Date / time local","Timezone offset (mins)","Date local (yyyy/MM/dd)","Time local (hh:mm:ss)","GPS lat (ddmm.mmmmm)","GPS long (dddmm.mmmmm)","GPS speed (km/h)","GPS sat count","Timebase (s)","Status","Battery remaining (%)","Accel X","Accel Y","Accel Z","Tape position","Flow setpoint (mL/min)","Flow total (mL/min)","Flow1 (mL/min)","Flow2 (mL/min)","Sample temp (C)","Sample RH (%)","Sample dewpoint (C)","Internal pressure (Pa)","Internal temp (C)","Optical config","UV Sen1","UV Sen2","UV Ref","UV ATN1","UV ATN2","UV K","Blue Sen1","Blue Sen2","Blue Ref","Blue ATN1","Blue ATN2","Blue K","Green Sen1","Green Sen2","Green Ref","Green ATN1","Green ATN2","Green K","Red Sen1","Red Sen2","Red Ref","Red ATN1","Red ATN2","Red K","IR Sen1","IR Sen2","IR Ref","IR ATN1","IR ATN2","IR K","UV BC1","UV BC2","UV BCc","Blue BC1","Blue BC2","Blue BCc","Green BC1","Green BC2","Green BCc","Red BC1","Red BC2","Red BCc","IR BC1","IR BC2","IR BCc","Readable status"
"MA200-0420","23357","54","1","1.10","1.4","2023-05-06T13:57:59","120","2023/05/06","13:57:59","-15.802486181259155","35.03476199135184","0.6","15","30","66","65","-25270","-191","-5783","17","150","147.08","109.24","37.84","33.78","41.4","18.86","89588","32.75","DUALSPOT-UV-BLUE-GREEN-RED-IR","771354","681636","861101","0.000000","0.000000","0.000000","876697","881595","806593","0.000000","0.000000","0.000000","875753","876991","819356","0.000000","0.000000","0.000000","867091","854729","853810","0.000000","0.000000","0.000000","781286","908226","967720","0.000000","0.000000","0.000000","","","","","","","","","","","","","","","","Start up"
"MA200-0420","23358","54","1","1.10","1.4","2023-05-06T13:58:29","120","2023/05/06","13:58:29","-15.802270531654358","35.03421399369836","2.3","15","30","66","64","-24812","-464","-6992","17","150","150.86","111.57","39.29","33.76","40.7","18.55","89588","32.88","DUALSPOT-UV-BLUE-GREEN-RED-IR","811472","718087","908051","0.000000","0.000000","0.000000","909033","914953","837629","0.000000","0.000000","0.000000","888293","890237","832243","0.000000","0.000000","0.000000","898632","886343","885883","0.000000","0.000000","0.000000","778845","906025","965592","0.000000","0.000000","0.000000","","","","","","","","","","","","","","","","Start up"
"MA200-0420","23359","54","1","1.10","1.4","2023-05-06T13:58:59","120","2023/05/06","13:58:59","-15.80187302827835","35.033986158668995","2.6","15","30","66","65","-24720","-1144","-8147","17","150","150.35","112.15","38.20","33.73","40.0","18.26","89612","32.88","DUALSPOT-UV-BLUE-GREEN-RED-IR","810055","717447","907587","0.000000","0.000000","0.000000","907309","913578","836641","0.000000","0.000000","0.000000","887566","889780","832016","0.000000","0.000000","0.000000","899738","887671","887420","0.000000","0.000000","0.000000","779378","906805","966490","0.000000","0.000000","0.000000","","","","","","","","","","","","","","","","Start up"
"MA200-0420","23360","54","1","1.10","1.4","2023-05-06T13:59:29","120","2023/05/06","13:59:29","-15.801463544368744","35.033514495939016","6.3","15","30","66","64","-24548","808","-7784","17","150","150.15","111.72","38.42","33.68","39.5","18.00","89600","32.88","DUALSPOT-UV-BLUE-GREEN-RED-IR","810427","718212","908840","0.000000","0.000000","0.000000","908283","914859","838006","0.000000","0.000000","0.000000","887432","889907","832280","0.000000","0.000000","0.000000","897862","885992","885849","0.000000","0.000000","0.000000","778567","905986","965696","0.000000","0.000000","0.000000","","","","","","","","","","","","","","","","Start up"
"MA200-0420","23361","54","1","1.10","1.4","2023-05-06T13:59:59","120","2023/05/06","13:59:59","-15.801060855388641","35.03118682652712","11.8","15","30","66","65","-24883","-620","-6629","17","150","150.15","111.61","38.54","33.64","39.1","17.81","89584","32.88","DUALSPOT-UV-BLUE-GREEN-RED-IR","790410","711934","907297","0.000000","0.000000","0.000000","890505","908194","836577","0.000000","0.000000","0.000000","872190","884238","831161","0.000000","0.000000","0.000000","891570","887902","891437","0.000000","0.000000","0.000000","770244","902417","964612","0.000000","0.000000","0.000000","","","","","","","","","","","","","","","","Start up"
"MA200-0420","23362","54","1","1.10","1.4","2023-05-06T14:00:29","120","2023/05/06","14:00:29","-15.80103886127472","35.02775499597192","11.6","15","30","64","64","-24680","324","-7704","17","150","150.67","111.93","38.74","33.59","38.7","17.61","89712","32.75","DUALSPOT-UV-BLUE-GREEN-RED-IR","787385","709911","905121","0.000000","0.000000","0.000000","886277","904464","833456","0.000000","0.000000","0.000000","875118","887736","834663","0.000000","0.000000","0.000000","888958","885731","889515","0.000000","0.000000","0.000000","769142","901483","963763","0.000000","0.000000","0.000000","","","","","","","","","","","","","","","",""
"MA200-0420","23363","54","1","1.10","1.4","2023-05-06T14:00:59","120","2023/05/06","14:00:59","-15.800982236862183","35.024114495143294","13.7","15","30","64","64","-24791","100","-7129","17","150","150.15","111.53","38.61","33.52","38.4","17.41","89752","32.69","DUALSPOT-UV-BLUE-GREEN-RED-IR","787676","711578","908036","0.271224","0.085193","0.000000","888554","908066","837351","0.201427","0.068491","0.000000","871167","884813","832442","0.174695","0.059127","0.000000","884733","882383","886593","0.142355","0.048242","0.000000","770920","904155","966922","0.094009","0.029469","0.000000","14283","12958","14283","13388","13149","13388","13004","12712","13004","12805","12534","12805","11774","10661","11774",""
"MA200-0420","23364","54","1","1.10","1.4","2023-05-06T14:01:29","120","2023/05/06","14:01:29","-15.800898671150208","35.021984996274114","8.8","15","30","64","64","-25116","-954","-6891","17","150","150.15","111.65","38.49","33.45","38.1","17.22","89752","32.56","DUALSPOT-UV-BLUE-GREEN-RED-IR","783015","708418","904633","0.495529","0.155080","0.000000","891056","911572","840979","0.357359","0.118249","0.000000","872900","887328","835148","0.309854","0.103264","0.000000","888263","886519","891029","0.250268","0.082766","0.000000","768751","902013","964833","0.162002","0.049345","0.000000","11799","10664","11799","10353","9582","10353","10050","9519","10050","9696","8998","9696","8506","7213","8506",""
"MA200-0420","23365","54","1","1.10","1.4","2023-05-06T14:01:59","120","2023/05/06","14:01:59","-15.79984450340271","35.019942827522755","8.7","15","30","64","64","-23500","-670","-11979","17","150","150.33","111.61","38.72","33.37","37.9","17.10","89796","32.44","DUALSPOT-UV-BLUE-GREEN-RED-IR","784632","710994","908557","0.719165","0.224241","0.000000","886509","907894","837997","0.513958","0.169545","0.000000","869272","884474","832833","0.445401","0.147706","0.000000","884117","883018","887809","0.357711","0.116486","0.000000","771004","905133","968368","0.231266","0.070528","0.000000","11769","10490","11769","10401","9819","10401","10082","9527","10082","9658","8736","9658","8669","7641","8669",""
"MA200-0420","23366","54","1","1.10","1.4","2023-05-06T14:02:29","120","2023/05/06","14:02:29","-15.7971870303154","35.01761082932353","13.4","15","30","64","64","-25154","-816","-6558","17","150","149.90","111.46","38.44","33.28","37.8","16.95","89852","32.31","DUALSPOT-UV-BLUE-GREEN-RED-IR","778267","706446","903377","0.961872","0.294305","0.000000","879898","902134","833137","0.678169","0.218350","0.000000","869570","885615","834279","0.583839","0.189650","0.000000","884528","884141","889227","0.467870","0.148287","0.000000","767072","900970","964114","0.302658","0.090771","0.000000","12790","10705","12790","10921","9412","10921","10311","9059","10311","9915","8300","9915","8947","7356","8947",""
"MA200-0420","23367","54","1","1.10","1.4","2023-05-06T14:02:59","120","2023/05/06","14:02:59","-15.794200599193573","35.015799831599","14.2","15","30","64","64","-24791","387","-6716","17","150","149.38","111.64","37.74","33.21","37.7","16.83","89980","32.25","DUALSPOT-UV-BLUE-GREEN-RED-IR","783353","711650","910366","1.091773","0.334995","0.000000","885688","908628","839324","0.769019","0.247061","0.000000","868372","884874","833718","0.662857","0.214558","0.000000","883825","883813","889070","0.533186","0.170049","0.000000","767026","901116","964377","0.340957","0.101830","0.000000","6834","6333","6834","6032","5640","6032","5876","5479","5876","5869","5785","5869","4792","4093","4792",""
"MA200-0420","23368","54","1","1.10","1.4","2023-05-06T14:03:29","120","2023/05/06","14:03:29","-15.790991604328156","35.01441483013332","12.7","15","30","64","64","-24608","825","-7854","17","150","150.00","111.48","38.52","33.13","37.5","16.68","90152","32.13","DUALSPOT-UV-BLUE-GREEN-RED-IR","777703","706814","904384","1.157053","0.356651","0.000000","879850","902840","834113","0.809198","0.263261","0.000000","864557","881116","830337","0.696039","0.228559","0.000000","885505","885613","890982","0.558094","0.179930","0.000000","767995","902349","965716","0.353204","0.106500","0.000000","3439","3302","3439","2671","3118","2671","2471","3018","2471","2241","2573","2241","1534","1693","1534",""
"MA200-0420","23369","54","1","1.10","1.4","2023-05-06T14:03:59","120","2023/05/06","14:03:59","-15.788705825805664","35.01374416425824","4.8","15","30","64","64","-24716","1166","-7445","17","150","150.52","111.84","38.68","33.04","37.3","16.55","90264","32.06","DUALSPOT-UV-BLUE-GREEN-RED-IR","779587","710676","910578","1.590559","0.492738","0.000000","883328","908517","840291","1.143050","0.371373","0.000000","865919","884316","834160","0.989574","0.322818","0.000000","882286","883866","889921","0.800615","0.256713","0.000000","766741","901921","965795","0.520643","0.158578","0.000000","22767","20662","22767","22130","20717","22130","21791","20229","21791","21756","19913","21756","20914","18806","20914",""
"MA200-0420","23370","54","1","1.10","1.4","2023-05-06T14:04:29","120","2023/05/06","14:04:29","-15.787923157215118","35.01321833115071","8.1","15","30","64","64","-25420","-2275","-6450","17","150","149.71","111.04","38.67","32.96","37.3","16.46","90264","31.94","DUALSPOT-UV-BLUE-GREEN-RED-IR","767157","706078","909247","2.029320","0.636589","0.000000","870932","903025","838769","1.484471","0.484275","0.000000","856419","880261","833118","1.264262","0.413924","0.000000","873352","879313","887601","1.014708","0.326491","0.000000","761143","898613","964076","0.663354","0.206356","0.000000","23208","21850","23208","22793","21645","22793","20537","19561","20537","19343","18104","19343","17953","17260","17953",""
"MA200-0420","23371","54","1","1.10","1.4","2023-05-06T14:04:59","120","2023/05/06","14:04:59","-15.787486851215363","35.01079833135009","10.1","15","30","64","63","-24580","-31","-7302","17","150","151.58","113.31","38.27","32.88","37.3","16.41","90188","31.94","DUALSPOT-UV-BLUE-GREEN-RED-IR","750372","698845","904784","4.748041","1.526248","-0.010129","854236","893942","833922","3.709733","1.218295","-0.009719","842550","873944","830666","3.287738","1.077902","-0.013450","866561","879718","891408","2.750654","0.890589","0.000000","752719","894125","961730","1.932951","0.603091","0.000000","140930","136542","134463","145588","142186","140522","148262","144042","141984","153706","147881","153706","156524","144817","156524",""
"MA200-0420","23372","54","1","1.10","1.4","2023-05-06T14:05:29","120","2023/05/06","14:05:29","-15.787311375141144","35.0083818314597","8.8","15","30","64","64","-24885","-305","-7562","17","150","150.08","111.80","38.29","32.82","37.3","16.32","90284","31.81","DUALSPOT-UV-BLUE-GREEN-RED-IR","750182","699111","905445","4.874342","1.569545","0.000307","855237","895366","835464","3.803187","1.252025","0.019569","842413","874132","831042","3.370440","1.107281","0.015622","866106","879523","891333","2.817037","0.912417","0.000000","752702","894263","961979","1.974441","0.616363","0.000000","6635","6642","6645","6196","6531","6695","6141","6370","6482","5957","5719","5957","5184","4842","5184",""
"MA200-0420","23373","54","1","1.10","1.4","2023-05-06T14:05:59","120","2023/05/06","14:05:59","-15.787510871887207","35.006698166020215","6.0","15","30","64","64","-24616","-3170","-8512","17","150","150.15","111.84","38.31","32.73","37.2","16.23","90260","31.75","DUALSPOT-UV-BLUE-GREEN-RED-IR","749010","700564","909048","5.402254","1.746824","-0.005553","855852","898510","839556","4.200387","1.385367","-0.007331","841502","875312","833145","3.715896","1.222950","-0.009371","860738","875895","888537","3.100752","1.006207","-0.017609","754125","897193","965787","2.168487","0.680307","0.000000","27725","27179","26918","26329","25802","25542","25645","25066","24782","25451","24561","24134","24238","23316","24238",""
"MA200-0420","23374","54","1","1.10","1.4","2023-05-06T14:06:29","120","2023/05/06","14:06:29","-15.78865772485733","35.00527949864045","4.2","15","30","64","64","-24628","-800","-8880","17","150","150.15","112.03","38.12","32.66","37.2","16.17","90232","31.69","DUALSPOT-UV-BLUE-GREEN-RED-IR","745784","698627","907150","5.611469","1.814699","-0.013176","851643","895075","836771","4.355967","1.436156","-0.014814","839355","873904","832189","3.850340","1.266598","-0.019067","858600","874365","887294","3.209999","1.040652","-0.037978","753101","896388","965121","2.237779","0.702586","0.000000","10969","10458","10214","10295","9877","9671","9963","9506","9282","9783","9065","8720","8640","8164","8640",""
"MA200-0420","23375","54","1","1.10","1.4","2023-05-06T14:06:59","120","2023/05/06","14:06:59","-15.790267705917358","35.00445466581732","10.2","15","30","64","64","-25162","-20","-6500","17","150","149.38","111.57","37.81","32.59","37.3","16.16","90236","31.63","DUALSPOT-UV-BLUE-GREEN-RED-IR","743045","696574","904727","5.757225","1.860401","-0.021527","848944","892726","834767","4.462683","1.467973","-0.048848","837235","872101","830641","3.943986","1.295667","-0.036198","856039","872099","885143","3.285574","1.061956","-0.100561","751703","894927","963642","2.283815","0.716396","0.000000","7673","7100","6827","7090","6239","5821","6968","6383","6097","6795","5653","5108","5764","5102","5764",""
"MA200-0420","23376","54","1","1.10","1.4","2023-05-06T14:07:29","120","2023/05/06","14:07:29","-15.793441355228424","35.00426449906081","13.5","15","30","64","64","-25129","520","-6625","17","150","149.89","111.30","38.59","32.52","37.4","16.12","90460","31.63","DUALSPOT-UV-BLUE-GREEN-RED-IR","746428","700768","910937","5.944963","1.924163","-0.005259","853244","898243","840420","4.603767","1.516778","-0.000772","835874","871546","830532","4.066753","1.336806","-0.012954","860800","877664","891152","3.387199","1.095887","-0.017133","750719","894290","963220","2.353891","0.739043","0.000000","9907","9704","9607","9397","9375","9364","9158","8850","8699","9161","8821","8658","8795","8197","8795",""
"MA200-0420","23377","54","1","1.10","1.4","2023-05-06T14:07:59","120","2023/05/06","14:07:59","-15.794650793075562","35.003914332948625","0.1","15","30","64","63","-24600","-2629","-8758","17","150","149.71","111.72","37.99","32.45","37.4","16.04","90444","31.56","DUALSPOT-UV-BLUE-GREEN-RED-IR","743930","698913","908836","6.089546","1.972993","-0.001653","849595","894812","837440","4.708183","1.554382","0.017240","838818","874950","833994","4.158663","1.369988","0.020285","859519","876636","890288","3.462044","1.122178","0.013483","749822","893364","962364","2.400407","0.755350","0.000000","7601","7549","7525","6928","7338","7540","6830","7251","7459","6721","6943","7050","5816","5996","5816",""
"MA200-0420","23378","54","1","1.10","1.4","2023-05-06T14:08:29","120","2023/05/06","14:08:29","-15.794661223888397","35.00389166618697","0.1","15","30","64","63","-24516","-2400","-8848","17","150","150.22","111.92","38.30","32.39","37.3","15.95","90440","31.50","DUALSPOT-UV-BLUE-GREEN-RED-IR","740985","696336","905596","6.135296","1.989397","0.010755","846978","892252","835133","4.738325","1.564586","-0.003430","835807","871999","831226","4.184508","1.379316","0.018027","854790","871932","885585","3.482828","1.128546","-0.052593","751804","895812","965018","2.408804","0.759240","0.000000","2400","2515","2570","1996","1975","1964","1917","2022","2073","1863","1668","1574","1047","1419","1047",""
"MA200-0420","23379","54","1","1.10","1.4","2023-05-06T14:08:59","120","2023/05/06","14:08:59","-15.794656693935394","35.00388849945739","0.0","15","30","64","64","-24516","-2733","-8837","17","150","149.95","111.97","37.98","32.33","37.4","15.93","90440","31.44","DUALSPOT-UV-BLUE-GREEN-RED-IR","741242","696823","906409","6.186939","2.005416","-0.023451","848032","893578","836464","4.772931","1.575476","-0.025398","836232","872591","831876","4.213828","1.387858","-0.063329","855721","873040","886767","3.506073","1.135846","-0.035158","752526","896713","966000","2.418983","0.762489","0.000000","2709","2477","2365","2291","2125","2043","2174","1866","1716","2082","1928","1854","1270","1194","1270",""
"MA200-0420","23380","54","1","1.10","1.4","2023-05-06T14:09:29","120","2023/05/06","14:09:29","-15.794646918773651","35.0038768327795","0.9","15","30","64","63","-24028","-2252","-9428","17","150","150.40","112.36","38.03","32.28","37.4","15.89","90444","31.44","DUALSPOT-UV-BLUE-GREEN-RED-IR","740668","696489","906108","6.233478","2.021698","0.007601","847007","892679","835716","4.803049","1.586187","0.014652","836365","872860","832212","4.240459","1.398563","0.051583","855161","872597","886365","3.527222","1.142276","-0.050271","752609","896828","966174","2.427948","0.766651","0.000000","2432","2514","2553","1987","2087","2137","1967","2336","2518","1888","1696","1604","1114","1528","1114",""
"MA200-0420","23381","54","1","1.10","1.4","2023-05-06T14:09:59","120","2023/05/06","14:09:59","-15.794481039047241","35.003332999534905","2.2","15","30","64","64","-25008","-2683","-6575","17","150","149.87","111.90","37.97","32.24","37.4","15.87","90384","31.44","DUALSPOT-UV-BLUE-GREEN-RED-IR","739685","695791","905342","6.278389","2.037038","0.001556","846518","892288","835453","4.833293","1.596409","-0.001209","835524","872135","831620","4.265725","1.407766","0.023151","861014","878664","892591","3.546042","1.149360","0.039257","752241","896471","965844","2.436828","0.770837","0.000000","2357","2372","2380","2003","1995","1991","1874","2012","2079","1687","1871","1960","1108","1540","1108",""
"MA200-0420","23382","54","1","1.10","1.4","2023-05-06T14:10:29","120","2023/05/06","14:10:29","-15.794385850429535","35.00255333306268","2.8","15","30","64","63","-25064","-3436","-7279","17","150","149.67","111.41","38.26","32.19","37.4","15.83","90336","31.44","DUALSPOT-UV-BLUE-GREEN-RED-IR","737871","694847","904640","6.428793","2.089103","0.001797","851940","898781","841884","4.945826","1.636046","0.007430","834607","871773","831566","4.360503","1.440560","0.002524","854563","872583","886706","3.623665","1.176392","0.005584","752420","897004","966619","2.487039","0.788743","0.000000","7929","7992","8022","7488","7679","7773","7063","7115","7141","6990","7087","7134","6296","6537","6296",""
"MA200-0420","23383","54","1","1.10","1.4","2023-05-06T14:10:59","120","2023/05/06","14:10:59","-15.795117437839508","35.00156433333177","4.3","15","30","64","63","-24588","772","-7856","17","150","149.69","111.69","38.00","32.15","37.5","15.82","90348","31.44","DUALSPOT-UV-BLUE-GREEN-RED-IR","736957","694464","904489","6.550417","2.129957","-0.002938","843833","890657","834461","5.029625","1.663620","-0.010279","834053","871589","831570","4.436064","1.464849","-0.020258","859951","878412","892737","3.684443","1.194865","-0.050869","751808","896477","966127","2.525207","0.800021","0.000000","6396","6314","6275","5562","5379","5288","5616","5306","5153","5459","4877","4597","4773","4146","4773",""
"MA200-0420","23384","54","1","1.10","1.4","2023-05-06T14:11:29","120","2023/05/06","14:11:29","-15.795453011989594","35.00041466660332","5.3","15","30","64","63","-24525","1495","-7633","17","150","149.74","112.15","37.59","32.12","37.5","15.80","90472","31.44","DUALSPOT-UV-BLUE-GREEN-RED-IR","736826","694588","904775","6.602058","2.146724","-0.007340","843727","890759","834658","5.063963","1.673919","-0.036742","833863","871556","831607","4.464519","1.474762","0.012451","860382","878968","893366","3.706980","1.201892","-0.030995","752121","896932","966661","2.539085","0.804686","0.000000","2704","2620","2579","2269","2031","1913","2106","2189","2230","2016","1875","1808","1728","1733","1728",""
"MA200-0420","23385","54","1","1.10","1.4","2023-05-06T14:11:59","120","2023/05/06","14:11:59","-15.795537173748016","34.99919104576111","4.1","15","30","64","63","-24728","-2588","-7811","17","150","149.59","112.21","37.37","32.08","37.7","15.83","90472","31.38","DUALSPOT-UV-BLUE-GREEN-RED-IR","741422","699089","910818","6.645628","2.161789","0.008052","850147","897693","841225","5.091190","1.681501","-0.063647","837502","875509","835413","4.486644","1.479619","-0.230573","858193","876873","891260","3.724966","1.205842","-0.272504","750911","895502","965128","2.546272","0.807099","0.000000","2280","2367","2409","1798","1503","1358","1636","1079","804","1608","1060","798","894","902","894",""
"MA200-0420","23386","54","1","1.10","1.4","2023-05-06T14:12:29","120","2023/05/06","14:12:29","-15.795501410961151","34.99793303012848","5.2","15","30","64","63","-25028","-552","-7484","17","150","150.21","112.05","38.17","32.04","37.8","15.84","90376","31.31","DUALSPOT-UV-BLUE-GREEN-RED-IR","739379","697475","908867","6.706003","2.182039","-0.003470","846879","894458","838311","5.131292","1.696927","0.031543","836832","875004","835059","4.521126","1.493465","0.046625","857555","876366","890828","3.751053","1.214020","-0.035567","750462","895104","964735","2.560705","0.811675","0.000000","3164","3116","3092","2653","2996","3165","2554","3011","3237","2335","2149","2060","1799","1674","1799",""
"MA200-0420","23387","54","1","1.10","1.4","2023-05-06T14:12:59","120","2023/05/06","14:12:59","-15.795470297336578","34.99655377864838","4.9","15","30","64","63","-24437","1816","-6704","17","150","149.79","111.88","37.91","32.00","37.8","15.82","90488","31.31","DUALSPOT-UV-BLUE-GREEN-RED-IR","738049","696970","908658","6.862699","2.231681","-0.015571","846405","894690","838833","5.243623","1.730120","-0.045046","835045","873713","834094","4.617667","1.521533","-0.058237","856180","875450","890121","3.831166","1.239240","-0.030635","750034","894901","964691","2.610937","0.826052","0.000000","8226","7690","7432","7443","6490","6021","7164","6146","5646","7184","6673","6429","6272","5297","6272",""
"MA200-0420","23388","54","1","1.10","1.4","2023-05-06T14:13:29","120","2023/05/06","14:13:29","-15.795465171337128","34.99536865949631","3.4","15","30","64","63","-25048","-212","-6960","17","150","149.90","112.02","37.87","31.96","37.8","15.77","90588","31.25","DUALSPOT-UV-BLUE-GREEN-RED-IR","735948","695642","907320","6.991174","2.274135","-0.004951","844595","893209","837615","5.315256","1.753551","-0.009582","833498","872480","833041","4.676521","1.540082","-0.024027","854358","873890","888646","3.872580","1.250234","-0.119969","748978","893764","963534","2.633199","0.832696","0.000000","6736","6584","6510","4740","4586","4510","4361","4066","3921","3708","2912","2532","2776","2450","2776",""
"MA200-0420","23389","54","1","1.10","1.4","2023-05-06T14:13:59","120","2023/05/06","14:13:59","-15.795396506786346","34.994433641433716","4.1","15","30","64","63","-24764","948","-7284","17","150","149.82","111.93","37.89","31.93","37.8","15.77","90600","31.25","DUALSPOT-UV-BLUE-GREEN-RED-IR","733887","694260","905915","7.128351","2.317636","-0.014531","842741","891670","836359","5.386418","1.774162","-0.050990","832700","871976","832686","4.735100","1.557272","-0.052320","853419","873110","887942","3.912273","1.261701","-0.070629","748913","893820","963608","2.652755","0.836565","0.000000","7198","6742","6522","4713","4032","3697","4345","3766","3482","3558","3036","2787","2440","1425","2440",""
"MA200-0420","23390","54","1","1.10","1.4","2023-05-06T14:14:29","120","2023/05/06","14:14:29","-15.795396625995636","34.9935457110405","2.5","15","30","64","63","-24875","-1566","-7512","17","150","149.87","111.99","37.89","31.89","37.9","15.76","90628","31.19","DUALSPOT-UV-BLUE-GREEN-RED-IR","733422","693988","905666","7.167465","2.332803","0.024841","842641","891723","836477","5.413491","1.783020","-0.009562","831549","870877","831697","4.756643","1.563692","-0.045404","852073","871867","886710","3.930693","1.266805","-0.092731","748035","892825","962576","2.661806","0.840664","0.000000","2051","2351","2495","1792","1733","1703","1597","1406","1313","1650","1351","1209","1128","1511","1128",""
"MA200-0420","23391","54","1","1.10","1.4","2023-05-06T14:14:59","120","2023/05/06","14:14:59","-15.796225547790527","34.992848575115204","4.5","15","30","64","63","-25065","11","-5822","17","150","149.95","111.77","38.18","31.85","38.0","15.78","90616","31.19","DUALSPOT-UV-BLUE-GREEN-RED-IR","731854","692773","904242","7.219705","2.350774","0.001421","846880","896437","840977","5.449354","1.794321","-0.024010","831042","870539","831474","4.786776","1.574522","0.015032","857606","877661","892673","3.952479","1.273935","-0.016732","747243","891933","961680","2.674833","0.846281","0.000000","2745","2764","2773","2378","2194","2103","2238","2354","2411","1955","1873","1834","1628","2055","1628",""
"MA200-0420","23392","54","1","1.10","1.4","2023-05-06T14:15:29","120","2023/05/06","14:15:29","-15.79712051153183","34.99230122566223","4.9","15","30","64","63","-25020","-1376","-6772","17","150","150.02","111.93","38.09","31.82","38.1","15.80","90644","31.19","DUALSPOT-UV-BLUE-GREEN-RED-IR","735814","697034","910217","7.332138","2.391031","0.009794","845359","895269","840079","5.516779","1.817512","0.002862","830148","869952","831079","4.842704","1.593023","-0.008962","856906","877227","892353","3.996153","1.287066","-0.051902","751760","897507","967765","2.699195","0.853067","0.000000","5900","6207","6356","4465","4513","4537","4148","4032","3975","3914","3458","3242","3040","2488","3040",""
"MA200-0420","23393","54","1","1.10","1.4","2023-05-06T14:15:59","120","2023/05/06","14:15:59","-15.798334419727325","34.991923213005066","4.5","15","30","64","63","-25184","-456","-5756","17","150","149.79","111.79","38.00","31.80","38.2","15.79","90652","31.19","DUALSPOT-UV-BLUE-GREEN-RED-IR","735183","696652","909895","7.392431","2.413076","0.013655","844328","894316","839324","5.554456","1.832134","0.031415","829388","869284","830542","4.873544","1.605069","0.037318","856775","877211","892420","4.021007","1.294985","-0.025366","751800","897610","967916","2.712085","0.857593","0.000000","3167","3407","3523","2498","2852","3026","2290","2631","2799","2230","2090","2024","1610","1663","1610",""
"MA200-0420","23394","54","1","1.10","1.4","2023-05-06T14:16:29","120","2023/05/06","14:16:29","-15.799548327922821","34.991879403591156","5.0","15","30","64","62","-24684","483","-7556","17","150","150.46","112.25","38.21","31.76","38.2","15.79","90712","31.19","DUALSPOT-UV-BLUE-GREEN-RED-IR","734435","696164","909398","7.437910","2.428674","0.001515","843994","894177","839246","5.583984","1.842397","0.005503","834027","874326","835394","4.899940","1.612394","-0.077508","856585","877146","892408","4.039969","1.301509","0.003937","751234","896998","967269","2.721107","0.859969","0.000000","2379","2397","2406","1950","1991","2011","1952","1591","1414","1694","1713","1722","1122","868","1122",""
"MA200-0420","23395","54","1","1.10","1.4","2023-05-06T14:16:59","120","2023/05/06","14:16:59","-15.80034190416336","34.991916596889496","2.2","15","30","64","63","-24908","-1700","-7220","17","150","149.84","111.91","37.92","31.74","38.3","15.81","90700","31.13","DUALSPOT-UV-BLUE-GREEN-RED-IR","734357","696292","909700","7.484592","2.445465","0.011163","843815","894153","839311","5.612868","1.851076","-0.036274","833482","873886","835061","4.924623","1.621270","0.016948","855057","875681","890959","4.059319","1.307246","-0.055770","750942","896719","967008","2.731073","0.864072","0.000000","2450","2600","2673","1913","1696","1589","1831","1943","1997","1734","1517","1414","1244","1511","1244",""
"MA200-0420","23396","54","1","1.10","1.4","2023-05-06T14:17:29","120","2023/05/06","14:17:29","-15.801038205623627","34.992094337940216","2.6","15","30","64","63","-25133","-3162","-5970","17","150","149.65","111.95","37.70","31.71","38.4","15.81","90672","31.13","DUALSPOT-UV-BLUE-GREEN-RED-IR","733461","695636","909002","7.526081","2.459886","0.006068","842787","893208","838515","5.641073","1.860928","0.009349","832830","873359","834611","4.947114","1.627874","-0.047673","854253","875010","890319","4.077741","1.313262","-0.011477","750182","895860","966123","2.741203","0.867980","0.000000","2176","2246","2280","1867","1937","1971","1667","1454","1349","1650","1600","1577","1264","1447","1264",""
"MA200-0420","23397","54","1","1.10","1.4","2023-05-06T14:17:59","120","2023/05/06","14:17:59","-15.800912737846375","34.9928041100502","2.8","15","30","64","62","-24654","-1808","-7825","17","150","149.41","111.53","37.87","31.69","38.4","15.79","90572","31.06","DUALSPOT-UV-BLUE-GREEN-RED-IR","732450","694851","908087","7.566786","2.475792","0.024183","841954","892476","837882","5.666381","1.870173","0.017922","832493","873084","834438","4.969575","1.637488","0.056305","853727","874526","889888","4.094353","1.319060","0.009626","749792","895442","965709","2.751276","0.870911","0.000000","2143","2466","2623","1682","1809","1872","1671","2107","2321","1494","1535","1555","1261","1081","1261",""
"MA200-0420","23398","54","1","1.10","1.4","2023-05-06T14:18:29","120","2023/05/06","14:18:29","-15.800676584243774","34.99369490146637","3.2","15","30","64","62","-24916","-496","-7015","17","150","149.84","112.06","37.77","31.67","38.4","15.76","90572","31.06","DUALSPOT-UV-BLUE-GREEN-RED-IR","731400","694042","907179","7.608324","2.491060","0.015588","841831","892458","837982","5.692816","1.881164","0.045424","831662","872373","833788","4.992638","1.646471","0.037720","853285","874210","889634","4.112943","1.325901","0.029024","749936","895690","965988","2.760378","0.874922","0.000000","2177","2374","2470","1748","2157","2358","1708","1974","2105","1664","1817","1889","1134","1483","1134",""
"MA200-0420","23399","54","1","1.10","1.4","2023-05-06T14:18:59","120","2023/05/06","14:18:59","-15.80017077922821","34.99420666694641","3.2","15","30","64","62","-24916","-3625","-7833","17","150","150.01","111.99","38.02","31.65","38.4","15.75","90532","31.13","DUALSPOT-UV-BLUE-GREEN-RED-IR","729494","692425","905198","7.649347","2.505272","0.003821","839016","889652","835390","5.718970","1.888728","-0.049742","830390","871150","832727","5.014140","1.652890","-0.043843","851933","872903","888335","4.128604","1.330438","-0.066987","749131","894768","965018","2.768840","0.876927","0.000000","2151","2195","2216","1731","1474","1347","1594","1401","1306","1403","1197","1099","1055","736","1055",""
"MA200-0420","23400","54","1","1.10","1.4","2023-05-06T14:19:29","120","2023/05/06","14:19:29","-15.79927533864975","34.99361777305603","3.4","15","30","64","63","-24632","-616","-8224","17","150","149.67","112.20","37.47","31.63","38.4","15.72","90472","31.06","DUALSPOT-UV-BLUE-GREEN-RED-IR","730962","694002","907400","7.695890","2.522459","0.017660","841738","892722","838387","5.748582","1.901162","0.048304","831123","872016","833623","5.037776","1.662558","0.049874","852818","873901","889418","4.146827","1.336917","0.020971","749652","895461","965799","2.778360","0.881132","0.000000","2436","2694","2819","1956","2459","2708","1748","2142","2335","1629","1734","1784","1185","1567","1185",""
"MA200-0420","23401","54","1","1.10","1.4","2023-05-06T14:19:59","120","2023/05/06","14:19:59","-15.798425734043121","34.993598997592926","3.4","15","30","64","62","-24454","-412","-8379","17","150","149.65","112.02","37.62","31.60","38.3","15.68","90472","31.06","DUALSPOT-UV-BLUE-GREEN-RED-IR","729582","692886","906093","7.737497","2.537069","0.008204","839386","890355","836232","5.774087","1.910442","0.019205","830942","871988","833638","5.060555","1.670396","0.006979","852470","873667","889224","4.164482","1.342752","-0.005738","749720","895597","965995","2.789312","0.883818","0.000000","2181","2280","2329","1687","1828","1898","1688","1729","1750","1581","1556","1544","1365","997","1365",""
"MA200-0420","23402","54","1","1.10","1.4","2023-05-06T14:20:29","120","2023/05/06","14:20:29","-15.797695875167847","34.994163513183594","5.2","15","30","64","62","-24745","-900","-7508","17","150","150.08","111.95","38.14","31.58","38.3","15.64","90472","31.06","DUALSPOT-UV-BLUE-GREEN-RED-IR","729128","692644","905930","7.781679","2.554262","0.022470","838815","889926","835910","5.801546","1.919555","-0.006897","829843","870984","832758","5.083759","1.678341","0.001504","851407","872669","888262","4.183310","1.348977","-0.010899","748879","894658","965033","2.800068","0.888242","0.000000","2318","2648","2809","1818","1771","1748","1720","1729","1734","1687","1637","1613","1342","1620","1342",""
"MA200-0420","23403","54","1","1.10","1.4","2023-05-06T14:20:59","120","2023/05/06","14:20:59","-15.797414362430573","34.99521863460541","4.7","15","30","64","62","-24656","-708","-7468","17","150","149.82","111.85","37.97","31.56","38.3","15.63","90456","31.06","DUALSPOT-UV-BLUE-GREEN-RED-IR","728990","692723","906155","7.824981","2.569246","0.003556","838782","890038","836101","5.827707","1.928031","-0.012577","830062","871300","833120","5.104970","1.685845","0.011586","851857","873226","888875","4.198907","1.354716","0.026257","749405","895316","965738","2.808210","0.890119","0.000000","2273","2317","2339","1733","1654","1615","1574","1640","1673","1399","1516","1572","1016","690","1016",""
"MA200-0420","23404","54","1","1.10","1.4","2023-05-06T14:21:29","120","2023/05/06","14:21:29","-15.797410309314728","34.996357679367065","3.5","15","30","64","62","-24958","-2925","-6950","17","150","150.22","111.80","38.42","31.53","38.3","15.61","90452","31.00","DUALSPOT-UV-BLUE-GREEN-RED-IR","727248","691235","904314","7.862905","2.581253","-0.016891","836211","887473","833758","5.853242","1.936221","-0.018928","828790","870093","832003","5.124869","1.690751","-0.142413","850466","871902","887569","4.217093","1.360335","-0.041571","748486","894267","964648","2.817688","0.893347","0.000000","1992","1835","1758","1693","1580","1524","1477","1059","854","1632","1467","1388","1184","1173","1184",""
"MA200-0420","23405","54","1","1.10","1.4","2023-05-06T14:21:59","120","2023/05/06","14:21:59","-15.797402799129486","34.997408866882324","3.8","15","30","64","62","-24800","-3733","-6845","17","150","149.94","111.94","38.00","31.50","38.4","15.61","90328","30.94","DUALSPOT-UV-BLUE-GREEN-RED-IR","732546","696436","911239","7.902294","2.594310","-0.004560","843341","895227","841064","5.878431","1.943058","-0.072666","828427","869835","831825","5.147657","1.697522","-0.044371","849215","870777","886460","4.233554","1.363829","-0.291716","748067","893828","964178","2.826845","0.896253","0.000000","2066","2018","1994","1668","1333","1168","1690","1479","1375","1475","922","660","1142","1068","1142",""
"MA200-0420","23406","54","1","1.10","1.4","2023-05-06T14:22:29","120","2023/05/06","14:22:29","-15.797918260097504","34.99771773815155","4.4","15","30","64","61","-25004","-1692","-6724","17","150","149.72","112.18","37.54","31.48","38.4","15.62","90288","30.94","DUALSPOT-UV-BLUE-GREEN-RED-IR","730838","695013","909518","7.943126","2.607473","-0.007264","842171","894131","840139","5.906087","1.952242","-0.001922","831653","873361","835266","5.168833","1.704359","-0.010712","854881","876669","892500","4.249693","1.368465","-0.062108","746998","892635","962923","2.836185","0.898863","0.000000","2137","2059","2021","1827","1813","1807","1567","1512","1485","1443","1239","1141","1163","971","1163",""
"MA200-0420","23407","54","1","1.10","1.4","2023-05-06T14:22:59","120","2023/05/06","14:22:59","-15.798882782459259","34.997997879981995","3.6","15","30","64","62","-25137","-2645","-6300","17","150","149.95","112.05","37.91","31.48","38.5","15.65","90252","30.88","DUALSPOT-UV-BLUE-GREEN-RED-IR","729993","694391","908812","7.983173","2.622345","0.015908","840994","892998","839126","5.930686","1.959604","-0.035121","826932","868553","830703","5.190924","1.711565","-0.010874","854885","876764","892645","4.265923","1.372058","-0.243605","747072","892773","963108","2.844390","0.901808","0.000000","2099","2304","2404","1627","1439","1346","1636","1578","1549","1453","950","712","1023","1085","1023",""
"MA200-0420","23408","54","1","1.10","1.4","2023-05-06T14:23:29","120","2023/05/06","14:23:29","-15.800133347511292","34.99796038866043","5.0","14","30","64","61","-24776","640","-6715","17","150","149.65","111.95","37.70","31.46","38.6","15.69","90232","30.88","DUALSPOT-UV-BLUE-GREEN-RED-IR","729333","694003","908509","8.033169","2.639034","-0.001637","839821","891991","838269","5.960542","1.968998","-0.018245","830485","872436","834502","5.215236","1.717811","-0.104820","852691","874603","890502","4.286425","1.378587","-0.020294","750541","897014","967703","2.855714","0.903028","0.000000","2623","2600","2589","1977","1847","1783","1803","1375","1165","1837","1737","1690","1413","452","1413",""
"MA200-0420","23409","54","1","1.10","1.4","2023-05-06T14:23:59","120","2023/05/06","14:23:59","-15.800957441329956","34.997607469558716","2.3","14","30","64","61","-25383","-1645","-5016","17","150","149.71","112.36","37.35","31.46","38.8","15.73","90300","30.88","DUALSPOT-UV-BLUE-GREEN-RED-IR","726108","691444","905493","8.120424","2.669534","0.008809","836078","888450","835152","6.020075","1.988494","-0.003719","828359","870600","832916","5.267534","1.736819","0.023259","850425","872623","888654","4.325823","1.390822","-0.024745","748992","895377","966047","2.881109","0.911454","0.000000","4561","4796","4912","3927","3870","3841","3864","4225","4403","3517","3286","3177","3157","3151","3157",""
"MA200-0420","23410","54","1","1.10","1.4","2023-05-06T14:24:29","120","2023/05/06","14:24:29","-15.80175668001175","34.99822461605072","4.0","14","30","64","62","-24850","-116","-7566","17","150","149.77","112.02","37.75","31.42","38.8","15.72","90312","30.88","DUALSPOT-UV-BLUE-GREEN-RED-IR","723671","691568","907275","8.675674","2.856990","0.000328","834280","888934","836746","6.441856","2.130735","0.000189","826541","870768","834039","5.634883","1.857608","-0.006644","849447","873358","890238","4.631158","1.489668","-0.013270","748710","896289","967686","3.096044","0.979153","-0.034079","29112","29168","29195","27911","27934","27945","27224","26566","26242","27345","26271","25762","26802","25053","24244",""
"MA200-0420","23411","54","1","1.10","1.4","2023-05-06T14:24:59","120","2023/05/06","14:24:59","-15.801699221134186","34.99913215637207","3.3","14","30","64","61","-25204","-1862","-6220","17","150","149.95","112.08","37.87","31.37","38.8","15.67","90300","30.81","DUALSPOT-UV-BLUE-GREEN-RED-IR","722282","690531","906136","8.747908","2.883800","0.014661","833634","888481","836468","6.488194","2.147281","0.012090","824974","869317","832784","5.674680","1.871037","-0.000308","847653","871660","888621","4.664330","1.501868","0.024780","747398","894822","966159","3.116649","0.986218","0.006841","3785","4158","4342","3064","3239","3325","2947","2944","2942","2969","3232","3357","2568","2606","2624",""
"MA200-0420","23412","54","1","1.10","1.4","2023-05-06T14:25:29","120","2023/05/06","14:25:29","-15.802069008350372","35.00015183331561","4.1","14","30","64","61","-25228","-1660","-6036","17","150","149.79","112.22","37.57","31.35","38.8","15.63","90300","30.75","DUALSPOT-UV-BLUE-GREEN-RED-IR","721220","689726","905279","8.797255","2.902492","0.018659","832177","887096","835275","6.520626","2.160233","0.034361","824870","869320","832859","5.702396","1.883393","0.058098","847202","871348","888343","4.684214","1.509062","0.022760","747385","894854","966201","3.127908","0.989667","-0.045245","2582","2922","3089","2142","2556","2761","2050","2730","3066","1777","1921","1989","1401","1282","1227",""
"MA200-0420","23413","54","1","1.10","1.4","2023-05-06T14:25:59","120","2023/05/06","14:25:59","-15.802894055843353","35.00084199995035","3.4","14","30","64","61","-25054","-2683","-7262","17","150","149.40","112.17","37.24","31.31","38.8","15.60","90220","30.69","DUALSPOT-UV-BLUE-GREEN-RED-IR","725379","693918","910939","8.848707","2.920358","0.007256","831223","886267","834587","6.552829","2.170569","-0.007975","823504","868062","831713","5.728518","1.890003","-0.095984","845411","869642","886652","4.705328","1.516039","-0.001480","746173","893517","964781","3.140518","0.993478","-0.048107","2694","2818","2879","2128","2057","2022","1933","1473","1247","1888","1879","1875","1570","1429","1364",""
"MA200-0420","23414","54","1","1.10","1.4","2023-05-06T14:26:29","120","2023/05/06","14:26:29","-15.803427159786224","35.001570999855176","2.9","14","30","64","61","-24662","-3008","-8037","17","150","150.60","112.48","38.12","31.28","38.8","15.60","90136","30.69","DUALSPOT-UV-BLUE-GREEN-RED-IR","722369","691270","907602","8.898447","2.937093","-0.001240","833960","889370","837589","6.583605","2.179563","-0.039391","821506","866061","829908","5.756032","1.899891","0.014361","849270","873699","890825","4.725570","1.520961","-0.151119","745027","892215","963422","3.153032","0.997649","-0.007905","2597","2578","2569","2028","1748","1610","2030","2153","2213","1805","1295","1053","1554","1528","1516",""
"MA200-0420","23415","54","1","1.10","1.4","2023-05-06T14:26:59","120","2023/05/06","14:26:59","-15.803457021713257","35.002080499893054","0.1","14","30","64","61","-25074","-2102","-6637","17","150","150.21","112.44","37.77","31.25","38.9","15.62","90096","30.69","DUALSPOT-UV-BLUE-GREEN-RED-IR","723331","692493","909433","8.960741","2.958002","-0.000129","835499","891311","839522","6.624931","2.192313","-0.020941","826398","871482","835167","5.789070","1.908207","-0.103211","849997","874646","891866","4.751670","1.527841","-0.097804","744913","892199","963435","3.167524","1.000905","-0.296121","3254","3251","3250","2724","2502","2392","2439","1827","1527","2328","1827","1589","1800","1204","929",""
"MA200-0420","23416","54","1","1.10","1.4","2023-05-06T14:27:29","120","2023/05/06","14:27:29","-15.804042398929596","35.00214833300561","4.3","14","30","64","61","-24944","-4","-7468","17","150","149.65","112.18","37.47","31.23","39.0","15.62","90100","30.69","DUALSPOT-UV-BLUE-GREEN-RED-IR","721964","691921","909211","9.054613","2.992609","0.014800","834778","891226","839830","6.689929","2.216100","0.018691","820951","866337","830556","5.843560","1.928800","0.028050","850040","875166","892689","4.795806","1.544240","0.029619","744962","892601","964068","3.196531","1.010973","0.016871","4915","5424","5675","4295","4706","4909","4032","4562","4823","3947","4390","4601","3612","3753","3818",""
"MA200-0420","23417","54","1","1.10","1.4","2023-05-06T14:27:59","120","2023/05/06","14:27:59","-15.805013418197632","35.00231633265503","4.4","14","30","64","61","-24896","-224","-7079","17","150","150.15","112.20","37.94","31.21","39.0","15.60","90120","30.69","DUALSPOT-UV-BLUE-GREEN-RED-IR","720540","691171","908644","9.249525","3.060907","0.005549","832312","889136","838099","6.833903","2.266043","0.005438","820145","865927","830416","5.970635","1.972568","0.004507","849002","874502","892230","4.899404","1.579624","0.002975","744333","892132","963695","3.268402","1.034290","-0.019313","10203","10572","10755","9512","9757","9879","9402","9576","9662","9263","9356","9400","8948","8584","8416",""
"MA200-0420","23418","54","1","1.10","1.4","2023-05-06T14:28:29","120","2023/05/06","14:28:29","-15.805106699466705","35.00363866612315","3.9","14","30","64","61","-24332","-464","-9404","17","150","149.71","112.25","37.46","31.19","39.0","15.58","90152","30.63","DUALSPOT-UV-BLUE-GREEN-RED-IR","718781","689804","907079","9.337017","3.091747","0.008312","830913","887970","837140","6.894569","2.286393","0.001107","818920","864856","829530","6.023509","1.991408","0.015267","847775","873473","891259","4.944070","1.594024","-0.010645","743885","891719","963331","3.296466","1.042918","-0.039495","4578","4835","4963","4006","4027","4037","3910","4175","4306","3992","3856","3792","3492","3217","3090",""
"MA200-0420","23419","54","1","1.10","1.4","2023-05-06T14:28:59","120","2023/05/06","14:28:59","-15.80640333890915","35.00405199918896","3.6","14","30","64","61","-24852","400","-7847","17","150","149.89","112.12","37.76","31.16","39.0","15.56","90216","30.63","DUALSPOT-UV-BLUE-GREEN-RED-IR","717974","689377","906806","9.416670","3.120971","0.012527","830339","887626","836953","6.942631","2.303750","0.014062","823307","869762","834341","6.062857","2.004509","-0.002850","846394","872204","890069","4.973448","1.603865","-0.001624","742850","890602","962163","3.314977","1.048945","-0.015434","4172","4545","4730","3177","3407","3521","2913","2880","2864","2628","2614","2607","2306","2229","2194",""
"MA200-0420","23420","54","1","1.10","1.4","2023-05-06T14:29:29","120","2023/05/06","14:29:29","-15.807426512241364","35.00433999951929","4.5","14","30","64","61","-24640","996","-6384","17","150","150.08","112.07","38.01","31.14","38.9","15.51","90268","30.56","DUALSPOT-UV-BLUE-GREEN-RED-IR","717037","688793","906212","9.486185","3.144983","0.002824","829504","886993","836501","6.986029","2.319097","0.008602","822094","868673","833370","6.098716","2.015942","-0.016156","845158","871070","889005","5.002296","1.614534","0.023550","742318","890010","961621","3.332286","1.055217","0.027272","3643","3710","3743","2870","2993","3054","2656","2497","2418","2582","2816","2927","2157","2305","2373",""
"MA200-0420","23421","54","1","1.10","1.4","2023-05-06T14:29:59","120","2023/05/06","14:29:59","-15.808576226234436","35.004627832677215","3.8","14","30","64","61","-24700","-2035","-7964","17","150","150.41","112.28","38.12","31.12","38.9","15.51","90288","30.56","DUALSPOT-UV-BLUE-GREEN-RED-IR","714779","686944","904008","9.554804","3.168777","0.003225","827057","884593","834374","7.028604","2.331942","-0.028474","820692","867435","832258","6.135954","2.027225","-0.031206","843326","869385","887327","5.029170","1.621079","-0.142301","745931","894486","966487","3.350126","1.060756","-0.042729","3589","3665","3703","2810","2497","2342","2753","2457","2310","2401","1722","1399","2219","2029","1941",""
"MA200-0420","23422","54","1","1.10","1.4","2023-05-06T14:30:29","120","2023/05/06","14:30:29","-15.809344708919525","35.00494016613811","3.0","14","30","64","61","-25184","-1988","-6292","17","150","150.21","112.52","37.69","31.10","38.9","15.48","90236","30.50","DUALSPOT-UV-BLUE-GREEN-RED-IR","715084","687500","904923","9.610493","3.188312","0.006861","827480","885301","835126","7.064736","2.344441","0.006593","820609","867516","832427","6.164088","2.037262","0.014364","843618","869806","887820","5.052426","1.628063","-0.035698","745901","894519","966555","3.362560","1.063563","-0.271121","2907","3044","3112","2380","2458","2496","2075","2210","2277","2073","1858","1756","1543","1040","807",""
"MA200-0420","23423","54","1","1.10","1.4","2023-05-06T14:30:59","120","2023/05/06","14:30:59","-15.810189664363861","35.005260998848826","3.6","14","30","64","61","-24558","-787","-7354","17","150","150.01","112.27","37.74","31.08","39.0","15.50","90212","30.50","DUALSPOT-UV-BLUE-GREEN-RED-IR","719945","692409","911567","9.664518","3.206556","0.000727","827787","885854","835728","7.099208","2.355468","-0.010969","820552","867608","832607","6.192133","2.046716","0.000697","843143","869467","887550","5.075085","1.634391","-0.065507","745608","894278","966354","3.375902","1.068292","0.021931","2826","2839","2846","2276","2166","2111","2073","2079","2082","2024","1682","1519","1660","1750","1792",""
"MA200-0420","23424","54","1","1.10","1.4","2023-05-06T14:31:29","120","2023/05/06","14:31:29","-15.810853719711304","35.005473165307194","2.0","14","30","64","61","-25208","-1179","-5962","17","150","150.27","112.21","38.06","31.06","39.2","15.53","90200","30.50","DUALSPOT-UV-BLUE-GREEN-RED-IR","718248","691112","910052","9.734768","3.227716","-0.020647","832301","890940","840613","7.142312","2.365935","-0.103375","819834","867116","832214","6.227531","2.054071","-0.219901","843223","869737","887838","5.100649","1.639513","-0.297740","745621","894404","966542","3.390827","1.070996","-0.629055","3677","3265","3061","2847","2038","1638","2618","1604","1105","2285","1350","907","1858","992","593",""
"MA200-0420","23425","54","1","1.10","1.4","2023-05-06T14:31:59","120","2023/05/06","14:31:59","-15.811384737491608","35.005633999127895","2.8","14","30","64","61","-24436","-460","-6132","17","150","150.08","112.33","37.76","31.05","39.4","15.62","90200","30.50","DUALSPOT-UV-BLUE-GREEN-RED-IR","712706","686077","903573","9.797739","3.247461","-0.011403","832595","891522","841257","7.182111","2.375877","-0.086716","819866","867354","832484","6.261198","2.062851","-0.080228","843099","869796","887933","5.125792","1.645184","-0.183365","745792","894730","966867","3.406717","1.073830","-0.639904","3292","3071","2961","2626","1952","1618","2488","1930","1656","2245","1506","1157","1976","1048","621",""
"MA200-0420","23426","54","1","1.10","1.4","2023-05-06T14:32:29","120","2023/05/06","14:32:29","-15.812053322792053","35.00540983164683","3.7","14","30","64","61","-24112","666","-5541","17","150","149.89","112.12","37.76","31.04","39.5","15.65","90208","30.50","DUALSPOT-UV-BLUE-GREEN-RED-IR","717487","690894","910141","9.853685","3.268913","0.017425","832124","891217","841078","7.217009","2.389628","0.028076","819047","866622","831930","6.291316","2.074098","0.022205","842225","869007","887232","5.149610","1.653850","0.020526","745362","894286","966465","3.421089","1.078236","-0.044067","2930","3336","3538","2307","2699","2893","2230","2472","2592","2131","2302","2383","1790","1629","1556",""
"MA200-0420","23427","54","1","1.10","1.4","2023-05-06T14:32:59","120","2023/05/06","14:32:59","-15.812613189220428","35.00494149932638","3.5","14","30","64","61","-24672","44","-4580","17","150","149.47","112.32","37.15","31.01","39.5","15.63","90240","30.50","DUALSPOT-UV-BLUE-GREEN-RED-IR","717267","691014","910507","9.918407","3.292247","0.011961","831433","890704","840735","7.256030","2.403301","0.011229","818569","866301","831670","6.322498","2.084964","0.011681","841833","868694","887024","5.174980","1.662868","0.019155","744937","893858","966064","3.435697","1.083068","-0.000043","3384","3689","3840","2575","2728","2803","2304","2428","2488","2266","2435","2515","1816","1816","1816",""
"MA200-0420","23428","54","1","1.10","1.4","2023-05-06T14:33:29","120","2023/05/06","14:33:29","-15.813166677951813","35.0046114991419","2.4","14","30","64","60","-24812","-2991","-7795","17","150","149.82","112.01","37.82","30.99","39.5","15.61","90240","30.44","DUALSPOT-UV-BLUE-GREEN-RED-IR","714258","688403","907263","9.980219","3.313583","0.003248","828699","887961","838251","7.293101","2.417004","0.017037","816723","864543","830052","6.353761","2.096200","0.013815","839264","866209","884509","5.196435","1.669442","-0.030380","743572","892306","964421","3.450510","1.088272","0.016241","3241","3313","3349","2453","2686","2801","2317","2466","2540","1921","1743","1659","1847","1922","1957",""
"MA200-0420","23429","54","1","1.10","1.4","2023-05-06T14:33:59","120","2023/05/06","14:33:59","-15.813714027404785","35.004734999500215","3.0","14","30","64","60","-24304","112","-8004","17","150","150.46","112.25","38.21","30.98","39.5","15.62","90248","30.44","DUALSPOT-UV-BLUE-GREEN-RED-IR","714986","689306","908655","10.040825","3.333568","-0.004876","829019","888529","838880","7.331005","2.428162","-0.034543","817252","865264","830829","6.382660","2.105766","-0.006686","840098","867249","885626","5.219767","1.676538","-0.035606","744071","892979","965212","3.463775","1.092808","0.001946","3171","3072","3023","2503","2164","1997","2137","2078","2049","2085","1863","1758","1650","1658","1662",""
"MA200-0420","23430","54","1","1.10","1.4","2023-05-06T14:34:29","120","2023/05/06","14:34:29","-15.814290881156921","35.0041058328934","3.5","14","30","64","60","-24588","-672","-7975","17","150","149.82","111.77","38.05","30.96","39.6","15.61","90276","30.44","DUALSPOT-UV-BLUE-GREEN-RED-IR","714835","689445","908978","10.094088","3.353351","0.011877","829207","888942","839365","7.364194","2.441329","0.026920","817451","865601","831231","6.410112","2.115857","0.016593","840391","867612","886091","5.239775","1.683745","0.015027","744230","893242","965521","3.475111","1.095836","-0.132084","2799","3053","3180","2201","2565","2745","2039","2201","2281","1795","1900","1949","1416","1111","971",""
"MA200-0420","23431","54","1","1.10","1.4","2023-05-06T14:34:59","120","2023/05/06","14:34:59","-15.814914643764496","35.0034386664629","3.6","14","30","64","60","-24872","-1532","-7588","17","150","149.63","112.12","37.50","30.95","39.5","15.59","90260","30.44","DUALSPOT-UV-BLUE-GREEN-RED-IR","713744","688588","908037","10.143496","3.372005","0.015947","828094","887921","838501","7.394678","2.451581","0.001107","821335","869867","835418","6.436443","2.125454","0.018337","846010","873548","892203","5.260804","1.690344","-0.019044","743723","892724","964968","3.487810","1.100307","0.020462","2588","2921","3087","2015","2026","2032","1949","2124","2210","1881","1765","1710","1582","1665","1703",""
"MA200-0420","23432","54","1","1.10","1.4","2023-05-06T14:35:29","120","2023/05/06","14:35:29","-15.815674006938934","35.0028069994878","4.0","14","30","64","60","-25008","-316","-7947","17","150","149.84","112.14","37.70","30.94","39.5","15.58","90260","30.44","DUALSPOT-UV-BLUE-GREEN-RED-IR","713947","688980","908706","10.190880","3.388860","0.007864","828491","888524","839141","7.424507","2.462638","0.017926","816637","865049","830858","6.460951","2.133649","-0.001224","846422","874077","892788","5.279449","1.696480","-0.006039","743957","893060","965398","3.499582","1.105113","0.068158","2481","2626","2698","1971","2174","2274","1814","1804","1800","1668","1633","1616","1466","1780","1925",""
"MA200-0420","23433","54","1","1.10","1.4","2023-05-06T14:35:59","120","2023/05/06","14:35:59","-15.816413819789886","35.002250999677926","2.8","14","30","64","60","-24768","800","-7175","17","150","149.35","111.99","37.36","30.93","39.6","15.60","90296","30.50","DUALSPOT-UV-BLUE-GREEN-RED-IR","713991","689231","909161","10.237078","3.405571","0.010937","828958","889193","839835","7.454394","2.470845","-0.048253","816513","865048","830932","6.485440","2.140754","-0.037280","846611","874411","893184","5.299833","1.702580","-0.033774","744322","893588","965989","3.510534","1.107755","-0.193560","2423","2626","2728","1978","1628","1455","1815","1578","1462","1826","1638","1548","1366","987","813",""
"MA200-0420","23434","54","1","1.10","1.4","2023-05-06T14:36:29","120","2023/05/06","14:36:29","-15.816807746887207","35.002536999760196","2.1","14","30","64","60","-24883","-912","-7245","17","150","149.59","111.80","37.79","30.92","39.6","15.59","90296","30.50","DUALSPOT-UV-BLUE-GREEN-RED-IR","711772","687421","907043","10.302595","3.428268","0.003498","825682","886006","836999","7.497192","2.485955","0.008323","814887","863614","829686","6.522240","2.152150","-0.021906","844431","872377","891222","5.329920","1.712237","-0.015049","742924","892076","964411","3.532964","1.114314","-0.069411","3442","3528","3570","2837","2964","3026","2732","2503","2391","2700","2563","2499","2802","2424","2250",""
"MA200-0420","23435","54","1","1.10","1.4","2023-05-06T14:36:59","120","2023/05/06","14:36:59","-15.8164182305336","35.00336016644724","3.7","15","30","64","61","-24848","520","-7396","17","150","150.02","112.20","37.81","30.91","39.7","15.61","90324","30.44","DUALSPOT-UV-BLUE-GREEN-RED-IR","711685","687683","907623","10.388020","3.458223","0.005512","826062","886712","837767","7.557452","2.506912","0.006038","815479","864457","830628","6.575116","2.170247","0.003449","838995","866981","885825","5.374514","1.726291","-0.019641","743743","893245","965738","3.564262","1.121982","-0.185810","4471","4652","4743","3981","4108","4171","3912","3973","4003","3987","3728","3606","3896","2832","2344",""
"MA200-0420","23436","54","1","1.10","1.4","2023-05-06T14:37:29","120","2023/05/06","14:37:29","-15.816437780857086","35.00399499991909","4.0","15","30","64","60","-24892","-435","-7788","17","150","150.08","112.11","37.97","30.90","39.6","15.58","90372","30.44","DUALSPOT-UV-BLUE-GREEN-RED-IR","711746","688083","908357","10.455585","3.481584","0.002904","825959","886879","838084","7.603585","2.521718","-0.011183","815181","864427","830656","6.613576","2.182757","-0.009478","838416","866561","885468","5.403666","1.735597","-0.017131","743427","892991","965528","3.583686","1.128789","0.013422","3539","3613","3650","3050","2890","2811","2848","2735","2680","2608","2458","2387","2420","2504","2542",""
"MA200-0420","23437","54","1","1.10","1.4","2023-05-06T14:37:59","120","2023/05/06","14:37:59","-15.817576110363007","35.00414333259687","3.9","15","30","64","60","-25020","128","-6915","17","150","149.89","111.77","38.12","30.90","39.7","15.60","90404","30.44","DUALSPOT-UV-BLUE-GREEN-RED-IR","711044","687640","907942","10.515810","3.503147","0.006614","826115","887226","838535","7.643447","2.535385","0.001047","814830","864200","830560","6.647009","2.193481","-0.014671","844566","873090","892189","5.430700","1.744343","-0.015070","743107","892740","965292","3.601879","1.133636","-0.130115","3164","3322","3401","2643","2658","2665","2483","2335","2262","2426","2301","2243","2273","1776","1548",""
"MA200-0420","23438","54","1","1.10","1.4","2023-05-06T14:38:29","120","2023/05/06","14:38:29","-15.818644523620605","35.004274332430214","4.1","15","30","64","60","-24752","104","-7128","17","150","149.35","112.29","37.06","30.87","39.7","15.58","90452","30.38","DUALSPOT-UV-BLUE-GREEN-RED-IR","710670","687463","907878","10.563101","3.519847","0.008993","826578","887916","839245","7.672660","2.544331","-0.015767","819139","868951","835170","6.672333","2.202207","0.009233","843215","871806","890964","5.452033","1.750763","-0.027389","742582","892174","964747","3.614141","1.137463","-0.023906","2473","2646","2733","1928","1789","1720","1872","1954","1995","1906","1737","1658","1525","1442","1404",""
"MA200-0420","23439","54","1","1.10","1.4","2023-05-06T14:38:59","120","2023/05/06","14:38:59","-15.819111824035645","35.00457116542384","2.0","15","30","64","60","-24608","2358","-7262","17","150","149.82","112.05","37.78","30.87","39.7","15.59","90516","30.38","DUALSPOT-UV-BLUE-GREEN-RED-IR","709974","687022","907443","10.610485","3.537136","0.010343","825417","886852","838343","7.702257","2.555973","0.025912","818080","867942","834282","6.697167","2.210700","0.003162","842811","871475","890657","5.468988","1.756599","0.005452","742263","891845","964407","3.625929","1.141239","-0.021569","2483","2688","2790","1958","2284","2446","1840","1866","1879","1518","1549","1564","1469","1396","1363",""
"MA200-0420","23440","54","1","1.10","1.4","2023-05-06T14:39:29","120","2023/05/06","14:39:29","-15.819005727767944","35.00536466529593","2.2","15","30","64","60","-24812","-1888","-5388","17","150","149.41","111.70","37.71","30.86","39.7","15.60","90516","30.38","DUALSPOT-UV-BLUE-GREEN-RED-IR","709350","686634","907092","10.659174","3.553402","-0.001497","824904","886492","838078","7.732809","2.564835","-0.034493","817969","867959","834379","6.723160","2.218276","-0.038144","842742","871552","890801","5.490331","1.762154","-0.092689","741996","891593","964173","3.638696","1.144940","-0.071419","2560","2533","2520","2027","1742","1600","1932","1667","1537","1917","1478","1270","1596","1371","1267",""
"MA200-0420","23441","54","1","1.10","1.4","2023-05-06T14:39:59","120","2023/05/06","14:39:59","-15.818783700466156","35.00603299820796","2.4","15","30","64","60","-24604","-772","-7672","17","150","149.76","112.01","37.75","30.86","39.7","15.60","90492","30.44","DUALSPOT-UV-BLUE-GREEN-RED-IR","709298","686869","907564","10.713804","3.572502","0.004953","824878","886674","838351","7.766398","2.575445","-0.013355","818259","868508","834964","6.751582","2.227378","-0.011902","842984","871937","891249","5.511716","1.769038","-0.012821","742401","892179","964872","3.653314","1.148678","-0.148670","2864","2971","3025","2223","2083","2014","2106","2001","1950","1915","1829","1789","1823","1383","1181",""
"MA200-0420","23442","54","1","1.10","1.4","2023-05-06T14:40:29","120","2023/05/06","14:40:29","-15.818404376506805","35.00660799909383","2.4","15","30","64","60","-24856","-2060","-6564","17","150","149.56","111.85","37.71","30.85","39.7","15.59","90484","30.44","DUALSPOT-UV-BLUE-GREEN-RED-IR","709424","687216","908221","10.772417","3.593189","0.006086","824365","886325","838106","7.801295","2.587378","0.002656","813786","863843","830564","6.779622","2.237171","0.007482","843941","873032","892458","5.534114","1.777031","0.014313","742964","892925","965693","3.666454","1.153230","0.010489","3078","3221","3293","2312","2345","2361","2081","2155","2192","2009","2126","2181","1641","1686","1706",""
"MA200-0420","23443","54","1","1.10","1.4","2023-05-06T14:40:59","120","2023/05/06","14:40:59","-15.817969262599945","35.00688433321193","1.5","15","30","64","60","-25341","-2133","-5158","17","150","150.02","112.20","37.81","30.86","39.8","15.62","90460","30.50","DUALSPOT-UV-BLUE-GREEN-RED-IR","709073","687248","908463","10.853039","3.616016","-0.029049","824855","887163","838975","7.847067","2.599639","-0.056399","813969","864334","831102","6.816749","2.246696","-0.081136","844153","873428","892909","5.558799","1.782979","-0.130131","743288","893437","966274","3.682893","1.157188","-0.193806","4220","3545","3208","3024","2403","2096","2747","2091","1768","2207","1577","1280","2046","1462","1194",""
"MA200-0420","23444","54","1","1.10","1.4","2023-05-06T14:41:29","120","2023/05/06","14:41:29","-15.817567765712738","35.00698066595942","1.4","15","30","64","60","-25232","-3552","-5648","17","150","149.59","112.10","37.49","30.87","39.8","15.65","90440","30.50","DUALSPOT-UV-BLUE-GREEN-RED-IR","709682","688267","910115","10.934643","3.643507","0.001007","825756","888468","840367","7.897130","2.614606","-0.023843","814481","865087","831936","6.854694","2.257281","-0.047876","844703","874187","893789","5.588119","1.791729","-0.033643","743719","894083","967061","3.702100","1.162783","-0.062473","4275","4307","4323","3310","2959","2786","2810","2344","2115","2624","2341","2208","2393","2085","1943",""
"MA200-0420","23445","54","1","1.10","1.4","2023-05-06T14:41:59","120","2023/05/06","14:41:59","-15.817047715187073","35.006703165825456","3.3","15","30","64","60","-25332","-2548","-7928","17","150","149.65","112.02","37.62","30.89","39.9","15.67","90392","30.56","DUALSPOT-UV-BLUE-GREEN-RED-IR","708366","687360","909117","11.018728","3.669813","-0.010385","818198","880574","833015","7.946915","2.630317","-0.012468","813587","864356","831363","6.895357","2.270585","-0.005813","837201","866565","886058","5.615542","1.800492","-0.013711","742982","893348","966306","3.722452","1.168934","-0.045908","4408","4106","3956","3294","3095","2997","3013","2935","2897","2455","2336","2280","2537","2283","2167",""
"MA200-0420","23446","54","1","1.10","1.4","2023-05-06T14:42:29","120","2023/05/06","14:42:29","-15.816462218761444","35.0064541650936","3.0","15","30","64","60","-24828","-2924","-7552","17","150","149.81","112.27","37.53","30.90","39.8","15.67","90348","30.56","DUALSPOT-UV-BLUE-GREEN-RED-IR","709081","688547","911056","11.113007","3.702694","0.005492","819716","882623","835169","8.001922","2.648622","-0.000846","814100","865220","832317","6.939607","2.285498","0.001742","838253","867890","887513","5.650670","1.812645","0.008656","743576","894211","967300","3.745844","1.174761","-0.157549","4932","5145","5252","3632","3615","3607","3272","3298","3312","3139","3248","3300","2910","2169","1830",""
"MA200-0420","23447","54","1","1.10","1.4","2023-05-06T14:42:59","120","2023/05/06","14:42:59","-15.815962195396423","35.00640166550875","3.0","15","30","64","60","-24208","-2375","-6633","17","150","150.15","112.44","37.71","30.91","39.8","15.68","90332","30.56","DUALSPOT-UV-BLUE-GREEN-RED-IR","708866","688921","911809","11.226309","3.736135","-0.019505","819624","882916","835601","8.069085","2.668690","-0.024102","813851","865242","832445","6.991436","2.302068","-0.010686","838499","868386","888092","5.688640","1.823287","-0.055996","743665","894477","967661","3.771593","1.181725","-0.104056","5918","5209","4855","4428","3945","3707","3826","3648","3560","3387","2831","2569","3199","2579","2297",""
"MA200-0420","23448","54","1","1.10","1.4","2023-05-06T14:43:29","120","2023/05/06","14:43:29","-15.815580666065216","35.00719299912453","2.3","15","30","64","59","-24688","-408","-6396","17","150","149.65","111.95","37.70","30.91","39.9","15.69","90336","30.63","DUALSPOT-UV-BLUE-GREEN-RED-IR","700618","681480","902241","11.346027","3.770393","-0.025593","816581","880041","833024","8.135419","2.686762","-0.049029","812163","863802","831172","7.042682","2.314615","-0.097286","836463","866499","886250","5.723088","1.832565","-0.072934","742388","893120","966245","3.795793","1.187104","-0.257852","6281","5337","4867","4392","3553","3140","3800","2763","2255","3087","2469","2178","3019","1993","1526",""
"MA200-0420","23449","54","1","1.10","1.4","2023-05-06T14:43:59","120","2023/05/06","14:43:59","-15.815184891223907","35.007697999011725","1.7","15","30","72","60","-24604","-2496","-6411","17","150","150.21","112.48","37.73","30.93","39.9","15.73","90328","30.63","DUALSPOT-UV-BLUE-GREEN-RED-IR","702024","683473","905322","11.494816","3.817924","-0.006689","818387","882428","835485","8.213685","2.711338","-0.012850","814172","866279","833705","7.101826","2.332627","-0.022384","839329","869742","889664","5.765267","1.844319","-0.057476","641174","771483","834713","3.824779","1.195074","-0.092962","7769","7399","7214","5158","4828","4665","4365","3963","3766","3762","3125","2825","3599","2950","2655",""
"MA200-0420","23450","54","1","1.10","1.4","2023-05-06T14:44:29","120","2023/05/06","14:44:29","-15.81474632024765","35.00817166734487","2.6","15","30","64","60","-25354","-1750","-6537","17","150","149.32","112.24","37.07","30.94","39.9","15.74","90304","30.63","DUALSPOT-UV-BLUE-GREEN-RED-IR","702163","683988","906311","11.586466","3.851053","0.010691","819401","883830","836913","8.263921","2.727473","-0.005197","814158","866489","833984","7.143055","2.344185","-0.040686","839657","870236","890286","5.797795","1.854770","-0.007204","739980","890585","963594","3.848045","1.200724","-0.162634","4795","5248","5474","3317","3226","3181","3049","2588","2362","2907","2828","2790","2895","2128","1781",""
"MA200-0420","23451","54","1","1.10","1.4","2023-05-06T14:44:59","120","2023/05/06","14:44:59","-15.814232170581818","35.008679498918355","2.8","15","30","64","59","-25075","-562","-5683","17","150","149.87","112.19","37.68","30.95","40.0","15.78","90300","30.63","DUALSPOT-UV-BLUE-GREEN-RED-IR","700219","682489","904490","11.664993","3.875164","-0.012645","817275","881817","835120","8.307980","2.739119","-0.056050","812478","864911","832561","7.178228","2.354210","-0.040500","837655","868321","888353","5.822759","1.860965","-0.107004","738446","888842","961759","3.863540","1.204528","-0.166116","4111","3758","3582","2911","2291","1986","2602","2208","2016","2232","1649","1375","1929","1410","1175",""
"MA200-0420","23452","54","1","1.10","1.4","2023-05-06T14:45:29","120","2023/05/06","14:45:29","-15.813756108283997","35.00917516462505","1.6","14","30","64","59","-24614","-988","-7902","17","150","150.15","112.11","38.04","30.97","40.0","15.80","90312","30.69","DUALSPOT-UV-BLUE-GREEN-RED-IR","702641","685153","908304","11.733252","3.899871","0.007759","820239","885262","838507","8.347027","2.753967","0.018292","814731","867512","835165","7.210591","2.366304","0.018187","840159","871060","891256","5.847402","1.871015","0.039175","740225","891031","964211","3.881189","1.209702","-0.063438","3576","3815","3934","2581","2893","3047","2396","2639","2758","2205","2650","2860","2199","1900","1764",""
"MA200-0420","23453","54","1","1.10","1.4","2023-05-06T14:45:59","120","2023/05/06","14:45:59","-15.813412010669708","35.009679332375526","2.9","14","30","64","59","-25545","-2662","-6916","17","150","149.94","112.52","37.42","30.98","40.0","15.81","90260","30.69","DUALSPOT-UV-BLUE-GREEN-RED-IR","702934","685722","909247","11.799019","3.922678","0.005104","821533","886875","840135","8.387149","2.767313","0.000037","810511","863198","831114","7.242403","2.376330","-0.011656","834725","865550","885704","5.869458","1.877456","-0.037224","741229","892336","965679","3.897327","1.215751","0.040028","3432","3579","3652","2643","2643","2644","2347","2224","2164","1966","1726","1613","2003","2258","2373",""
"MA200-0420","23454","54","1","1.10","1.4","2023-05-06T14:46:29","120","2023/05/06","14:46:29","-15.813032686710358","35.01014499831945","2.5","14","30","64","59","-24716","-3162","-7279","17","150","150.47","112.28","38.19","31.00","40.1","15.86","90204","30.75","DUALSPOT-UV-BLUE-GREEN-RED-IR","701079","684640","908226","11.905750","3.956354","-0.010205","819736","885477","839022","8.448681","2.786219","-0.019933","813593","866860","834755","7.288458","2.390682","-0.019530","839593","870846","891223","5.901791","1.886726","-0.050824","739846","890857","964131","3.918203","1.220421","-0.252285","5583","5179","4978","4062","3670","3476","3405","3120","2981","2889","2435","2222","2597","1708","1306",""
"MA200-0420","23455","54","1","1.10","1.4","2023-05-06T14:46:59","120","2023/05/06","14:46:59","-15.812734842300415","35.01046183146536","1.6","14","30","64","59","-25641","-6145","-5541","17","150","149.96","112.44","37.52","31.02","40.2","15.91","90148","30.75","DUALSPOT-UV-BLUE-GREEN-RED-IR","695983","680870","903778","12.179539","4.026851","-0.042510","820898","887682","841400","8.603933","2.825058","-0.069043","810242","863965","832191","7.404061","2.418655","-0.093159","834461","865972","886372","5.973682","1.904490","-0.103022","741716","893454","966993","3.965061","1.229555","-0.382593","14302","11036","9423","10235","7673","6421","8535","6189","5051","6414","4750","3970","5821","3400","2312",""
"MA200-0420","23456","54","1","1.10","1.4","2023-05-06T14:47:29","120","2023/05/06","14:47:29","-15.81229454278946","35.01027566473931","2.3","14","30","64","59","-24487","-1316","-8145","17","150","150.08","112.48","37.61","31.04","40.3","15.95","90120","30.75","DUALSPOT-UV-BLUE-GREEN-RED-IR","701396","686516","911473","12.268135","4.053339","-0.015298","814639","881153","835343","8.656075","2.839816","-0.034197","809971","863888","832207","7.445610","2.430111","-0.047258","835208","866899","887353","6.000895","1.910176","-0.203821","741237","892986","966538","3.983884","1.233556","-0.280364","4626","4136","3895","3436","2909","2651","3066","2529","2268","2427","1516","1091","2337","1486","1104",""
"MA200-0420","23457","54","1","1.10","1.4","2023-05-06T14:47:59","120","2023/05/06","14:47:59","-15.811532437801361","35.00992049835622","2.8","14","30","64","59","-24516","-370","-8804","17","150","150.08","112.65","37.43","31.06","40.3","15.97","90120","30.81","DUALSPOT-UV-BLUE-GREEN-RED-IR","695252","680927","904289","12.355474","4.080915","-0.006502","814094","880864","835175","8.704320","2.854282","-0.019518","809878","864026","832418","7.483083","2.441346","-0.022662","835484","867344","887887","6.026683","1.918815","0.001964","741552","893464","967126","4.001703","1.238756","-0.053506","4554","4327","4215","3174","2865","2713","2761","2492","2361","2296","2315","2324","2209","1940","1819",""
"MA200-0420","23458","54","1","1.10","1.4","2023-05-06T14:48:29","120","2023/05/06","14:48:29","-15.811403632164001","35.00965649820864","1.9","14","30","72","59","-24495","516","-7654","17","150","150.08","112.15","37.93","31.07","40.3","15.98","90144","30.81","DUALSPOT-UV-BLUE-GREEN-RED-IR","602521","590438","784344","12.441307","4.109668","-0.001149","813783","880770","835229","8.750948","2.869653","-0.004449","809666","864025","832531","7.518720","2.452332","-0.020111","835433","867405","888033","6.051287","1.926491","-0.021196","741250","893229","966940","4.019842","1.242949","-0.210347","4495","4452","4431","3082","3004","2966","2638","2404","2291","2201","2030","1950","2259","1544","1224",""
"MA200-0420","23459","54","1","1.10","1.4","2023-05-06T14:48:59","120","2023/05/06","14:48:59","-15.811396539211273","35.00926949735731","3.1","14","30","64","59","-25045","-1150","-6325","17","150","149.84","111.95","37.89","31.09","40.1","15.94","90152","30.81","DUALSPOT-UV-BLUE-GREEN-RED-IR","697302","683565","908286","12.501516","4.132705","0.013057","817049","884532","838915","8.786166","2.884233","0.028391","807960","862337","830989","7.548558","2.464997","0.036315","833549","865586","886232","6.074834","1.935803","0.032653","739968","891749","965369","4.036045","1.249376","0.049444","3158","3571","3775","2332","2852","3107","2212","2775","3048","2110","2465","2632","2021","2369","2525",""
"MA200-0420","23460","54","1","1.10","1.4","2023-05-06T14:49:29","120","2023/05/06","14:49:29","-15.81089586019516","35.00869099795818","2.6","14","30","64","59","-24896","-3816","-8276","17","150","149.79","112.26","37.53","31.09","40.0","15.91","90104","30.75","DUALSPOT-UV-BLUE-GREEN-RED-IR","698720","685219","910641","12.561333","4.152971","0.001565","818237","886014","840412","8.821346","2.895879","-0.001667","809060","863669","832353","7.576062","2.473479","-0.017174","834474","866636","887367","6.093440","1.942162","0.005200","741211","893378","967128","4.049530","1.252252","-0.272039","3129","3171","3192","2323","2300","2289","2034","1876","1799","1662","1699","1717","1678","1070","798",""
"MA200-0420","23461","54","1","1.10","1.4","2023-05-06T14:49:59","120","2023/05/06","14:49:59","-15.810469210147858","35.00871099811047","2.3","14","30","64","59","-24816","-3244","-7779","17","150","149.52","112.33","37.20","31.09","40.0","15.88","90104","30.75","DUALSPOT-UV-BLUE-GREEN-RED-IR","696985","684855","910896","12.825319","4.229597","-0.017608","811146","879238","834352","8.961767","2.937621","-0.020040","807466","862592","831574","7.675731","2.502280","-0.030365","833382","865905","886767","6.152099","1.958751","-0.044300","739981","892137","965942","4.089481","1.263701","-0.059190","13803","12099","11260","9267","8318","7856","7366","6428","5974","5239","4474","4117","4968","4299","4000",""
"MA200-0420","23462","54","1","1.10","1.4","2023-05-06T14:50:29","120","2023/05/06","14:50:29","-15.810207784175873","35.009608164429665","3.2","14","30","64","59","-24916","-1729","-7983","17","150","150.33","112.55","37.78","31.10","39.9","15.88","90104","30.75","DUALSPOT-UV-BLUE-GREEN-RED-IR","694460","682640","908151","12.892273","4.251829","-0.001265","814278","882834","837853","9.001928","2.949571","-0.022563","806332","861561","830665","7.706365","2.511102","-0.034657","832205","864820","885721","6.176468","1.966101","-0.028332","739118","891207","964945","4.105980","1.268192","-0.091604","3493","3456","3437","2645","2344","2198","2259","1938","1783","2172","1951","1848","2047","1660","1488",""
"MA200-0420","23463","54","1","1.10","1.4","2023-05-06T14:50:59","120","2023/05/06","14:50:59","-15.809803903102875","35.01025733165443","2.6","14","30","64","59","-24800","-1787","-8070","17","150","149.77","112.40","37.37","31.11","39.9","15.86","90076","30.75","DUALSPOT-UV-BLUE-GREEN-RED-IR","695370","683759","909840","12.945547","4.271749","0.012119","816355","885314","840282","9.034695","2.961147","0.009421","807626","863099","832196","7.735190","2.521103","0.007862","833997","866801","887831","6.197872","1.973573","0.011026","740399","892837","966746","4.119514","1.271148","-0.239107","2783","3130","3301","2161","2296","2362","2129","2221","2266","1910","2006","2050","1682","1104","847",""
"MA200-0420","23464","54","1","1.10","1.4","2023-05-06T14:51:29","120","2023/05/06","14:51:29","-15.809464395046234","35.0110613303259","3.9","14","30","64","59","-24579","-912","-8062","17","150","149.60","112.23","37.37","31.11","39.7","15.82","90052","30.75","DUALSPOT-UV-BLUE-GREEN-RED-IR","695380","684158","910642","13.012833","4.296673","0.011054","816396","885693","840867","9.080299","2.978343","0.018143","807097","862857","832135","7.772084","2.535009","0.021083","832908","865904","887058","6.227544","1.984208","0.016213","739579","892062","965989","4.140344","1.279138","0.043561","3521","3917","4112","3012","3411","3606","2729","3089","3264","2652","2855","2950","2592","2986","3163",""
"MA200-0420","23465","54","1","1.10","1.4","2023-05-06T14:51:59","120","2023/05/06","14:51:59","-15.809049189090729","35.01197283156216","2.7","14","30","64","59","-24787","-575","-7362","17","150","150.08","111.86","38.22","31.12","39.7","15.82","90056","30.81","DUALSPOT-UV-BLUE-GREEN-RED-IR","689950","679373","904707","13.162216","4.349596","0.003974","810356","879676","835403","9.185453","3.014523","0.001134","807034","863202","832677","7.862725","2.564806","-0.007561","832927","866321","887655","6.301245","2.008572","-0.007930","739691","892434","966542","4.192041","1.294437","-0.057251","7843","8133","8276","6968","7018","7042","6727","6472","6349","6610","6395","6295","6456","5592","5206",""
"MA200-0420","23466","54","1","1.10","1.4","2023-05-06T14:52:29","120","2023/05/06","14:52:29","-15.808987021446228","35.01215549837798","0.0","14","30","64","59","-24860","-708","-7543","17","150","149.89","112.01","37.88","31.13","39.7","15.83","90064","30.81","DUALSPOT-UV-BLUE-GREEN-RED-IR","689499","679575","905365","13.294775","4.391828","-0.007128","809693","879503","835450","9.270424","3.038991","-0.030608","806858","863476","833121","7.930996","2.584547","-0.034558","833432","867190","888661","6.353022","2.022777","-0.060279","735646","887788","961596","4.227518","1.303759","-0.112654","6951","6548","6349","5623","4788","4380","5060","4326","3971","4637","3762","3353","4424","3437","2997",""
"MA200-0420","23467","54","1","1.10","1.4","2023-05-06T14:52:59","120","2023/05/06","14:52:59","-15.808986723423004","35.01216749846935","0.1","14","30","64","59","-24895","-545","-6970","17","150","149.50","112.08","37.41","31.14","39.7","15.85","90060","30.88","DUALSPOT-UV-BLUE-GREEN-RED-IR","688176","678909","904863","13.436869","4.440037","0.001781","807490","877684","834000","9.369279","3.070867","-0.005678","806493","863570","833435","8.016865","2.611786","-0.009917","833714","867841","889563","6.420163","2.043791","-0.015690","740237","893618","968047","4.274147","1.317354","-0.052354","7446","7568","7628","6538","6316","6208","6360","6044","5892","6009","5634","5459","5811","5076","4748",""
"MA200-0420","23468","54","1","1.10","1.4","2023-05-06T14:53:29","120","2023/05/06","14:53:29","-15.80894684791565","35.012192664667964","0.7","14","30","64","59","-25287","-2254","-6008","17","150","149.65","112.18","37.47","31.15","39.8","15.87","90060","30.88","DUALSPOT-UV-BLUE-GREEN-RED-IR","687260","679028","905856","13.619434","4.506534","0.008737","807190","878404","835187","9.503777","3.117513","0.005664","805068","862965","833300","8.133364","2.652377","0.007379","832486","867344","889435","6.517133","2.076627","0.003019","739315","893100","967777","4.340889","1.338355","-0.021108","9559","10423","10850","8888","9228","9394","8622","8993","9172","8672","8791","8846","8311","7828","7613",""
"MA200-0420","23469","54","1","1.10","1.4","2023-05-06T14:53:59","120","2023/05/06","14:53:59","-15.809036672115326","35.01232816372067","2.6","14","30","64","59","-24725","-5145","-8925","17","150","149.32","112.48","36.84","31.18","39.8","15.89","90064","30.88","DUALSPOT-UV-BLUE-GREEN-RED-IR","685897","678977","906739","13.959604","4.625208","0.006370","807419","879961","837293","9.763615","3.207243","0.007683","804632","863638","834469","8.362468","2.727699","0.000689","832376","868190","890754","6.707453","2.138637","-0.001125","734879","888438","963058","4.479149","1.380950","-0.020926","17763","18922","19497","17125","18058","18514","16910","16976","17008","16975","16889","16848","17171","16153","15699",""
"MA200-0420","23470","54","1","1.10","1.4","2023-05-06T14:54:29","120","2023/05/06","14:54:29","-15.809805870056152","35.013252664357424","2.7","14","30","64","59","-25220","320","-5766","17","150","150.21","112.20","38.01","31.19","39.7","15.87","90108","30.94","DUALSPOT-UV-BLUE-GREEN-RED-IR","685209","679336","908004","14.206907","4.715502","0.007345","806160","879575","837483","9.946192","3.271389","0.005277","803682","863419","834725","8.520563","2.783257","0.006177","831972","868479","891420","6.838771","2.182552","-0.002795","734509","888557","963456","4.572155","1.410104","-0.026450","12945","13953","14454","12062","12511","12731","11698","12135","12347","11741","11591","11521","11579","10715","10330",""
"MA200-0420","23471","54","1","1.10","1.4","2023-05-06T14:54:59","120","2023/05/06","14:54:59","-15.809188067913055","35.01379683148116","4.6","14","30","64","59","-24795","-908","-7679","17","150","149.82","112.64","37.18","31.20","39.7","15.86","90104","30.94","DUALSPOT-UV-BLUE-GREEN-RED-IR","684692","679407","908473","14.339865","4.761556","0.004793","806141","880051","838167","10.040487","3.302431","-0.000412","803453","863662","835168","8.602728","2.810567","0.001179","831719","868595","891726","6.905740","2.204210","-0.004454","734437","888745","963814","4.620685","1.424725","-0.031293","6933","7274","7444","6206","6188","6180","6056","6097","6118","5965","5843","5787","6018","5492","5258",""
"MA200-0420","23472","54","1","1.10","1.4","2023-05-06T14:55:29","120","2023/05/06","14:55:29","-15.808782458305359","35.01507133152336","5.9","14","30","64","58","-24852","-2716","-7179","17","150","149.59","112.55","37.03","31.22","39.6","15.85","90096","30.94","DUALSPOT-UV-BLUE-GREEN-RED-IR","683572","679388","909308","14.572531","4.846441","0.009622","806129","881194","839853","10.219759","3.365821","0.009805","797859","858623","830813","8.758287","2.865130","0.010204","831162","868820","892384","7.034234","2.248435","0.009017","733946","888775","964122","4.712114","1.452885","-0.021596","12141","13463","14121","11807","12689","13122","11474","12232","12600","11453","11981","12229","11347","10622","10299",""
"MA200-0420","23473","54","1","1.10","1.4","2023-05-06T14:55:59","120","2023/05/06","14:55:59","-15.808547377586365","35.01728416420519","10.9","14","30","64","59","-24876","-1160","-6996","17","150","149.87","112.40","37.47","31.24","39.6","15.85","90056","30.94","DUALSPOT-UV-BLUE-GREEN-RED-IR","680060","677937","908984","15.065226","5.028671","0.009358","802906","879849","839729","10.618990","3.508598","0.009217","794617","857072","830290","9.117362","2.989947","0.006537","828304","867542","892001","7.337645","2.352239","0.005047","732070","887760","963681","4.928320","1.522776","-0.009350","25746","28561","29972","26331","28244","29188","26522","27652","28203","27082","27790","28124","26871","26053","25687",""
"MA200-0420","23474","54","1","1.10","1.4","2023-05-06T14:56:29","120","2023/05/06","14:56:29","-15.808280646800995","35.01990399323404","10.6","14","30","64","58","-24608","-2268","-7815","17","150","149.84","111.95","37.89","31.24","39.5","15.82","89984","30.94","DUALSPOT-UV-BLUE-GREEN-RED-IR","680053","678247","909649","15.158632","5.060241","-0.000127","802522","879737","839777","10.681985","3.528541","-0.009978","799100","862153","835335","9.171915","3.005755","-0.029665","827944","867370","891859","7.380035","2.364447","-0.038056","731722","887507","963489","4.960039","1.531394","-0.080484","4900","4894","4891","4171","3902","3769","4045","3463","3180","3798","3232","2965","3958","3177","2828",""
"MA200-0420","23475","54","1","1.10","1.4","2023-05-06T14:56:59","120","2023/05/06","14:56:59","-15.80761706829071","35.02257399633527","9.2","14","30","64","58","-24570","-2416","-6704","17","150","150.01","112.73","37.28","31.26","39.4","15.81","89944","30.94","DUALSPOT-UV-BLUE-GREEN-RED-IR","677352","676925","908864","15.361141","5.131473","0.005677","800107","878657","839417","10.847168","3.581649","-0.003993","792794","856765","830709","9.315921","3.050446","-0.010816","820232","860516","885352","7.502649","2.400858","-0.023534","731060","887640","963979","5.045055","1.553398","-0.090754","10551","11222","11559","10862","10560","10411","10605","9952","9634","10912","9798","9274","10535","8245","7226",""
"MA200-0420","23476","54","1","1.10","1.4","2023-05-06T14:57:29","120","2023/05/06","14:57:29","-15.806989848613739","35.02483483031392","9.5","14","30","64","58","-25076","-3696","-6460","17","150","149.60","112.36","37.24","31.26","39.3","15.78","89812","30.88","DUALSPOT-UV-BLUE-GREEN-RED-IR","676700","676766","909014","15.578674","5.210790","0.008386","798860","877755","838820","11.023938","3.638929","-0.003142","791931","856257","830408","9.479431","3.101975","-0.008338","826021","866959","892143","7.644207","2.443648","-0.019449","730584","887341","963791","5.149072","1.581439","-0.071645","11371","12508","13080","11663","11401","11272","12082","11486","11197","12640","11527","11004","12932","10517","9447",""
"MA200-0420","23477","54","1","1.10","1.4","2023-05-06T14:57:59","120","2023/05/06","14:57:59","-15.807038843631744","35.02700166217983","11.2","14","30","64","58","-25152","-1852","-7843","17","150","149.71","112.40","37.31","31.27","39.2","15.76","89748","30.88","DUALSPOT-UV-BLUE-GREEN-RED-IR","675739","676069","908276","15.640295","5.232408","0.005041","798397","877537","838707","11.066164","3.653366","0.003877","791299","855766","830058","9.514936","3.114223","0.005813","824576","865634","890861","7.674247","2.451954","-0.042379","729918","886711","963155","5.170652","1.586152","-0.188306","3219","3403","3495","2784","2868","2909","2622","2725","2776","2681","2233","2023","2681","1764","1358",""
"MA200-0420","23478","54","1","1.10","1.4","2023-05-06T14:58:29","120","2023/05/06","14:58:29","-15.807646870613098","35.029946161434054","10.3","14","30","64","58","-24904","-1672","-7264","17","150","149.34","112.27","37.07","31.27","39.1","15.70","0","0.00","DUALSPOT-UV-BLUE-GREEN-RED-IR","674308","674979","907083","15.720303","5.262602","0.011259","796501","875700","837106","11.118216","3.672612","0.013664","794774","859797","834087","9.561337","3.130579","0.009557","823887","865092","890452","7.709284","2.464431","0.013442","733420","891166","968073","5.197679","1.594245","-0.029816","4185","4784","5085","3436","3849","4052","3431","3663","3776","3130","3377","3492","3362","3049","2911",""
"MA200-0420","23479","54","1","1.10","1.4","2023-05-06T14:58:59","120","2023/05/06","14:58:59","-15.808428049087524","35.03239232674241","10.0","14","30","64","58","-24766","-495","-8033","17","150","150.42","112.48","37.94","31.26","39.0","15.65","0","0.00","DUALSPOT-UV-BLUE-GREEN-RED-IR","673203","674122","906128","15.781446","5.284792","0.006498","796261","875631","837160","11.157424","3.686702","0.007989","793940","859088","833484","9.595469","3.142446","0.004572","822419","863700","889079","7.737089","2.473364","-0.009703","732483","890120","966981","5.217203","1.599462","-0.081935","3192","3435","3557","2584","2753","2836","2519","2597","2634","2480","2362","2306","2424","1921","1698",""
"MA200-0420","23480","54","1","1.10","1.4","2023-05-06T14:59:29","120","2023/05/06","14:59:29","-15.808594524860382","35.034000497311354","6.2","14","30","64","58","-24929","-2620","-6195","17","150","149.96","112.78","37.18","31.26","39.0","15.65","89672","30.81","DUALSPOT-UV-BLUE-GREEN-RED-IR","666801","670625","903672","16.275856","5.464262","0.008117","788323","870175","833639","11.572969","3.833348","0.008238","788349","855949","831915","9.963560","3.268605","0.005594","816507","860061","886678","8.050516","2.578384","0.002927","728418","887247","964891","5.455425","1.674044","-0.014346","25748","28352","29668","27314","29239","30193","27096","28171","28696","27881","28339","28554","29507","28022","27365",""
"MA200-0420","23481","54","1","1.10","1.4","2023-05-06T14:59:59","120","2023/05/06","14:59:59","-15.806130826473236","35.03422699123621","9.6","14","30","64","58","-24791","-2925","-7204","17","150","149.87","112.61","37.27","31.25","39.0","15.64","89568","30.75","DUALSPOT-UV-BLUE-GREEN-RED-IR","666481","671039","904836","16.632711","5.597183","0.009560","789439","872146","835912","11.858186","3.933752","0.007334","787398","855535","831906","10.226817","3.360581","0.007484","816079","860190","887105","8.280894","2.655752","0.002560","728232","887455","965329","5.624618","1.728555","-0.007079","18613","20948","22133","18776","19972","20565","19409","20489","21018","20525","20827","20970","20989","20432","20185",""
"MA200-0420","23482","54","1","1.10","1.4","2023-05-06T15:00:29","120","2023/05/06","15:00:29","-15.803887367248535","35.03528232127428","6.3","14","30","64","58","-24729","-1633","-7254","17","150","149.90","112.59","37.31","31.24","38.9","15.60","89484","30.69","DUALSPOT-UV-BLUE-GREEN-RED-IR","669552","674880","910617","16.789664","5.655981","0.009802","792637","876417","840403","11.976551","3.975916","0.008437","786407","855147","831842","10.331018","3.396773","0.006491","814492","859059","886233","8.368844","2.686060","0.006650","727776","887346","965419","5.687858","1.746451","-0.046911","8187","9257","9800","7793","8378","8669","7683","8054","8235","7837","8150","8298","7846","6701","6193",""
"MA200-0420","23483","54","1","1.10","1.4","2023-05-06T15:00:59","120","2023/05/06","15:00:59","-15.80270403623581","35.03576882183552","2.7","14","30","64","58","-24744","884","-8184","17","150","149.52","112.33","37.20","31.23","38.9","15.59","89468","30.69","DUALSPOT-UV-BLUE-GREEN-RED-IR","668248","674116","909994","16.937950","5.709514","0.007069","792084","876358","840629","12.087530","4.015159","0.007627","785544","854674","831641","10.429600","3.430557","0.004737","820723","866029","893621","8.448215","2.711751","-0.004063","727146","886907","965074","5.747015","1.764374","-0.024348","7753","8453","8808","7324","7821","8068","7286","7540","7665","7089","6929","6854","7356","6731","6453",""
"MA200-0420","23484","54","1","1.10","1.4","2023-05-06T15:01:29","120","2023/05/06","15:01:29","-15.802207350730896","35.03583999350667","0.6","14","30","64","58","-24787","-41","-7641","17","150","150.08","112.55","37.53","31.22","38.9","15.58","89492","30.69","DUALSPOT-UV-BLUE-GREEN-RED-IR","666509","672620","908203","17.009746","5.734842","0.004726","790297","874640","839075","12.138294","4.031808","-0.002088","783674","852856","829955","10.472526","3.444528","-0.003529","810830","855779","883141","8.484314","2.723031","-0.012033","725042","884477","962482","5.771520","1.771704","-0.030237","3746","3963","4074","3343","3288","3260","3166","3090","3053","3217","3015","2919","3041","2728","2589",""
"MA200-0420","23485","54","1","1.10","1.4","2023-05-06T15:01:59","120","2023/05/06","15:01:59","-15.801793932914734","35.036198157817125","8.4","14","30","64","58","-25141","-3895","-5812","17","150","149.35","112.67","36.68","31.20","38.9","15.56","89472","30.69","DUALSPOT-UV-BLUE-GREEN-RED-IR","659369","670542","909346","18.023514","6.102735","0.008193","783572","872539","839935","12.948993","4.320598","0.009555","777992","851333","830971","11.181173","3.692722","0.009082","807101","855908","885462","9.078132","2.928110","0.009060","722513","884594","964284","6.216358","1.914295","-0.003685","52850","58905","62005","53342","58361","60874","52219","56172","58121","52878","56088","57616","55155","54300","53920",""
"MA200-0420","23486","54","1","1.10","1.4","2023-05-06T15:02:29","120","2023/05/06","15:02:29","-15.802371978759766","35.03905065730214","11.2","14","30","64","58","-24883","-2854","-7016","17","150","149.40","112.53","36.87","31.20","38.9","15.57","89272","30.69","DUALSPOT-UV-BLUE-GREEN-RED-IR","656773","669797","909894","18.640236","6.332647","0.009264","781455","872243","840817","13.449296","4.502989","0.010770","775364","850322","831004","11.646815","3.859979","0.010810","810931","861594","892256","9.484471","3.067599","0.006947","720794","883751","964054","6.515928","2.011528","-0.002108","32189","36625","38908","32958","36672","38541","34353","37662","39302","36227","37956","38782","37188","36839","36684",""
"MA200-0420","23487","54","1","1.10","1.4","2023-05-06T15:02:59","120","2023/05/06","15:02:59","-15.804071128368378","35.04187682643533","13.4","14","30","64","58","-25248","-2664","-5552","17","150","149.77","111.84","37.94","31.19","38.9","15.55","89092","30.69","DUALSPOT-UV-BLUE-GREEN-RED-IR","633063","659454","908575","22.075424","7.704941","0.009712","756529","860362","839232","16.417631","5.653698","0.010894","753231","840504","830165","14.365652","4.891700","0.010615","785442","847503","885604","11.863204","3.946002","0.009879","707216","877930","964026","8.357218","2.650466","0.003891","180415","212465","229649","196763","224861","239619","201837","225786","238152","213395","232301","241723","229997","235275","237727",""
"MA200-0420","23488","54","1","1.10","1.4","2023-05-06T15:03:29","120","2023/05/06","15:03:29","-15.803766250610352","35.0462234839797","16.4","14","30","64","58","-24951","-174","-6979","17","150","150.34","112.40","37.94","31.18","38.8","15.51","89040","30.63","DUALSPOT-UV-BLUE-GREEN-RED-IR","632486","659408","909098","22.336636","7.813049","0.011551","756404","860847","840073","16.626854","5.736435","0.012481","752644","840421","830415","14.556731","4.964995","0.011780","789783","852704","891361","12.029409","4.007327","0.010181","706459","877394","963629","8.480968","2.692090","-0.000617","13649","16736","18396","13799","16165","17412","14113","16038","17034","14835","16215","16905","15380","15325","15300",""
"MA200-0420","23489","54","1","1.10","1.4","2023-05-06T15:03:59","120","2023/05/06","15:03:59","-15.801913321018219","35.04967465624213","14.2","14","30","64","57","-25292","-2428","-6188","17","150","149.35","112.02","37.33","31.15","38.7","15.44","89084","30.63","DUALSPOT-UV-BLUE-GREEN-RED-IR","629095","656403","905465","22.468288","7.866684","0.011360","752307","856646","836338","16.729137","5.775517","0.010947","753836","842209","832484","14.648552","4.999953","0.012153","785858","848876","887625","12.108509","4.035317","0.007029","703606","874170","960275","8.540365","2.711743","-0.001200","6902","8440","9268","6768","7762","8286","6804","7775","8278","7084","7523","7743","7406","7355","7331",""
"MA200-0420","23490","54","1","1.10","1.4","2023-05-06T15:04:29","120","2023/05/06","15:04:29","-15.80120861530304","35.05370165780187","14.6","14","30","64","58","-24562","-366","-8712","17","150","149.93","112.14","37.80","31.13","38.5","15.35","88992","30.56","DUALSPOT-UV-BLUE-GREEN-RED-IR","628255","655987","905289","22.582874","7.914345","0.011730","750931","855617","835644","16.820040","5.810964","0.011498","753774","842603","833128","14.729614","5.030817","0.011166","786587","850047","889052","12.176436","4.060174","0.009356","708325","880341","967223","8.589325","2.727014","-0.014283","6001","7406","8164","6009","6952","7450","6001","6779","7183","6077","6598","6858","6099","5644","5432",""
"MA200-0420","23491","54","1","1.10","1.4","2023-05-06T15:04:59","120","2023/05/06","15:04:59","-15.803473234176636","35.05679149180651","15.4","14","30","64","57","-25688","-2776","-4304","17","150","149.89","111.93","37.96","31.10","38.4","15.28","88908","30.50","DUALSPOT-UV-BLUE-GREEN-RED-IR","629917","658083","908535","22.691124","7.956005","0.007575","753824","859291","839457","16.897938","5.840176","0.008234","751239","840062","830804","14.798007","5.055743","0.006883","782833","846246","885209","12.233260","4.079474","0.000185","706056","877710","964430","8.627712","2.739586","-0.006133","5680","6446","6859","5159","5705","5993","5073","5451","5648","5093","5101","5105","4791","4626","4550",""
"MA200-0420","23492","54","1","1.10","1.4","2023-05-06T15:05:29","120","2023/05/06","15:05:29","-15.803894340991974","35.05996782705188","11.9","14","30","64","58","-25679","-3516","-7729","17","150","149.67","111.94","37.73","31.07","38.3","15.22","88848","30.44","DUALSPOT-UV-BLUE-GREEN-RED-IR","629430","657986","908760","22.784072","7.993644","0.010401","753493","859282","839654","16.965802","5.865473","0.008223","750935","840053","830998","14.858109","5.076891","0.004225","789139","853356","892832","12.282377","4.097033","0.006805","706054","877956","964829","8.664570","2.751678","-0.004667","4876","5860","6391","4494","4970","5222","4457","4654","4756","4402","4669","4803","4599","4477","4420",""
"MA200-0420","23493","54","1","1.10","1.4","2023-05-06T15:05:59","120","2023/05/06","15:05:59","-15.804359495639801","35.06382583081722","17.6","14","30","64","58","-24900","-1976","-7928","17","150","149.57","111.83","37.74","31.04","38.3","15.18","88784","30.38","DUALSPOT-UV-BLUE-GREEN-RED-IR","627456","656501","907211","22.909698","8.044235","0.010018","751440","857538","838304","17.063686","5.902499","0.009138","753341","843273","834468","14.943436","5.109060","0.010110","786552","851040","890652","12.353215","4.122541","0.007395","704467","876297","963217","8.714622","2.768789","0.002139","6598","7873","8563","6488","7272","7687","6334","7076","7461","6355","6780","6993","6252","6333","6371",""
"MA200-0420","23494","54","1","1.10","1.4","2023-05-06T15:06:29","120","2023/05/06","15:06:29","-15.804820835590363","35.06708814948797","13.1","14","30","64","58","-24679","-2716","-7683","17","150","150.21","112.32","37.89","31.01","38.3","15.16","88712","30.31","DUALSPOT-UV-BLUE-GREEN-RED-IR","626035","655826","906984","23.102558","8.118133","0.007497","750003","856945","838261","17.230614","5.961377","0.003782","751375","842108","833809","15.098265","5.160796","-0.000962","784567","849855","889838","12.490044","4.163916","-0.014730","703041","875375","962502","8.820313","2.797658","-0.043801","10085","11455","12197","11017","11519","11785","11444","11336","11280","12221","10955","10322","13144","10643","9481",""
"MA200-0420","23495","54","1","1.10","1.4","2023-05-06T15:06:59","120","2023/05/06","15:06:59","-15.804943442344666","35.069812156260014","9.9","14","30","64","57","-24712","-3736","-7732","17","150","149.76","111.85","37.91","30.98","38.3","15.12","88604","30.31","DUALSPOT-UV-BLUE-GREEN-RED-IR","623944","654360","905678","23.317764","8.203586","0.008976","747424","855024","836918","17.442144","6.033993","0.001107","749669","841184","833337","15.305668","5.226952","-0.006416","782600","848663","889037","12.685251","4.221341","-0.019450","701827","874673","962084","8.977129","2.836655","-0.070998","11301","13240","14292","14020","14200","14296","15395","14488","14018","17510","15198","14044","19586","14371","11961",""
"MA200-0420","23496","54","1","1.10","1.4","2023-05-06T15:07:29","120","2023/05/06","15:07:29","-15.803748786449432","35.07287981361151","12.6","14","30","64","57","-25079","-2145","-7750","17","150","149.79","112.09","37.70","30.95","38.2","15.05","88408","30.25","DUALSPOT-UV-BLUE-GREEN-RED-IR","624731","655990","908699","23.538768","8.294925","0.011097","742674","850463","833020","17.626538","6.105441","0.010716","746464","838389","831117","15.475392","5.291521","0.010747","778818","845312","885980","12.833929","4.276937","0.011201","703568","877517","965535","9.092897","2.874463","-0.004849","11580","14232","15674","12194","14051","15034","12570","14221","15078","13307","14796","15541","14427","14010","13818",""
"MA200-0420","23497","54","1","1.10","1.4","2023-05-06T15:07:59","120","2023/05/06","15:07:59","-15.8027885556221","35.07524465024471","5.3","14","30","64","57","-24728","-1952","-7440","17","150","149.76","111.77","37.99","30.92","38.1","14.97","88292","30.19","DUALSPOT-UV-BLUE-GREEN-RED-IR","623993","655804","909008","23.671238","8.348854","0.009888","747554","856660","839477","17.728618","6.146390","0.012198","745724","838086","831153","15.564087","5.326027","0.011582","778554","845484","886437","12.910380","4.304415","0.006155","703502","877829","966050","9.146732","2.892250","-0.004645","6961","8338","9088","6770","7991","8638","6588","7541","8037","6862","7257","7454","6728","6541","6454",""
"MA200-0420","23498","54","1","1.10","1.4","2023-05-06T15:08:29","120","2023/05/06","15:08:29","-15.802098274230957","35.076545648276806","5.7","13","30","64","57","-25004","-1637","-7795","17","150","149.77","111.62","38.15","30.89","38.0","14.93","88264","30.19","DUALSPOT-UV-BLUE-GREEN-RED-IR","623505","655491","908801","23.747052","8.382095","0.012806","747847","857212","840134","17.783414","6.168640","0.012566","745150","837620","830784","15.615137","5.346274","0.012554","783486","851006","892339","12.952321","4.319825","0.007801","702806","877061","965307","9.177790","2.903899","0.013580","3989","5117","5732","3639","4323","4686","3797","4406","4723","3769","4052","4193","3887","4265","4440",""
"MA200-0420","23499","54","1","1.10","1.4","2023-05-06T15:08:59","120","2023/05/06","15:08:59","-15.801344752311707","35.07781381905079","5.7","13","30","64","57","-24916","-1720","-7650","17","150","150.22","112.31","37.91","30.85","38.0","14.90","88236","30.13","DUALSPOT-UV-BLUE-GREEN-RED-IR","622834","655015","908348","23.802994","8.404434","0.009266","747110","856588","839689","17.826114","6.186026","0.013471","748397","841523","834750","15.651015","5.359769","0.009463","782574","850178","891561","12.982669","4.330414","0.003708","701984","876157","964349","9.198534","2.910802","-0.002301","2925","3461","3753","2818","3400","3709","2652","2955","3113","2711","2802","2848","2580","2543","2526",""
"MA200-0420","23500","54","1","1.10","1.4","2023-05-06T15:09:29","120","2023/05/06","15:09:29","-15.800600349903107","35.07905464619398","4.7","13","30","64","57","-25125","-3362","-6470","17","150","150.40","112.06","38.33","30.82","38.0","14.86","88212","30.13","DUALSPOT-UV-BLUE-GREEN-RED-IR","621666","654347","907958","23.909470","8.448101","0.009838","745924","855829","839305","17.910502","6.218356","0.008668","743487","836468","830087","15.727971","5.390590","0.013117","781090","849041","890714","13.050637","4.355993","0.010015","701688","876155","964604","9.248999","2.928738","0.005846","5580","6690","7297","5582","6252","6608","5701","6675","7183","6085","6694","7000","6290","6536","6650",""
"MA200-0420","23501","54","1","1.10","1.4","2023-05-06T15:09:59","120","2023/05/06","15:09:59","-15.800454199314117","35.07937231659889","0.2","13","30","64","57","-25252","-1727","-5500","17","150","149.63","112.20","37.42","30.80","38.0","14.84","88208","30.13","DUALSPOT-UV-BLUE-GREEN-RED-IR","618586","652333","906383","24.271110","8.599304","0.011619","742860","853692","838143","18.217456","6.342262","0.013389","745473","840031","834456","16.008926","5.498952","0.012019","779738","848738","891114","13.293932","4.447177","0.011793","700348","875449","964388","9.433821","2.994259","0.008945","18931","23731","26366","20280","24545","26823","20788","24040","25741","21754","24446","25799","23010","24458","25131",""
"MA200-0420","23502","54","1","1.10","1.4","2023-05-06T15:10:29","120","2023/05/06","15:10:29","-15.800045907497406","35.079796984791756","3.0","13","30","64","57","-25137","-3541","-5295","17","150","149.32","112.40","36.92","30.78","38.0","14.82","88196","30.13","DUALSPOT-UV-BLUE-GREEN-RED-IR","618910","652885","907417","24.326088","8.624264","0.015292","743263","854396","839041","18.257516","6.359023","0.016208","745198","839937","834497","16.044344","5.514020","0.019344","778808","847910","890332","13.322979","4.458942","0.019484","700280","875470","964534","9.453930","3.001928","0.020207","2872","3971","4574","2642","3365","3752","2616","3388","3793","2592","3197","3501","2499","2902","3089",""
"MA200-0420","23503","54","1","1.10","1.4","2023-05-06T15:10:59","120","2023/05/06","15:10:59","-15.799771130084991","35.07976347953081","0.0","12","30","64","57","-25012","-1468","-6952","17","150","149.40","111.52","37.88","30.76","38.0","14.79","88184","30.13","DUALSPOT-UV-BLUE-GREEN-RED-IR","618235","652625","907380","24.433552","8.662682","0.003081","741560","852845","837700","18.332922","6.385893","0.003826","744913","839919","834669","16.107927","5.536282","0.002788","779061","848452","891071","13.373861","4.477231","0.006020","700126","875462","964618","9.489510","3.013935","-0.001003","5659","5957","6120","5012","5258","5390","4733","4879","4956","4577","4844","4978","4456","4428","4414",""
"MA200-0420","23504","54","1","1.10","1.4","2023-05-06T15:11:29","120","2023/05/06","15:11:29","-15.79976749420166","35.07976331561804","0.0","12","30","64","57","-25048","-1584","-7040","17","150","149.32","111.69","37.63","30.74","38.0","14.77","88184","30.13","DUALSPOT-UV-BLUE-GREEN-RED-IR","617754","652370","907217","24.498138","8.688683","0.009473","740391","851702","836711","18.376624","6.402326","0.008237","740525","835135","830017","16.143888","5.551082","0.015643","779619","849176","891924","13.402155","4.487134","0.004134","700416","875929","965170","9.507729","3.019475","-0.017507","3396","4058","4422","2900","3237","3417","2673","3265","3576","2541","2640","2690","2278","2056","1953",""
"MA200-0420","23505","54","1","1.10","1.4","2023-05-06T15:11:59","120","2023/05/06","15:11:59","-15.799164950847626","35.0794468075037","5.3","13","30","64","57","-24152","608","-8108","17","150","149.41","111.82","37.59","30.72","38.0","14.77","88192","30.19","DUALSPOT-UV-BLUE-GREEN-RED-IR","618288","653095","908471","24.548812","8.710255","0.011907","742941","854855","839901","18.412988","6.416542","0.010867","740630","835455","830423","16.176508","5.562586","0.004309","779681","849411","892227","13.427361","4.497189","0.016325","700761","876497","965855","9.526291","3.025754","0.000969","2661","3371","3761","2410","2803","3014","2421","2541","2603","2261","2683","2896","2318","2333","2340",""
"MA200-0420","23506","54","1","1.10","1.4","2023-05-06T15:12:29","120","2023/05/06","15:12:29","-15.798512399196625","35.07835999131203","5.1","12","30","64","57","-24587","83","-6704","17","150","149.94","112.19","37.75","30.72","38.0","14.79","88288","30.13","DUALSPOT-UV-BLUE-GREEN-RED-IR","617415","652392","907671","24.602772","8.734249","0.013523","741750","853645","838862","18.450824","6.432450","0.015014","744372","839806","834858","16.210451","5.576288","0.014404","778773","848568","891454","13.455697","4.507181","0.005010","700122","875827","965148","9.546024","3.031009","-0.046068","2824","3733","4233","2500","3124","3458","2511","3013","3276","2533","2655","2717","2457","1944","1706",""
"MA200-0420","23507","54","1","1.10","1.4","2023-05-06T15:12:59","120","2023/05/06","15:12:59","-15.79789137840271","35.0772859826684","6.1","12","30","64","57","-24708","-612","-7058","17","150","150.15","112.10","38.05","30.69","38.0","14.73","88328","30.06","DUALSPOT-UV-BLUE-GREEN-RED-IR","616628","651687","906892","24.647728","8.754086","0.012884","740966","852871","838207","18.480364","6.445945","0.018774","743455","838915","834085","16.236551","5.588507","0.022572","777435","847218","890104","13.477859","4.515948","0.014786","699379","874943","964242","9.560421","3.037274","0.030598","2355","3062","3451","1953","2629","2991","1933","2666","3051","1983","2311","2477","1794","2300","2535",""
"MA200-0420","23508","54","1","1.10","1.4","2023-05-06T15:13:29","120","2023/05/06","15:13:29","-15.797327399253845","35.07631166279316","4.0","12","30","64","57","-24533","-620","-7795","17","150","149.69","112.01","37.68","30.65","37.9","14.65","88348","29.94","DUALSPOT-UV-BLUE-GREEN-RED-IR","618602","653933","910183","24.688992","8.772919","0.014424","743156","855555","840955","18.509928","6.459070","0.017785","741006","836265","831514","16.261011","5.599141","0.018951","774421","844019","886814","13.497311","4.523487","0.013787","701639","877842","967485","9.574390","3.042465","0.013864","2163","2935","3360","1956","2581","2916","1813","2342","2620","1742","2007","2140","1742","1924","2008",""
"MA200-0420","23509","54","1","1.10","1.4","2023-05-06T15:13:59","120","2023/05/06","15:13:59","-15.796890676021576","35.07544914633036","3.5","12","30","64","57","-23908","845","-10470","17","150","149.87","111.94","37.93","30.59","37.7","14.53","88412","29.81","DUALSPOT-UV-BLUE-GREEN-RED-IR","615039","650590","905826","24.774234","8.802391","0.001238","739559","851772","837412","18.567746","6.479132","0.001926","742473","838206","833647","16.310051","5.616581","0.004312","776864","846929","890012","13.536986","4.535788","-0.010829","699461","875343","964837","9.602722","3.051057","-0.018921","4472","4563","4614","3828","3921","3970","3637","3817","3912","3555","3253","3101","3535","3164","2991",""
"MA200-0420","23510","54","1","1.10","1.4","2023-05-06T15:14:29","120","2023/05/06","15:14:29","-15.795794486999512","35.0759149864316","6.0","12","30","64","57","-24500","83","-7620","17","150","149.84","111.99","37.85","30.53","37.7","14.49","88436","29.75","DUALSPOT-UV-BLUE-GREEN-RED-IR","615289","652798","910010","25.198932","8.926495","-0.010526","740520","854497","840772","18.840738","6.559998","-0.012412","739707","836378","832341","16.530809","5.680126","-0.017658","773346","844116","887443","13.703839","4.582723","-0.024577","697302","873459","963067","9.732689","3.082859","-0.069637","22274","19259","17605","18071","15839","14646","16366","13938","12668","14948","12441","11182","16212","11737","9663",""
"MA200-0420","23511","54","1","1.10","1.4","2023-05-06T15:14:59","120","2023/05/06","15:14:59","-15.794791758060455","35.07622765004635","3.9","12","30","64","57","-24640","1364","-4636","17","150","150.40","112.52","37.88","30.49","37.7","14.43","88516","29.69","DUALSPOT-UV-BLUE-GREEN-RED-IR","614165","651888","908991","25.268760","8.951984","0.004569","740010","854161","840630","18.890986","6.578845","0.007888","737882","834551","830664","16.575914","5.696022","0.004021","777512","848882","892559","13.738121","4.593615","-0.006722","700162","877170","967254","9.755745","3.091929","0.020287","3645","3952","4120","3310","3688","3890","3328","3484","3565","3056","2884","2798","2862","3345","3568",""
"MA200-0420","23512","54","1","1.10","1.4","2023-05-06T15:15:29","120","2023/05/06","15:15:29","-15.79421204328537","35.075114987790585","2.9","12","30","64","57","-25120","12","-5968","17","150","149.94","112.03","37.92","30.44","37.7","14.40","88672","29.69","DUALSPOT-UV-BLUE-GREEN-RED-IR","611662","649458","905816","25.337902","8.978504","0.006753","736762","850658","837297","18.938430","6.595200","0.001460","740215","837400","833580","16.615561","5.709535","0.000634","774843","846121","889746","13.771076","4.603705","-0.012138","698491","875191","965096","9.774982","3.097582","-0.024437","3625","4108","4373","3139","3197","3228","2938","2958","2969","2951","2669","2528","2398","2082","1936",""
"MA200-0420","23513","54","1","1.10","1.4","2023-05-06T15:15:59","120","2023/05/06","15:15:59","-15.793753206729889","35.074161149561405","5.2","12","30","64","57","-24995","-1095","-8208","17","150","149.63","111.93","37.70","30.38","37.8","14.39","88696","29.63","DUALSPOT-UV-BLUE-GREEN-RED-IR","611592","649560","906090","25.378284","8.994125","0.007368","736497","850514","837217","18.966842","6.604869","0.000821","740129","837438","833684","16.640036","5.718219","0.004530","774974","846394","890056","13.790256","4.608832","-0.032567","698900","875755","965762","9.784748","3.100461","-0.022881","2119","2433","2606","1881","1901","1911","1815","1912","1963","1719","1364","1186","1218","1066","995",""
"MA200-0420","23514","54","1","1.10","1.4","2023-05-06T15:16:29","120","2023/05/06","15:16:29","-15.793385744094849","35.07351814955473","2.9","12","30","64","56","-24960","-4692","-6443","17","150","150.33","112.44","37.89","30.34","37.8","14.36","88652","29.56","DUALSPOT-UV-BLUE-GREEN-RED-IR","608801","646768","902346","25.422370","9.012039","0.009506","733059","846694","833583","18.997850","6.617052","0.010677","738692","835962","832295","16.665819","5.727267","0.003548","773229","844601","888220","13.810575","4.616554","0.011652","697704","874282","964195","9.796314","3.107836","0.057828","2302","2776","3036","2044","2383","2564","1903","1982","2023","1813","2044","2160","1436","2719","3314",""
"MA200-0420","23515","54","1","1.10","1.4","2023-05-06T15:16:59","120","2023/05/06","15:16:59","-15.79242318868637","35.07299464195967","4.4","12","30","64","57","-25062","-737","-6975","17","150","149.52","112.06","37.46","30.30","37.9","14.37","88612","29.56","DUALSPOT-UV-BLUE-GREEN-RED-IR","609931","648086","904366","25.462750","9.029373","0.012006","735267","849401","836338","19.026686","6.627458","0.005723","739268","836747","833142","16.690521","5.736613","0.010019","773477","844971","888707","13.831503","4.623951","0.005725","698492","875366","965407","9.807106","3.110651","-0.048438","2116","2717","3048","1907","2059","2140","1830","2071","2197","1873","1980","2034","1345","1049","912",""
"MA200-0420","23516","54","1","1.10","1.4","2023-05-06T15:17:29","120","2023/05/06","15:17:29","-15.792009115219116","35.07208114117384","3.7","12","30","64","56","-24844","-4140","-6984","17","150","149.38","111.65","37.73","30.26","38.0","14.38","88592","29.56","DUALSPOT-UV-BLUE-GREEN-RED-IR","613499","652258","910641","25.560952","9.072613","0.012507","733356","847615","834813","19.104804","6.658453","0.011046","738407","836119","832781","16.757931","5.763590","0.013092","772367","844077","887982","13.889725","4.645768","0.010132","697449","874239","964302","9.845371","3.125256","0.016210","5166","6732","7593","5186","6090","6574","5012","5936","6421","5231","5802","6088","4787","5408","5696",""
"MA200-0420","23517","54","1","1.10","1.4","2023-05-06T15:17:59","120","2023/05/06","15:17:59","-15.791296362876892","35.07203797996044","5.5","12","30","64","57","-24891","-1016","-7641","17","150","149.95","112.05","37.91","30.23","38.1","14.38","88560","29.56","DUALSPOT-UV-BLUE-GREEN-RED-IR","613016","651991","910464","25.626362","9.100624","0.011390","738812","854154","841417","19.149946","6.677014","0.012974","737981","835798","832617","16.798956","5.780274","0.014017","772542","844407","888450","13.921087","4.658686","0.017697","697708","874681","964891","9.865612","3.133423","0.022322","3428","4340","4842","2986","3629","3974","3039","3654","3976","2808","3419","3726","2523","3009","3236",""
"MA200-0420","23518","54","1","1.10","1.4","2023-05-06T15:18:29","120","2023/05/06","15:18:29","-15.790198028087616","35.07256681472063","4.6","12","30","64","56","-24720","-328","-7164","17","150","149.75","112.05","37.69","30.19","38.2","14.37","88608","29.56","DUALSPOT-UV-BLUE-GREEN-RED-IR","611985","651082","909466","25.682464","9.125309","0.012587","738051","853455","840897","19.189564","6.694323","0.016391","737108","835005","831929","16.833970","5.795068","0.016682","770938","842795","886859","13.948632","4.668570","0.006535","697201","874121","964358","9.882957","3.141589","0.037366","2940","3846","4345","2621","3404","3823","2594","3258","3607","2466","2630","2713","2162","3026","3428",""
"MA200-0420","23519","54","1","1.10","1.4","2023-05-06T15:18:59","120","2023/05/06","15:18:59","-15.789107978343964","35.07302048057318","3.9","12","30","64","56","-24132","483","-8079","17","150","149.90","112.29","37.61","30.16","38.3","14.40","88708","29.50","DUALSPOT-UV-BLUE-GREEN-RED-IR","609442","648666","906334","25.752578","9.155651","0.012110","733991","849020","836691","19.243714","6.716526","0.013314","735209","833052","830127","16.881256","5.814630","0.015639","769314","841254","885352","13.989956","4.684827","0.014863","695836","872579","962771","9.908878","3.149850","-0.007720","3667","4738","5329","3574","4376","4806","3496","4318","4750","3692","4336","4661","3224","3068","2995",""
"MA200-0420","23520","54","1","1.10","1.4","2023-05-06T15:19:29","120","2023/05/06","15:19:29","-15.788187444210052","35.07361998409033","3.7","12","30","64","56","-24804","929","-7175","17","150","149.89","111.97","37.92","30.12","38.3","14.37","88752","29.50","DUALSPOT-UV-BLUE-GREEN-RED-IR","610284","649742","908027","25.804352","9.180008","0.014593","735459","850863","838644","19.279142","6.733930","0.021219","735673","833733","830923","16.911598","5.828005","0.018637","769968","842104","886314","14.015105","4.694914","0.015483","696297","873246","963517","9.926296","3.157426","0.029642","2715","3772","4356","2345","3402","3969","2249","2928","3285","2253","2668","2878","2173","2790","3079",""
"MA200-0420","23521","54","1","1.10","1.4","2023-05-06T15:19:59","120","2023/05/06","15:19:59","-15.787233650684357","35.07394280284643","3.9","12","30","64","56","-24852","-12","-8568","17","150","149.37","112.05","37.32","30.08","38.3","14.34","88832","29.44","DUALSPOT-UV-BLUE-GREEN-RED-IR","608312","647923","905744","25.871456","9.208782","0.011926","733457","848792","836768","19.324830","6.752765","0.013851","739096","837868","835166","16.951742","5.842930","0.008884","775240","848045","892704","14.048439","4.707022","0.008530","695691","872605","962899","9.946304","3.164252","0.003464","3517","4528","5087","3022","3741","4127","2974","3320","3501","2984","3254","3391","2494","2555","2583",""
"MA200-0420","23522","54","1","1.10","1.4","2023-05-06T15:20:29","120","2023/05/06","15:20:29","-15.786146521568298","35.074470810592175","5.0","12","30","64","56","-25204","-1179","-7662","17","150","149.74","111.99","37.75","30.06","38.3","14.32","88872","29.44","DUALSPOT-UV-BLUE-GREEN-RED-IR","607270","647280","905338","25.985706","9.253853","0.008045","732994","848770","837046","19.409358","6.783646","0.005874","737351","836321","833900","17.025042","5.870616","0.009120","772985","845942","890686","14.107204","4.727528","0.003553","694232","871056","961375","9.988537","3.179526","0.009662","5992","7012","7576","5595","6064","6315","5434","6088","6433","5264","5449","5542","5268","5651","5831",""
"MA200-0420","23523","54","1","1.10","1.4","2023-05-06T15:20:59","120","2023/05/06","15:20:59","-15.785074651241302","35.07518348842859","4.4","12","30","64","56","-25108","1040","-7140","17","150","149.87","112.40","37.47","30.02","38.4","14.29","88944","29.38","DUALSPOT-UV-BLUE-GREEN-RED-IR","606507","646791","904982","26.086674","9.297325","0.011946","731716","847616","836087","19.480730","6.810248","0.007875","737195","836400","834130","17.089668","5.893821","0.006147","771741","844851","889698","14.162581","4.747058","0.005647","698578","876648","967620","10.026485","3.192143","-0.000410","5276","6813","7664","4707","5262","5560","4773","5140","5333","4942","5228","5372","4716","4703","4697",""
"MA200-0420","23524","54","1","1.10","1.4","2023-05-06T15:21:29","120","2023/05/06","15:21:29","-15.78454178571701","35.075804486870766","1.5","12","30","64","56","-25100","-172","-8164","17","150","150.02","112.02","38.00","29.98","38.4","14.28","89028","29.38","DUALSPOT-UV-BLUE-GREEN-RED-IR","609330","650076","909835","26.156388","9.325600","0.008918","730131","846011","834674","19.530184","6.829435","0.009274","736002","835269","833155","17.131978","5.910611","0.012031","771208","844456","889379","14.198537","4.758369","-0.008629","697923","875994","966964","10.049164","3.199895","0.001112","3655","4370","4767","3272","3743","3996","3135","3668","3949","3220","2986","2868","2828","2849","2859",""
