"Serial number","Datum ID","Session ID","Data format version","Firmware version","App version","Date / time local","Timezone offset (mins)","Date local (yyyy/MM/dd)","Time local (hh:mm:ss)","GPS lat (ddmm.mmmmm)","GPS long (dddmm.mmmmm)","GPS speed (km/h)","GPS sat count","Timebase (s)","Status","Battery remaining (%)","Accel X","Accel Y","Accel Z","Tape position","Flow setpoint (mL/min)","Flow total (mL/min)","Flow1 (mL/min)","Flow2 (mL/min)","Sample temp (C)","Sample RH (%)","Sample dewpoint (C)","Internal pressure (Pa)","Internal temp (C)","Optical config","UV Sen1","UV Sen2","UV Ref","UV ATN1","UV ATN2","UV K","Blue Sen1","Blue Sen2","Blue Ref","Blue ATN1","Blue ATN2","Blue K","Green Sen1","Green Sen2","Green Ref","Green ATN1","Green ATN2","Green K","Red Sen1","Red Sen2","Red Ref","Red ATN1","Red ATN2","Red K","IR Sen1","IR Sen2","IR Ref","IR ATN1","IR ATN2","IR K","UV BC1","UV BC2","UV BCc","Blue BC1","Blue BC2","Blue BCc","Green BC1","Green BC2","Green BCc","Red BC1","Red BC2","Red BCc","IR BC1","IR BC2","IR BCc","Readable status"
"MA200-0416","22865","63","1","1.10","1.4","2023-05-11T09:00:30","120","2023/05/11","09:00:30","-15.788099884986877","35.00205283309333","0.0","11","30","66","91","-21668","11252","-5840","10","150","149.46","114.75","34.71","24.18","57.9","15.38","90660","23.88","DUALSPOT-UV-BLUE-GREEN-RED-IR","861630","740642","910421","0.000000","0.000000","0.000000","808936","920122","763224","0.000000","0.000000","0.000000","902366","921254","814217","0.000000","0.000000","0.000000","883325","937535","863388","0.000000","0.000000","0.000000","746543","857267","950438","0.000000","0.000000","0.000000","","","","","","","","","","","","","","","","Start up"
"MA200-0416","22866","63","1","1.10","1.4","2023-05-11T09:01:00","120","2023/05/11","09:01:00","-15.788105249404907","35.00208666641265","0.1","11","30","66","90","-21676","11184","-5580","10","150","150.62","115.39","35.23","24.27","57.8","15.41","90656","24.13","DUALSPOT-UV-BLUE-GREEN-RED-IR","858520","738923","908727","0.000000","0.000000","0.000000","806610","918126","761776","0.000000","0.000000","0.000000","905338","924804","817540","0.000000","0.000000","0.000000","881961","936469","862541","0.000000","0.000000","0.000000","749565","861047","954738","0.000000","0.000000","0.000000","","","","","","","","","","","","","","","","Start up"
"MA200-0416","22867","63","1","1.10","1.4","2023-05-11T09:01:30","120","2023/05/11","09:01:30","-15.787923514842987","35.000944666564465","4.2","11","30","66","90","-22680","8636","-7252","10","150","149.95","115.28","34.67","24.34","57.5","15.42","90588","24.25","DUALSPOT-UV-BLUE-GREEN-RED-IR","852683","734744","903968","0.000000","0.000000","0.000000","807582","919797","763345","0.000000","0.000000","0.000000","900415","920218","813611","0.000000","0.000000","0.000000","882395","937272","863409","0.000000","0.000000","0.000000","744850","855864","949071","0.000000","0.000000","0.000000","","","","","","","","","","","","","","","","Start up"
"MA200-0416","22868","63","1","1.10","1.4","2023-05-11T09:02:00","120","2023/05/11","09:02:00","-15.786739349365234","35.00095016666455","2.4","11","30","66","90","-22688","8832","-5828","10","150","149.39","115.12","34.27","24.42","57.3","15.42","90504","24.38","DUALSPOT-UV-BLUE-GREEN-RED-IR","850642","733957","903386","0.000000","0.000000","0.000000","805874","918594","762576","0.000000","0.000000","0.000000","903568","924020","817181","0.000000","0.000000","0.000000","880559","935779","862176","0.000000","0.000000","0.000000","748017","859831","953609","0.000000","0.000000","0.000000","","","","","","","","","","","","","","","","Start up"
"MA200-0416","22869","63","1","1.10","1.4","2023-05-11T09:02:30","120","2023/05/11","09:02:30","-15.786505341529846","34.999545216560364","6.3","11","30","66","90","-23148","8532","-5268","10","150","149.63","115.08","34.56","24.49","57.0","15.42","90588","24.44","DUALSPOT-UV-BLUE-GREEN-RED-IR","845659","730350","899298","0.000000","0.000000","0.000000","807435","920859","764578","0.000000","0.000000","0.000000","898930","919647","813395","0.000000","0.000000","0.000000","882446","938090","864366","0.000000","0.000000","0.000000","748442","860503","954414","0.000000","0.000000","0.000000","","","","","","","","","","","","","","","","Start up"
"MA200-0416","22870","63","1","1.10","1.4","2023-05-11T09:03:00","120","2023/05/11","09:03:00","-15.786250352859497","34.99785077571869","5.9","11","30","64","89","-21524","11236","-5352","10","150","149.76","115.15","34.61","24.57","56.8","15.43","90500","24.50","DUALSPOT-UV-BLUE-GREEN-RED-IR","852453","736863","907624","0.000000","0.000000","0.000000","806879","920691","764566","0.000000","0.000000","0.000000","899442","920518","814226","0.000000","0.000000","0.000000","883466","939439","865670","0.000000","0.000000","0.000000","748802","861085","955122","0.000000","0.000000","0.000000","","","","","","","","","","","","","","","",""
"MA200-0416","22871","63","1","1.10","1.4","2023-05-11T09:03:30","120","2023/05/11","09:03:30","-15.786758661270142","34.997461557388306","5.9","11","30","64","90","-22872","7992","-6092","10","150","149.87","115.84","34.03","24.63","56.5","15.41","90488","24.56","DUALSPOT-UV-BLUE-GREEN-RED-IR","847483","734082","904805","0.218640","0.057628","0.000000","803956","918651","763251","0.145292","0.035547","0.000000","900578","922762","816550","0.113976","0.028198","0.000000","879412","936001","862757","0.088757","0.020163","0.000000","745353","857650","951515","0.062437","0.017122","0.000000","11086","9946","11086","9298","7743","9298","8169","6879","8169","7687","5944","7687","7529","7028","7529",""
"MA200-0416","22872","63","1","1.10","1.4","2023-05-11T09:04:00","120","2023/05/11","09:04:00","-15.787238001823425","34.99668288230896","3.9","10","30","64","90","-24120","7264","-3160","10","150","149.45","115.99","33.45","24.71","56.3","15.43","90560","24.69","DUALSPOT-UV-BLUE-GREEN-RED-IR","848481","736188","908185","0.482213","0.136697","0.000000","804539","920408","765139","0.327855","0.096809","0.000000","900234","923238","817390","0.262636","0.078647","0.000000","880136","937431","864415","0.205290","0.060384","0.000000","745989","858832","953109","0.144079","0.043589","0.000000","13346","13881","13346","11668","13575","11668","10640","12519","10640","10079","12061","10079","9832","11051","9832",""
"MA200-0416","22873","63","1","1.10","1.4","2023-05-11T09:04:30","120","2023/05/11","09:04:30","-15.786062479019165","34.99621433019638","5.8","11","30","64","89","-22140","10856","-4908","10","150","149.83","115.63","34.20","24.78","56.2","15.46","90500","24.75","DUALSPOT-UV-BLUE-GREEN-RED-IR","848687","737054","909532","0.651844","0.182184","0.000000","804497","920826","765617","0.433921","0.123619","0.000000","896079","919363","814030","0.347089","0.098406","0.000000","876311","933634","860953","0.269442","0.074612","0.000000","747063","860267","954746","0.190652","0.055468","0.000000","8616","7812","8616","6800","5811","6800","6063","4797","6063","5566","4174","5566","5626","4852","5626",""
"MA200-0416","22874","63","1","1.10","1.4","2023-05-11T09:05:00","120","2023/05/11","09:05:00","-15.784615695476532","34.99576932191849","5.7","10","30","64","89","-22760","9668","-3880","10","150","149.90","115.75","34.14","24.85","55.9","15.45","90476","24.81","DUALSPOT-UV-BLUE-GREEN-RED-IR","842405","733355","905712","0.821277","0.227659","0.000000","800061","917323","763151","0.540626","0.149374","0.000000","896054","920602","815464","0.428874","0.116460","0.000000","876129","934476","862022","0.329118","0.087677","0.000000","747125","860947","955710","0.231460","0.065246","0.000000","8597","7822","8597","6833","5591","6833","5865","4389","5865","5172","3839","5172","4924","4000","4924",""
"MA200-0416","22875","63","1","1.10","1.4","2023-05-11T09:05:30","120","2023/05/11","09:05:30","-15.783086001873016","34.99556165933609","6.1","10","30","64","89","-22136","10088","-3576","10","150","149.39","115.79","33.59","24.91","55.9","15.49","90436","24.88","DUALSPOT-UV-BLUE-GREEN-RED-IR","841877","733599","906303","1.109050","0.302047","0.000000","800422","918242","764055","0.737392","0.197685","0.000000","896645","921655","816510","0.588464","0.154381","0.000000","878896","937756","865126","0.455039","0.116091","0.000000","743185","856584","950954","0.319154","0.087887","0.000000","14597","13006","14597","12597","10661","12597","11442","9371","11442","10910","8485","10910","10579","9414","10579",""
"MA200-0416","22876","63","1","1.10","1.4","2023-05-11T09:06:00","120","2023/05/11","09:06:00","-15.781999349594116","34.99544596672058","5.2","10","30","64","89","-21736","10864","-6520","10","150","149.89","115.86","34.04","24.99","55.6","15.50","90460","24.94","DUALSPOT-UV-BLUE-GREEN-RED-IR","843439","735916","909538","1.267565","0.340034","0.000000","801501","920184","765840","0.830328","0.218557","0.000000","897152","922717","817579","0.657725","0.167918","0.000000","880492","939868","867166","0.505232","0.125175","0.000000","744119","857906","952532","0.352245","0.095208","0.000000","8036","6555","8036","5946","4545","5946","4963","3301","4963","4346","2677","4346","3989","3004","3989",""
"MA200-0416","22877","63","1","1.10","1.4","2023-05-11T09:06:30","120","2023/05/11","09:06:30","-15.78147941827774","34.993965327739716","6.4","11","30","64","89","-22620","9484","-4672","10","150","149.87","115.84","34.03","25.05","55.5","15.51","90460","25.06","DUALSPOT-UV-BLUE-GREEN-RED-IR","831963","729914","903970","1.696648","0.453924","0.000000","792641","914299","762230","1.176863","0.306982","0.000000","888497","917533","814121","0.949311","0.240528","0.000000","872107","934025","862777","0.744700","0.183749","0.000000","742625","858248","953755","0.528181","0.142441","0.000000","21757","19656","21757","22177","19261","22177","20898","17713","20898","20740","17267","20740","21217","19388","21217",""
"MA200-0416","22878","63","1","1.10","1.4","2023-05-11T09:07:00","120","2023/05/11","09:07:00","-15.781412839889526","34.992120027542114","7.0","10","30","64","89","-22961","9394","-4427","10","150","149.99","115.90","34.08","25.12","55.3","15.52","90552","25.13","DUALSPOT-UV-BLUE-GREEN-RED-IR","824215","729689","906801","3.223204","0.871368","-0.032933","786734","914355","764378","2.458107","0.651681","0.000000","880876","915755","814537","2.077657","0.541687","0.000000","866639","933469","864015","1.693099","0.433426","0.000000","738901","857453","954275","1.216320","0.328485","0.000000","77360","71943","69936","81949","74979","81949","80824","73364","80824","82094","73500","82094","82938","76258","82938",""
"MA200-0416","22879","63","1","1.10","1.4","2023-05-11T09:07:30","120","2023/05/11","09:07:30","-15.780935525894165","34.99098604917526","3.6","10","30","64","88","-22556","8972","-5824","10","150","149.57","115.63","33.93","25.19","55.1","15.54","90552","25.13","DUALSPOT-UV-BLUE-GREEN-RED-IR","821957","728419","905530","3.414505","0.922761","-0.038356","784809","912769","763212","2.593195","0.686233","0.000000","880286","915670","814602","2.190930","0.569510","0.000000","866576","933820","864435","1.783812","0.455122","0.000000","738693","857481","954432","1.283798","0.345149","0.000000","9717","8896","8591","8660","7548","8660","8132","6807","8132","7870","6414","7870","8152","6860","8152",""
"MA200-0416","22880","63","1","1.10","1.4","2023-05-11T09:08:00","120","2023/05/11","09:08:00","-15.779832124710083","34.990880727767944","4.3","10","30","64","89","-22176","9380","-5788","10","150","150.09","115.83","34.26","25.22","55.0","15.53","90588","25.19","DUALSPOT-UV-BLUE-GREEN-RED-IR","819387","726586","903441","3.505565","0.947301","-0.039591","783154","911215","761985","2.650088","0.697940","0.000000","882013","917775","816527","2.235514","0.577991","0.000000","862716","929925","860843","1.818692","0.458765","0.000000","740030","859198","956381","1.308815","0.351198","0.000000","4617","4206","4054","3641","2533","3641","3195","2055","3195","3021","1066","3021","3017","2466","3017",""
"MA200-0416","22881","63","1","1.10","1.4","2023-05-11T09:08:30","120","2023/05/11","09:08:30","-15.778378665447235","34.9910574555397","6.6","10","30","64","89","-22784","7796","-5500","10","150","149.86","115.11","34.75","25.29","54.9","15.57","90624","25.25","DUALSPOT-UV-BLUE-GREEN-RED-IR","820783","728249","905713","3.583742","0.967687","-0.064078","784207","912764","763351","2.697122","0.708282","0.000000","883226","919344","817953","2.272463","0.583863","0.000000","864388","931898","862699","1.843386","0.461584","0.000000","736543","855237","951996","1.326889","0.353427","0.000000","3989","3445","3244","3029","2205","3029","2665","1402","2665","2152","813","2152","2193","896","2193",""
"MA200-0416","22882","63","1","1.10","1.4","2023-05-11T09:09:00","120","2023/05/11","09:09:00","-15.776908218860626","34.9911932349205","5.7","10","30","64","89","-22560","9456","-4928","10","150","150.21","115.29","34.92","25.35","54.7","15.58","90664","25.31","DUALSPOT-UV-BLUE-GREEN-RED-IR","822281","729951","908000","3.655028","0.986782","-0.051496","785446","914504","764907","2.738434","0.718091","0.000000","878597","914720","813884","2.303797","0.590192","0.000000","866136","933995","864635","1.867145","0.464791","0.000000","736749","855628","952472","1.346193","0.357713","0.000000","3631","3211","3056","2656","2082","2656","2256","1504","2256","2067","921","2067","2338","1714","2338",""
"MA200-0416","22883","63","1","1.10","1.4","2023-05-11T09:09:30","120","2023/05/11","09:09:30","-15.775314509868622","34.99138194322586","5.5","10","30","64","88","-23452","7711","-7643","10","150","149.96","115.71","34.25","25.42","54.6","15.59","90768","25.38","DUALSPOT-UV-BLUE-GREEN-RED-IR","817290","726012","903350","3.725364","1.004995","-0.055526","781831","910603","761708","2.776408","0.725757","0.000000","879602","915989","815072","2.330381","0.594603","0.000000","867943","936148","866685","1.888048","0.466871","0.000000","737921","857126","954144","1.362592","0.361960","0.000000","3570","3123","2958","2432","1659","2432","1907","1069","1907","1812","609","1812","1979","1732","1979",""
"MA200-0416","22884","63","1","1.10","1.4","2023-05-11T09:10:00","120","2023/05/11","09:10:00","-15.774391889572144","34.99227154254913","4.9","11","30","64","88","-22884","8200","-7247","10","150","149.70","115.31","34.38","25.48","54.5","15.62","90884","25.44","DUALSPOT-UV-BLUE-GREEN-RED-IR","816299","725484","902812","3.815682","1.030508","-0.020361","780854","909717","761028","2.821809","0.735490","0.000000","879109","915686","814844","2.363485","0.599700","0.000000","860528","928310","859424","1.910257","0.468796","0.000000","737154","856314","953289","1.379161","0.364017","0.000000","4600","4358","4268","2918","2098","2918","2383","1230","2383","1932","561","1932","2007","835","2007",""
"MA200-0416","22885","63","1","1.10","1.4","2023-05-11T09:10:30","120","2023/05/11","09:10:30","-15.77312856912613","34.99283975362778","6.6","10","30","64","88","-22619","9434","-5861","10","150","150.29","115.39","34.90","25.53","54.4","15.65","90988","25.50","DUALSPOT-UV-BLUE-GREEN-RED-IR","818764","727990","906082","3.874323","1.045003","-0.086080","783234","912769","763632","2.855372","0.741100","0.000000","881205","918103","817006","2.388251","0.601666","0.000000","864125","932365","863162","1.926779","0.468635","0.000000","734617","853483","950143","1.392913","0.365358","0.000000","2984","2439","2238","2156","1191","2156","1781","467","1781","1436","-46","1436","1664","536","1664",""
"MA200-0416","22886","63","1","1.10","1.4","2023-05-11T09:11:00","120","2023/05/11","09:11:00","-15.771564424037933","34.99286359548569","5.2","10","30","64","88","-22904","8396","-6796","10","150","150.03","115.51","34.51","25.60","54.3","15.67","91060","25.56","DUALSPOT-UV-BLUE-GREEN-RED-IR","820602","729978","908686","3.936144","1.060817","-0.062320","784557","914548","765176","2.890140","0.749641","0.000000","881499","918609","817504","2.415556","0.607525","0.000000","866208","934766","865413","1.946216","0.470179","0.000000","735006","854025","950805","1.408147","0.368502","0.000000","3143","2691","2524","2231","1834","2231","1962","1409","1962","1688","448","1688","1842","1272","1842",""
"MA200-0416","22887","63","1","1.10","1.4","2023-05-11T09:11:30","120","2023/05/11","09:11:30","-15.771341323852539","34.99365073442459","4.0","11","30","64","88","-21776","11684","-6340","10","150","150.42","115.92","34.50","25.65","54.1","15.66","91124","25.56","DUALSPOT-UV-BLUE-GREEN-RED-IR","820116","729877","908718","3.998714","1.076961","-0.055734","779233","908593","760248","2.927267","0.757770","0.000000","876318","913393","812905","2.442449","0.611298","0.000000","864936","933572","864315","1.966482","0.472349","0.000000","734290","853348","950056","1.423431","0.371689","0.000000","3170","2748","2592","2374","1746","2374","1926","907","1926","1753","630","1753","1841","1290","1841",""
"MA200-0416","22888","63","1","1.10","1.4","2023-05-11T09:12:00","120","2023/05/11","09:12:00","-15.771096587181091","34.994720339775085","0.3","10","30","64","88","-22356","9456","-6411","10","150","149.80","115.87","33.93","25.71","54.0","15.70","91028","25.63","DUALSPOT-UV-BLUE-GREEN-RED-IR","815819","726440","904601","4.070139","1.095428","-0.046857","781334","911366","762624","2.970290","0.765646","0.000000","878081","915496","814810","2.475358","0.617241","0.000000","861914","930511","861523","1.989549","0.474900","0.000000","736194","855637","952649","1.440645","0.375272","0.000000","3620","3196","3040","2752","1720","2752","2357","1454","2357","1997","754","1997","2075","1475","2075",""
"MA200-0416","22889","63","1","1.10","1.4","2023-05-11T09:12:30","120","2023/05/11","09:12:30","-15.772201895713806","34.99521738290787","6.9","11","30","64","88","-21511","11726","-3865","10","150","149.96","115.91","34.05","25.76","54.0","15.74","90936","25.69","DUALSPOT-UV-BLUE-GREEN-RED-IR","814854","727447","906742","4.390962","1.184309","-0.019262","780417","912147","763861","3.220647","0.832546","-0.043096","877068","916046","815784","2.684880","0.670480","0.000000","862000","931892","863223","2.157738","0.515699","0.000000","736193","856514","953982","1.563249","0.409294","0.000000","16257","15331","14989","16012","14564","14060","15007","12980","15007","14557","12021","14557","14776","13957","14776",""
"MA200-0416","22890","63","1","1.10","1.4","2023-05-11T09:13:00","120","2023/05/11","09:13:00","-15.773173034191132","34.996577978134155","5.3","11","30","64","88","-20804","12204","-5456","10","150","150.43","115.83","34.59","25.82","54.0","15.80","90816","25.75","DUALSPOT-UV-BLUE-GREEN-RED-IR","815626","728510","908231","4.494041","1.212366","-0.030728","781299","913526","765072","3.289938","0.848621","-0.130746","877321","916589","816330","2.742612","0.682413","0.000000","863667","933906","865079","2.202898","0.523734","0.000000","736525","857014","954562","1.596811","0.415297","0.000000","5226","4763","4592","4434","3444","3100","4138","2863","4138","3911","2330","3911","4047","2424","4047",""
"MA200-0416","22891","63","1","1.10","1.4","2023-05-11T09:13:30","120","2023/05/11","09:13:30","-15.774449586868286","34.99730056524277","6.6","11","30","64","88","-22372","10392","-4520","10","150","149.63","116.27","33.36","25.89","53.8","15.82","0","0.00","DUALSPOT-UV-BLUE-GREEN-RED-IR","811180","725009","904102","4.581603","1.235834","-0.021669","777176","909082","761444","3.345131","0.861042","-0.122412","878266","917884","817532","2.785230","0.691181","0.000000","859072","929224","860827","2.237220","0.530719","0.000000","732809","852877","950013","1.620758","0.421084","0.000000","4423","4131","4023","3519","2759","2496","3043","2181","3043","2961","2100","2961","2877","2423","2877",""
"MA200-0416","22892","63","1","1.10","1.4","2023-05-11T09:14:00","120","2023/05/11","09:14:00","-15.776020348072052","34.99755668640137","6.3","12","30","64","88","-22248","10112","-3787","10","150","149.76","116.23","33.53","25.94","53.7","15.83","0","0.00","DUALSPOT-UV-BLUE-GREEN-RED-IR","813489","727451","907305","4.653803","1.254209","-0.041349","778744","911209","763331","3.390812","0.872385","-0.068123","874729","914437","814513","2.819658","0.697594","0.000000","861075","931574","862991","2.261853","0.534033","0.000000","733962","854353","951683","1.640138","0.424895","0.000000","3648","3218","3059","2913","2507","2366","2459","1587","2459","2126","991","2126","2329","1587","2329",""
"MA200-0416","22893","63","1","1.10","1.4","2023-05-11T09:14:30","120","2023/05/11","09:14:30","-15.777294218540192","34.997918248176575","4.5","12","30","64","88","-21500","11808","-5216","10","150","149.83","116.11","33.72","26.01","53.6","15.86","90596","25.94","DUALSPOT-UV-BLUE-GREEN-RED-IR","814801","729059","909534","4.732002","1.275411","-0.021132","780373","913456","765286","3.436524","0.882165","-0.159540","875586","915572","815588","2.855629","0.704479","0.000000","862294","933106","864459","2.288176","0.536847","0.000000","734503","855117","952545","1.660238","0.428428","0.000000","3955","3693","3596","2918","2150","1885","2572","1695","2572","2274","837","2274","2418","1463","2418",""
"MA200-0416","22894","63","1","1.10","1.4","2023-05-11T09:15:00","120","2023/05/11","09:15:00","-15.778725504875183","34.998351097106934","5.6","12","30","64","88","-22840","10888","-3160","10","150","149.80","116.44","33.36","26.06","53.4","15.86","90536","26.00","DUALSPOT-UV-BLUE-GREEN-RED-IR","809090","724351","903825","4.804620","1.295641","-0.008194","775948","908593","761270","3.477490","0.890653","-0.170436","876136","916423","816374","2.886111","0.709682","0.000000","864148","935313","866535","2.310645","0.540190","0.000000","735055","855863","953470","1.677881","0.433023","0.000000","3663","3561","3524","2608","1886","1637","2173","1294","2173","1936","1005","1936","2116","1924","2116",""
"MA200-0416","22895","63","1","1.10","1.4","2023-05-11T09:15:30","120","2023/05/11","09:15:30","-15.78016746044159","34.99842196702957","5.7","12","30","64","87","-20732","12576","-5780","10","150","149.43","115.87","33.56","26.12","53.4","15.91","90392","26.06","DUALSPOT-UV-BLUE-GREEN-RED-IR","808262","724106","903698","4.898888","1.317920","-0.068722","774727","907543","760472","3.532385","0.902027","-0.175312","875490","916042","816118","2.928341","0.716149","0.000000","857969","928886","860613","2.341011","0.542628","0.000000","734950","855941","953581","1.702974","0.436264","0.000000","4778","3898","3575","3512","2512","2169","3025","1599","3025","2629","728","2629","3025","1348","3025",""
"MA200-0416","22896","63","1","1.10","1.4","2023-05-11T09:16:00","120","2023/05/11","09:16:00","-15.781520187854767","34.99889415502548","5.0","12","30","64","88","-21596","11112","-5928","10","150","149.86","116.36","33.50","26.18","53.2","15.91","90276","26.13","DUALSPOT-UV-BLUE-GREEN-RED-IR","805317","722052","901391","5.004933","1.344333","-0.045145","777766","911635","764003","3.600889","0.916194","-0.168537","873257","914147","814517","2.984405","0.726758","0.000000","861735","933336","864773","2.384890","0.548648","0.000000","732540","853359","950755","1.736511","0.443806","0.000000","5352","4631","4366","4364","3135","2716","4000","2629","4000","3783","1803","3783","4026","3145","4026",""
"MA200-0416","22897","63","1","1.10","1.4","2023-05-11T09:16:30","120","2023/05/11","09:16:30","-15.781999468803406","35.00004816666478","5.4","13","30","64","87","-21368","11668","-4996","10","150","149.90","116.79","33.11","26.24","53.2","15.95","90196","26.25","DUALSPOT-UV-BLUE-GREEN-RED-IR","812488","729345","910935","5.171206","1.390327","-0.006652","773834","907723","760927","3.705186","0.940918","-0.075976","873200","914689","815112","3.067261","0.743770","-0.186669","862849","935011","866444","2.450810","0.561511","0.000000","733146","854357","951973","1.782348","0.453144","0.000000","8362","8159","8084","6620","5535","5166","5890","4265","3745","5663","3897","5663","5482","3939","5482",""
"MA200-0416","22898","63","1","1.10","1.4","2023-05-11T09:17:00","120","2023/05/11","09:17:00","-15.782488822937012","35.00139616650995","4.6","13","30","64","88","-23384","8536","-4864","10","150","150.14","116.21","33.93","26.30","53.1","15.97","90180","26.31","DUALSPOT-UV-BLUE-GREEN-RED-IR","802721","724099","906108","5.437463","1.466911","-0.003854","770545","907797","762190","3.923237","0.998979","-0.034177","870168","914871","816353","3.247511","0.791072","-0.047621","854946","929267","862034","2.597573","0.597726","0.000000","731615","854478","952938","1.895601","0.485891","0.000000","13457","13255","13181","13909","12684","12265","12877","11572","11152","12670","10707","12670","13613","13480","13613",""
"MA200-0416","22899","63","1","1.10","1.4","2023-05-11T09:17:30","120","2023/05/11","09:17:30","-15.783470928668976","35.00143516645767","4.8","13","30","64","87","-23188","7769","-5842","10","150","149.59","115.79","33.80","26.35","52.9","15.98","90244","26.31","DUALSPOT-UV-BLUE-GREEN-RED-IR","799839","724990","909146","6.546837","1.794130","0.002194","768155","908700","764255","4.881579","1.272386","-0.006442","866813","914885","817659","4.111272","1.033251","-0.013504","852291","929571","863489","3.335772","0.799881","-0.026501","730416","855196","954701","2.441118","0.640911","0.000000","56272","56867","57092","61354","59971","59483","61930","59492","58673","63960","60010","58765","65811","64075","65811",""
"MA200-0416","22900","63","1","1.10","1.4","2023-05-11T09:18:00","120","2023/05/11","09:18:00","-15.78370988368988","35.002261999761686","5.8","12","30","64","87","-21976","10144","-6120","10","150","149.51","116.39","33.12","26.41","52.8","16.00","90260","26.44","DUALSPOT-UV-BLUE-GREEN-RED-IR","799674","725401","909943","6.641433","1.821533","0.003658","768462","909556","765133","4.946536","1.288753","-0.037030","866598","915047","817916","4.162377","1.043861","-0.135661","853421","931122","864956","3.374182","0.807171","-0.230686","730133","855106","954666","2.471080","0.648230","0.000000","4773","4860","4892","4137","3663","3496","3645","2659","2329","3310","2208","1861","3596","3087","3596",""
"MA200-0416","22901","63","1","1.10","1.4","2023-05-11T09:18:30","120","2023/05/11","09:18:30","-15.783742189407349","35.00392933283001","5.2","13","30","72","86","-21953","9776","-6365","10","150","149.57","116.39","33.18","26.47","52.6","15.99","90276","26.44","DUALSPOT-UV-BLUE-GREEN-RED-IR","850755","772588","969535","6.796503","1.864440","-0.006192","764003","905032","761553","5.058485","1.317815","-0.027148","923630","975937","872554","4.255844","1.067369","-0.043777","908429","991720","921394","3.448882","0.823998","-0.110346","783138","917495","1024460","2.525037","0.661513","0.000000","7825","7596","7509","7130","6493","6269","6667","5882","5620","6439","5088","4664","6476","5592","6476",""
"MA200-0416","22902","63","1","1.10","1.4","2023-05-11T09:19:00","120","2023/05/11","09:19:00","-15.784366369247437","35.00448116566986","5.5","13","30","64","86","-23076","7792","-7124","10","150","149.76","115.87","33.89","26.53","52.3","15.97","90328","26.50","DUALSPOT-UV-BLUE-GREEN-RED-IR","792113","719931","903740","6.914316","1.898538","-0.002129","762489","903720","760607","5.138201","1.338714","-0.031744","861239","910437","814090","4.319370","1.081877","-0.095699","848050","926133","860573","3.499407","0.834834","-0.154101","725507","850247","949457","2.561424","0.669819","0.000000","5972","5909","5885","5100","4571","4384","4551","3553","3220","4374","3207","2842","4386","3423","4386",""
"MA200-0416","22903","63","1","1.10","1.4","2023-05-11T09:19:30","120","2023/05/11","09:19:30","-15.785584688186646","35.004231832455844","2.6","13","30","64","87","-22928","7488","-7592","10","150","149.90","116.23","33.67","26.60","52.1","15.96","90436","26.56","DUALSPOT-UV-BLUE-GREEN-RED-IR","796851","724516","909677","6.982248","1.918277","0.000621","766162","908345","764564","5.183202","1.348447","-0.100445","863158","912723","816161","4.355800","1.089263","-0.153188","850566","929065","863338","3.527232","0.838494","-0.715360","727220","852380","951850","2.583782","0.674264","0.000000","3432","3443","3447","2870","2143","1887","2602","1821","1560","2401","1090","681","2687","1844","2687",""
"MA200-0416","22904","63","1","1.10","1.4","2023-05-11T09:20:00","120","2023/05/11","09:20:00","-15.786807715892792","35.00399199919775","5.8","13","30","64","86","-22728","8732","-6112","10","150","149.54","115.64","33.91","26.65","51.9","15.96","90516","26.63","DUALSPOT-UV-BLUE-GREEN-RED-IR","792117","720498","904724","7.033370","1.931749","-0.023071","762450","904188","761103","5.216276","1.356529","-0.055741","864416","914223","817589","4.382826","1.094603","-0.175348","852302","931139","865247","3.547452","0.840765","-1.190579","728465","853938","953632","2.600896","0.678726","0.000000","2596","2333","2234","2120","1766","1642","1940","1307","1097","1754","672","335","2067","1838","2067",""
"MA200-0416","22905","63","1","1.10","1.4","2023-05-11T09:20:30","120","2023/05/11","09:20:30","-15.787812650203705","35.0037768331822","5.5","13","30","64","86","-21948","9096","-8060","10","150","149.95","116.30","33.65","26.69","51.8","15.95","90520","26.69","DUALSPOT-UV-BLUE-GREEN-RED-IR","791150","720084","904443","7.119558","1.956689","0.000040","761552","903566","760693","5.275971","1.370847","-0.056908","858617","908471","812497","4.430693","1.104157","-0.158843","851358","930421","864658","3.585290","0.847482","-0.285680","727284","852782","952414","2.628933","0.684835","0.000000","4352","4353","4354","3805","3154","2926","3417","2357","2005","3264","2002","1612","3367","2536","3367",""
"MA200-0416","22906","63","1","1.10","1.4","2023-05-11T09:21:00","120","2023/05/11","09:21:00","-15.788264811038971","35.00300716655329","10.6","13","30","64","87","-22268","9464","-5748","10","150","150.09","116.31","33.79","26.76","51.7","15.98","90624","26.75","DUALSPOT-UV-BLUE-GREEN-RED-IR","793713","723037","908515","7.227672","1.987731","-0.002242","763236","906141","763034","5.352586","1.389980","-0.043692","860509","910955","814860","4.494041","1.118689","-0.086517","849019","928277","862768","3.633461","0.856256","-0.262291","729283","855390","955443","2.666381","0.693943","0.000000","5459","5396","5372","4883","4198","3957","4521","3571","3255","4155","2605","2127","4497","3765","4497",""
"MA200-0416","22907","63","1","1.10","1.4","2023-05-11T09:21:30","120","2023/05/11","09:21:30","-15.787619054317474","35.000829833268654","7.5","13","30","64","86","-20616","13100","-5200","10","150","149.83","115.83","34.00","26.81","51.5","15.99","90572","26.75","DUALSPOT-UV-BLUE-GREEN-RED-IR","794079","723943","909891","7.348999","2.020763","-0.015105","763579","907050","763956","5.439433","1.412218","-0.038290","860519","911410","815410","4.563946","1.134621","-0.092770","849911","929619","864102","3.690151","0.869118","-0.114431","724904","850508","950043","2.706426","0.703277","0.000000","6152","5706","5537","5558","4848","4600","5010","3890","3520","4910","3795","3452","4829","3835","4829",""
"MA200-0416","22908","63","1","1.10","1.4","2023-05-11T09:22:00","120","2023/05/11","09:22:00","-15.785585045814514","35.001129999989644","9.0","13","30","64","86","-22712","8656","-5380","10","150","150.28","116.09","34.20","26.86","51.3","15.96","90392","26.81","DUALSPOT-UV-BLUE-GREEN-RED-IR","788424","719178","904098","7.425836","2.043148","-0.002093","764265","908188","764982","5.486588","1.423959","-0.048159","860942","912128","816095","4.603803","1.144051","-0.077115","851055","931110","865515","3.719908","0.873351","-0.560729","725594","851441","951107","2.729663","0.707978","0.000000","3887","3844","3828","3011","2545","2381","2850","2289","2103","2571","1241","833","2796","1920","2796",""
"MA200-0416","22909","63","1","1.10","1.4","2023-05-11T09:22:30","120","2023/05/11","09:22:30","-15.784019112586975","35.00134766660631","0.5","13","30","64","86","-21876","10476","-6540","10","150","150.29","115.75","34.54","26.92","51.0","15.92","90296","26.88","DUALSPOT-UV-BLUE-GREEN-RED-IR","788854","719903","905176","7.494446","2.060249","-0.039215","760445","903965","761514","5.532118","1.434211","-0.089557","861024","912495","816477","4.639304","1.149170","-0.472867","851273","931537","865951","3.747127","0.876652","-0.917631","725472","851418","951161","2.753088","0.712811","0.000000","3481","2908","2690","2915","2200","1949","2546","1230","797","2359","959","531","2826","1954","2826",""
"MA200-0416","22910","63","1","1.10","1.4","2023-05-11T09:23:00","120","2023/05/11","09:23:00","-15.783729195594788","35.00264333304949","10.1","12","30","64","86","-22658","8541","-6355","10","150","149.57","115.63","33.93","26.96","50.8","15.91","90264","26.88","DUALSPOT-UV-BLUE-GREEN-RED-IR","788742","720438","906133","7.595161","2.088054","-0.011707","760580","904706","762306","5.601437","1.451211","-0.050857","860925","912873","816936","4.692281","1.160865","-0.104569","851839","932541","866939","3.786690","0.885248","-0.135386","725625","851836","951724","2.782899","0.719948","0.000000","5115","4812","4698","4444","3714","3458","3803","2861","2551","3432","2541","2269","3601","2938","3601",""
"MA200-0416","22911","63","1","1.10","1.4","2023-05-11T09:23:30","120","2023/05/11","09:23:30","-15.78276664018631","35.00285349949263","6.7","12","30","64","86","-21008","12880","-5156","10","150","150.29","115.75","34.54","27.01","50.6","15.88","90232","26.94","DUALSPOT-UV-BLUE-GREEN-RED-IR","788732","720883","906877","7.694266","2.113577","-0.030260","760950","905512","763092","5.669131","1.467805","-0.055973","860750","912987","817109","4.747957","1.173215","-0.108923","846518","926990","861834","3.828914","0.893139","-0.248276","725650","852043","951977","2.813078","0.726982","0.000000","5028","4340","4079","4335","3561","3291","3993","2968","2632","3659","2292","1876","3642","2844","3642",""
"MA200-0416","22912","63","1","1.10","1.4","2023-05-11T09:24:00","120","2023/05/11","09:24:00","-15.782136142253876","35.000258833315456","13.6","12","30","64","86","-22484","8424","-6040","10","150","149.51","115.47","34.03","27.06","50.4","15.85","90120","27.00","DUALSPOT-UV-BLUE-GREEN-RED-IR","789871","722246","908779","7.760933","2.130823","-0.026107","761563","906529","763965","5.709864","1.475923","-0.135760","856862","909080","813649","4.778505","1.178371","-0.274272","847654","928375","863174","3.851817","0.895177","-2.603812","726525","853230","953332","2.830043","0.728981","0.000000","3391","2976","2819","2615","1768","1473","2196","1257","950","1989","600","180","2052","820","2052",""
"MA200-0416","22913","63","1","1.10","1.4","2023-05-11T09:24:30","120","2023/05/11","09:24:30","-15.779580473899841","34.998358726501465","13.5","11","30","64","86","-24338","6946","-4196","10","150","149.80","115.84","33.96","27.10","50.1","15.81","90444","27.00","DUALSPOT-UV-BLUE-GREEN-RED-IR","787872","720908","907365","7.862150","2.161577","0.006063","759815","904778","762624","5.762866","1.489502","-0.035599","855860","908311","813020","4.819728","1.186895","-0.133240","847137","928054","862885","3.882873","0.900280","-0.344722","725617","852302","952349","2.854715","0.734973","0.000000","5132","5318","5389","3392","2963","2814","2954","2083","1799","2689","1507","1150","2975","2464","2975",""
"MA200-0416","22914","63","1","1.10","1.4","2023-05-11T09:25:00","120","2023/05/11","09:25:00","-15.77697366476059","34.9977902173996","4.9","11","30","64","86","-21424","11992","-5736","10","150","150.14","115.96","34.18","27.14","49.8","15.76","90616","27.00","DUALSPOT-UV-BLUE-GREEN-RED-IR","790181","723290","910463","7.913643","2.175933","-0.010214","762625","908355","765686","5.793033","1.496255","-0.082856","856945","909615","814243","4.843718","1.192355","-0.089519","849363","930627","865298","3.899097","0.901448","-14.827522","726933","853924","954203","2.867448","0.737358","0.000000","2608","2466","2413","1928","1464","1303","1717","1326","1198","1403","342","23","1533","974","1533",""
"MA200-0416","22915","63","1","1.10","1.4","2023-05-11T09:25:30","120","2023/05/11","09:25:30","-15.774813830852509","34.997362196445465","9.2","11","30","64","86","-23044","8756","-2176","10","150","149.96","115.59","34.37","27.17","49.6","15.73","90696","27.06","DUALSPOT-UV-BLUE-GREEN-RED-IR","784533","718657","904877","8.004732","2.199991","-0.022755","762372","908462","765865","5.848354","1.508789","-0.080759","857927","910993","815539","4.885561","1.200001","-0.213765","850722","932381","866986","3.929998","0.907051","-0.261940","727691","855007","955458","2.891546","0.742219","0.000000","4628","4111","3915","3547","2703","2409","3005","1847","1470","2681","1635","1321","2912","1975","2912",""
"MA200-0416","22916","63","1","1.10","1.4","2023-05-11T09:26:00","120","2023/05/11","09:26:00","-15.77324664592743","34.99697470664978","3.9","11","30","64","85","-22828","9464","-5140","10","150","150.36","115.68","34.69","27.22","49.5","15.74","90788","27.13","DUALSPOT-UV-BLUE-GREEN-RED-IR","780871","716865","903393","8.285113","2.279554","-0.009661","755471","901701","760654","6.057451","1.564371","-0.029848","855222","909349","814476","5.057514","1.244807","-0.041619","847373","929731","864860","4.066869","0.940555","-0.077219","725464","853058","953516","2.988554","0.767094","0.000000","14236","13471","13181","13400","11878","11348","12341","10723","10195","11871","9690","9034","11715","10017","11715",""
"MA200-0416","22917","63","1","1.10","1.4","2023-05-11T09:26:30","120","2023/05/11","09:26:30","-15.772289216518402","34.99750655889511","2.3","11","30","64","86","-23460","7043","-6700","10","150","149.46","115.34","34.13","27.25","49.4","15.72","90848","27.13","DUALSPOT-UV-BLUE-GREEN-RED-IR","779940","718262","906049","8.657388","2.371378","-0.034345","755678","903740","762784","6.286217","1.618461","-0.059012","855030","910511","815864","5.231661","1.283293","-0.096456","842739","925664","861306","4.195694","0.968509","-0.126466","721465","849005","949203","3.082168","0.789482","-0.112717","18958","15803","14613","14704","11749","10725","12535","9362","8331","11206","8218","7321","11338","9164","8415",""
"MA200-0416","22918","63","1","1.10","1.4","2023-05-11T09:27:00","120","2023/05/11","09:27:00","-15.772171080112457","34.997742831707","1.6","12","30","64","86","-22215","7265","-7880","10","150","150.23","115.75","34.48","27.29","49.2","15.72","90880","27.19","DUALSPOT-UV-BLUE-GREEN-RED-IR","779141","719714","908825","9.099010","2.482017","-0.030756","754968","904502","763882","6.543635","1.679557","-0.057523","854963","911686","817234","5.421019","1.326328","-0.084399","843047","926859","862648","4.326489","0.996768","-0.128328","722192","850375","950944","3.174842","0.811795","-0.109323","22409","18845","17509","16486","13134","11977","13581","10361","9318","11336","8221","7289","11184","9039","8302",""
"MA200-0416","22919","63","1","1.10","1.4","2023-05-11T09:27:30","120","2023/05/11","09:27:30","-15.77222889661789","34.99832493066788","3.1","12","30","64","85","-22116","9180","-7143","10","150","150.56","115.51","35.04","27.34","49.3","15.78","90952","27.19","DUALSPOT-UV-BLUE-GREEN-RED-IR","777241","719441","909165","9.384254","2.557167","-0.023528","753234","903683","763554","6.730849","1.726776","-0.043585","852891","910464","816426","5.566198","1.361554","-0.064785","841431","925872","861959","4.434145","1.021427","-0.105310","720629","849031","949649","3.253723","0.831924","-0.083381","14503","12595","11880","12014","9988","9289","10434","8345","7668","9350","7059","6373","9539","8024","7503",""
"MA200-0416","22920","63","1","1.10","1.4","2023-05-11T09:28:00","120","2023/05/11","09:28:00","-15.773211538791656","34.99919670820236","5.1","13","30","64","86","-23056","8047","-5760","10","150","149.70","115.83","33.87","27.38","49.4","15.84","91060","27.25","DUALSPOT-UV-BLUE-GREEN-RED-IR","771647","715770","905238","9.683771","2.636411","-0.015519","749679","900660","761345","6.924685","1.775116","-0.035587","848589","906873","813472","5.719811","1.399522","-0.044996","844191","929710","865783","4.554544","1.049512","-0.078217","721880","851068","952115","3.342416","0.853139","-0.096668","15187","13743","13203","12405","10581","9952","11010","9308","8756","10428","8320","7689","10696","8751","8084",""
"MA200-0416","22921","63","1","1.10","1.4","2023-05-11T09:28:30","120","2023/05/11","09:28:30","-15.772699356079102","34.99970418214798","12.6","11","30","64","86","-21780","11342","-5665","10","150","150.17","115.37","34.80","27.42","49.5","15.91","91056","27.38","DUALSPOT-UV-BLUE-GREEN-RED-IR","770952","716543","906863","9.952999","2.708313","-0.018791","744975","896206","757891","7.099239","1.816581","-0.056313","848567","907795","814590","5.856293","1.430904","-0.078403","838955","924707","861286","4.657159","1.070427","-0.156217","722258","852041","953365","3.416872","0.870558","-0.126146","13706","12134","11546","11216","8832","8012","9821","7486","6730","8923","6029","5165","9015","6991","6299",""
"MA200-0416","22922","63","1","1.10","1.4","2023-05-11T09:29:00","120","2023/05/11","09:29:00","-15.768402397632599","35.00007933333109","15.2","11","30","64","85","-23372","7732","-5624","10","150","149.86","115.49","34.37","27.47","49.5","15.96","91236","27.38","DUALSPOT-UV-BLUE-GREEN-RED-IR","772230","718610","909909","10.138388","2.758363","-0.014435","750708","903801","764513","7.212970","1.845514","-0.033633","849514","909381","816164","5.942911","1.450425","-0.079624","840153","926474","863035","4.719538","1.083838","-0.119418","723268","853494","955107","3.462968","0.882017","-0.082010","9428","8552","8225","7300","6239","5875","6226","4714","4226","5419","3914","3465","5576","4656","4342",""
"MA200-0416","22923","63","1","1.10","1.4","2023-05-11T09:29:30","120","2023/05/11","09:29:30","-15.765818357467651","34.999426543712616","7.5","11","30","64","86","-20940","11008","-7636","10","150","149.90","115.59","34.30","27.52","49.3","15.95","91340","27.44","DUALSPOT-UV-BLUE-GREEN-RED-IR","765541","713177","903416","10.256916","2.792587","-0.003760","750478","904203","765041","7.289696","1.865505","-0.026907","849735","910158","816992","6.004048","1.465308","-0.051928","841579","928433","864979","4.767071","1.094073","-0.116061","719531","849317","950508","3.497348","0.889820","-0.131761","6022","5859","5799","4920","4320","4113","4391","3602","3347","4125","2993","2656","4154","3177","2844",""
"MA200-0416","22924","63","1","1.10","1.4","2023-05-11T09:30:00","120","2023/05/11","09:30:00","-15.762692213058472","34.99967283010483","15.5","11","30","64","86","-22832","8760","-7368","10","150","149.89","115.55","34.35","27.56","49.3","15.97","91424","27.50","DUALSPOT-UV-BLUE-GREEN-RED-IR","767166","715200","906203","10.396563","2.832292","-0.006112","751087","905369","766130","7.372646","1.885192","-0.050362","850416","911233","818025","6.070292","1.479106","-0.107847","843026","930308","866772","4.815802","1.102274","-0.267046","719887","849898","951211","3.531143","0.896544","-0.225326","7098","6790","6674","5321","4249","3880","4759","3335","2876","4231","2395","1850","4085","2734","2275",""
"MA200-0416","22925","63","1","1.10","1.4","2023-05-11T09:30:30","120","2023/05/11","09:30:30","-15.7588512301445","35.00152883317787","17.1","11","30","64","85","-22716","8672","-6132","10","150","149.59","115.59","34.01","27.61","49.2","15.99","91580","27.56","DUALSPOT-UV-BLUE-GREEN-RED-IR","766725","715167","906401","10.477133","2.856170","0.000956","746509","900144","761801","7.422704","1.897697","-0.034262","845822","906562","813910","6.108452","1.486849","-0.113819","837561","924544","861439","4.845933","1.107567","-0.225608","719942","850161","951534","3.554697","0.902174","-0.094386","4094","4124","4135","3210","2726","2559","2740","1890","1616","2615","1561","1249","2846","2313","2131",""
"MA200-0416","22926","63","1","1.10","1.4","2023-05-11T09:31:00","120","2023/05/11","09:31:00","-15.754643678665161","35.00244816648774","13.7","11","30","64","85","-22540","8168","-5840","10","150","149.45","115.67","33.77","27.65","49.1","16.01","91720","27.56","DUALSPOT-UV-BLUE-GREEN-RED-IR","767065","715900","907547","10.547979","2.876133","-0.004785","746739","900777","762453","7.465559","1.908372","-0.032906","845851","906883","814250","6.144387","1.494288","-0.101690","838216","925452","862320","4.870910","1.111668","-0.268945","720290","850714","952193","3.573797","0.906178","-0.169995","3597","3471","3424","2746","2343","2204","2579","1828","1587","2166","1218","937","2306","1655","1434",""
"MA200-0416","22927","63","1","1.10","1.4","2023-05-11T09:31:30","120","2023/05/11","09:31:30","-15.751911044120789","35.00326416664757","9.9","11","30","64","85","-22268","9512","-7688","10","150","149.40","115.50","33.90","27.69","49.0","16.01","91820","27.56","DUALSPOT-UV-BLUE-GREEN-RED-IR","764689","714290","905818","10.684914","2.916740","0.001325","745439","899759","761765","7.555682","1.931160","-0.030248","844178","905513","813178","6.213350","1.511161","-0.045331","835954","923343","860430","4.923900","1.123153","-0.104034","718800","849162","950542","3.610105","0.913877","-0.163761","6963","7036","7063","5784","4983","4708","4957","4132","3867","4602","3399","3043","4391","3172","2759",""
"MA200-0416","22928","63","1","1.10","1.4","2023-05-11T09:32:00","120","2023/05/11","09:32:00","-15.750173687934875","35.004922832828015","5.3","11","30","64","85","-22252","8960","-8036","10","150","150.03","115.39","34.63","27.73","48.9","16.02","91940","27.63","DUALSPOT-UV-BLUE-GREEN-RED-IR","765047","716316","909316","10.997129","3.010841","0.000522","745964","902102","764306","7.803803","2.000272","-0.013724","843909","906721","814764","6.421906","1.567173","-0.025170","836769","925445","862799","5.090599","1.165467","-0.049138","719099","850285","952086","3.722660","0.944520","-0.038208","15891","15958","15983","15940","14793","14398","15005","13426","12917","14493","12257","11593","13625","12359","11929",""
"MA200-0416","22929","63","1","1.10","1.4","2023-05-11T09:32:30","120","2023/05/11","09:32:30","-15.74939239025116","35.006097498349845","6.3","12","30","64","85","-22260","9172","-5708","10","150","149.80","115.50","34.30","27.78","48.9","16.04","91956","27.63","DUALSPOT-UV-BLUE-GREEN-RED-IR","760091","712283","904477","11.132421","3.048303","-0.009201","746346","903158","765354","7.905356","2.026777","-0.024592","844632","908044","816048","6.507797","1.588583","-0.041426","837776","926996","864348","5.158254","1.181155","-0.076949","719960","851560","953637","3.770588","0.956400","-0.075367","6879","6415","6240","6517","5729","5457","6173","5182","4862","5876","4589","4206","5796","4839","4513",""
"MA200-0416","22930","63","1","1.10","1.4","2023-05-11T09:33:00","120","2023/05/11","09:33:00","-15.748675882816315","35.006975832395256","1.0","12","30","64","85","-22292","9316","-4104","10","150","150.09","115.59","34.50","27.81","48.8","16.05","91940","27.69","DUALSPOT-UV-BLUE-GREEN-RED-IR","757495","710577","902691","11.261795","3.086195","-0.002351","744342","901479","764130","8.005091","2.053773","-0.017885","841888","905674","814142","6.593485","1.610570","-0.034567","835770","925294","862908","5.226694","1.197952","-0.057342","718091","849684","951662","3.822050","0.970057","-0.045674","6573","6450","6404","6396","5800","5595","6154","5291","5012","5940","4884","4570","6219","5529","5294",""
"MA200-0416","22931","63","1","1.10","1.4","2023-05-11T09:33:30","120","2023/05/11","09:33:30","-15.748546361923218","35.00668766582385","1.8","12","30","64","85","-21460","11184","-6104","10","150","149.76","115.43","34.33","27.85","49.0","16.15","0","0.00","DUALSPOT-UV-BLUE-GREEN-RED-IR","759726","713142","906201","11.370333","3.116653","-0.007409","741204","898125","761458","8.084865","2.073597","-0.035126","843989","908361","816662","6.658447","1.625173","-0.071655","838686","928870","866312","5.279320","1.209032","-0.115493","719960","852162","954498","3.862136","0.979084","-0.124851","5522","5211","5093","5123","4280","3990","4672","3531","3163","4573","3238","2841","4851","3673","3272",""
"MA200-0416","22932","63","1","1.10","1.4","2023-05-11T09:34:00","120","2023/05/11","09:34:00","-15.74815022945404","35.00632916530594","2.8","12","30","64","85","-22312","11336","-4196","10","150","149.96","115.55","34.41","27.89","49.0","16.21","0","0.00","DUALSPOT-UV-BLUE-GREEN-RED-IR","759716","713492","906799","11.440392","3.137952","0.002455","741724","899072","762335","8.132169","2.085310","-0.036022","839505","903769","812609","6.696278","1.633732","-0.069543","833323","923151","861037","5.308580","1.213913","-0.249770","720274","852639","955111","3.883222","0.984211","-0.083806","3561","3635","3664","3034","2523","2347","2718","2065","1854","2540","1423","1092","2549","2081","1923",""
"MA200-0416","22933","63","1","1.10","1.4","2023-05-11T09:34:30","120","2023/05/11","09:34:30","-15.747583389282227","35.006437498144805","1.5","12","30","64","85","-21584","11876","-4032","10","150","150.23","115.83","34.40","27.94","49.1","16.27","91848","27.81","DUALSPOT-UV-BLUE-GREEN-RED-IR","761021","715179","909182","11.525337","3.160984","-0.011806","742130","899970","763203","8.189523","2.098899","-0.045543","844573","909586","817905","6.744534","1.645415","-0.047932","835051","925329","863144","5.344392","1.222431","-0.065087","721061","853737","956396","3.909956","0.990353","-0.111228","4307","3933","3791","3670","2929","2673","3458","2819","2613","3101","2484","2301","3224","2494","2246",""
"MA200-0416","22934","63","1","1.10","1.4","2023-05-11T09:35:00","120","2023/05/11","09:35:00","-15.747048020362854","35.006615831982344","2.0","12","30","64","85","-21704","10936","-6084","10","150","150.16","115.47","34.69","27.98","49.1","16.31","91812","27.81","DUALSPOT-UV-BLUE-GREEN-RED-IR","756206","711204","904406","11.611626","3.186172","-0.003485","743427","901986","765068","8.247302","2.114116","-0.024089","840783","905860","814636","6.785823","1.652556","-0.188155","835537","926135","863966","5.376790","1.227819","-0.255184","716969","849065","951217","3.933233","0.995721","-0.114750","4389","4265","4218","3709","3252","3094","2968","1709","1303","2814","1558","1186","2815","2161","1940",""
"MA200-0416","22935","63","1","1.10","1.4","2023-05-11T09:35:30","120","2023/05/11","09:35:30","-15.74645334482193","35.006751833017915","2.2","12","30","64","85","-21904","10912","-4184","10","150","150.03","115.75","34.28","28.00","49.1","16.33","91768","27.88","DUALSPOT-UV-BLUE-GREEN-RED-IR","756512","711869","905422","11.711086","3.214006","-0.006995","743974","902998","765977","8.304391","2.127355","-0.049556","840829","906136","814938","6.827623","1.661348","-0.090868","836454","927322","865097","5.403454","1.231634","-0.374779","717188","849415","951623","3.950170","0.998594","-0.338092","5046","4769","4664","3656","2863","2590","2998","2129","1850","2311","1116","763","2044","1170","875",""
"MA200-0416","22936","63","1","1.10","1.4","2023-05-11T09:36:00","120","2023/05/11","09:36:00","-15.745874464511871","35.006787832360715","1.5","12","30","64","85","-21532","10556","-7652","10","150","149.61","115.87","33.74","28.05","49.0","16.33","91748","27.94","DUALSPOT-UV-BLUE-GREEN-RED-IR","758346","713741","907923","11.745914","3.223877","-0.003258","740476","898834","762510","8.325343","2.132845","-0.018712","842257","907784","816452","6.843722","1.664477","-0.114539","838254","929413","867034","5.413711","1.231974","1.439099","718455","850996","953413","3.960216","1.000411","-0.259732","1765","1718","1700","1340","1206","1159","1153","769","646","888","101","-130","1211","752","597",""
"MA200-0416","22937","63","1","1.10","1.4","2023-05-11T09:36:30","120","2023/05/11","09:36:30","-15.746048629283905","35.00616899924353","2.7","12","30","64","85","-22868","9544","-6268","10","150","149.70","115.39","34.30","28.09","48.8","16.31","91780","28.00","DUALSPOT-UV-BLUE-GREEN-RED-IR","756744","712397","906309","11.779131","3.234157","0.004557","739347","897607","761499","8.345599","2.137302","-0.064289","840549","906054","814914","6.859059","1.667182","-0.169160","830523","920882","859098","5.424451","1.232791","-4.826364","717141","849485","951759","3.970371","1.003148","-0.035933","1690","1760","1786","1301","963","846","1103","654","510","933","238","34","1229","1114","1075",""
"MA200-0416","22938","63","1","1.10","1.4","2023-05-11T09:37:00","120","2023/05/11","09:37:00","-15.7463818192482","35.00530699873343","4.7","12","30","64","85","-22336","9886","-6205","10","150","149.73","115.83","33.90","28.14","48.8","16.35","91796","28.06","DUALSPOT-UV-BLUE-GREEN-RED-IR","753275","710157","903925","11.942810","3.277570","-0.012442","740959","900337","763992","8.438659","2.158695","-0.048030","842920","909188","817877","6.922418","1.679986","-0.099926","835080","926342","864281","5.464375","1.240176","-0.166296","719454","852501","955200","3.998075","1.008770","-0.173872","8300","7520","7226","5956","4677","4238","4541","3135","2684","3458","2185","1811","3341","2316","1971",""
"MA200-0416","22939","63","1","1.10","1.4","2023-05-11T09:37:30","120","2023/05/11","09:37:30","-15.746561467647552","35.00453533278778","3.5","12","30","64","85","-22636","9516","-5768","10","150","150.36","115.41","34.95","28.18","48.9","16.42","91820","28.06","DUALSPOT-UV-BLUE-GREEN-RED-IR","751545","709032","902708","12.068321","3.312711","-0.009637","740587","900241","764030","8.510821","2.176750","-0.035835","837189","903235","812601","6.977368","1.692867","-0.060964","833272","924547","862652","5.501699","1.247119","-0.180911","718715","851758","954360","4.023594","1.013233","-0.322699","6387","5904","5722","4635","3829","3552","3952","3059","2773","3244","1992","1626","3088","1783","1343",""
"MA200-0416","22940","63","1","1.10","1.4","2023-05-11T09:38:00","120","2023/05/11","09:38:00","-15.747043371200562","35.00403216574341","1.9","12","30","64","84","-22788","7147","-5348","10","150","149.67","115.26","34.41","28.21","49.0","16.48","91856","28.13","DUALSPOT-UV-BLUE-GREEN-RED-IR","754588","712133","906799","12.116610","3.326328","-0.006839","738196","897580","761818","8.542064","2.182655","-0.113772","838697","905087","814282","6.999893","1.696234","-0.276011","836621","928410","866220","5.516546","1.246762","0.638765","719940","853308","956152","4.036096","1.014794","-0.864168","2460","2324","2272","2009","1272","1019","1622","812","553","1292","-104","-512","1515","633","337",""
"MA200-0416","22941","63","1","1.10","1.4","2023-05-11T09:38:30","120","2023/05/11","09:38:30","-15.747276663780212","35.00353699945845","1.3","12","30","64","85","-21936","7324","-9336","10","150","149.39","115.39","33.99","28.26","48.9","16.50","91876","28.19","DUALSPOT-UV-BLUE-GREEN-RED-IR","755390","713116","908194","12.161917","3.339700","0.000223","738789","898498","762654","8.569489","2.189588","-0.027445","839207","905817","814963","7.021184","1.699691","-0.206757","837639","929709","867445","5.532111","1.249342","-0.234365","715692","848345","950584","4.048320","1.018001","-0.042249","2306","2310","2312","1761","1512","1426","1531","844","624","1353","761","589","1479","1318","1263",""
"MA200-0416","22942","63","1","1.10","1.4","2023-05-11T09:39:00","120","2023/05/11","09:39:00","-15.747479379177094","35.003126833355054","2.2","11","30","64","84","-23316","6928","-7672","10","150","149.81","115.80","34.00","28.30","48.8","16.51","91912","28.19","DUALSPOT-UV-BLUE-GREEN-RED-IR","753941","712065","907015","12.221823","3.357402","0.000712","737705","897461","761865","8.615066","2.201307","-0.023271","838291","905091","814395","7.059646","1.708131","-0.070826","830032","921454","859832","5.560915","1.254683","-0.163302","715204","847898","950143","4.069994","1.023144","-0.084643","3038","3057","3065","2917","2554","2430","2757","2060","1838","2495","1575","1307","2614","2112","1944",""
"MA200-0416","22943","63","1","1.10","1.4","2023-05-11T09:39:30","120","2023/05/11","09:39:30","-15.747402489185333","35.002637333003804","2.6","11","30","64","85","-22396","8540","-6772","10","150","149.51","115.08","34.43","28.33","48.8","16.52","91984","28.25","DUALSPOT-UV-BLUE-GREEN-RED-IR","754919","713558","909248","12.324846","3.390693","0.008069","738705","899231","763532","8.686433","2.221834","-0.006307","839039","906322","815678","7.119352","1.724278","-0.020400","832369","924402","862684","5.607342","1.265889","-0.059332","716222","849364","951882","4.102768","1.032268","-0.024965","5258","5679","5839","4597","4419","4358","4307","3893","3761","4047","3265","3037","3978","3701","3608",""
"MA200-0416","22944","63","1","1.10","1.4","2023-05-11T09:40:00","120","2023/05/11","09:40:00","-15.74688720703125","35.002491999650374","1.4","11","30","64","85","-22692","8153","-5373","10","150","149.67","115.22","34.45","28.37","48.7","16.51","0","0.00","DUALSPOT-UV-BLUE-GREEN-RED-IR","747600","708474","903848","12.692253","3.506895","0.005828","737892","899841","764617","8.930128","2.290857","-0.008541","838044","906598","816368","7.316310","1.778834","-0.014716","832082","925186","863797","5.761364","1.305264","-0.040038","715910","849631","952462","4.202999","1.058190","-0.052386","18729","19812","20225","15679","14853","14568","14192","13147","12812","13411","11467","10897","12152","10511","9959",""
"MA200-0416","22945","63","1","1.10","1.4","2023-05-11T09:40:30","120","2023/05/11","09:40:30","-15.74692302942276","35.00247816625051","1.8","12","30","64","84","-20580","11088","-8916","10","150","149.90","115.43","34.46","28.41","48.6","16.52","0","0.00","DUALSPOT-UV-BLUE-GREEN-RED-IR","745872","707427","902849","12.835766","3.550607","0.002122","736388","898572","763710","9.031608","2.320135","-0.005246","836717","905678","815673","7.402164","1.801252","-0.026828","830802","924154","862919","5.828063","1.321732","-0.049440","715044","848849","951688","4.249317","1.070618","-0.036827","7302","7450","7506","6517","6298","6222","6174","5400","5151","5797","4794","4500","5605","5037","4846",""
"MA200-0416","22946","63","1","1.10","1.4","2023-05-11T09:41:00","120","2023/05/11","09:41:00","-15.747452437877655","35.00264249974862","2.7","13","30","64","85","-19996","11432","-9184","10","150","150.29","114.80","35.50","28.44","48.5","16.53","91968","28.31","DUALSPOT-UV-BLUE-GREEN-RED-IR","747296","710087","906986","13.094746","3.629196","-0.002014","733096","895520","761401","9.173120","2.357940","-0.024421","833413","902818","813307","7.506467","1.825749","-0.062021","827721","921260","860350","5.900308","1.336187","-0.142207","716596","850968","954152","4.293302","1.081084","-0.103693","13250","13004","12910","9138","7895","7465","7543","5729","5147","6313","4085","3433","5352","4118","3703",""
"MA200-0416","22947","63","1","1.10","1.4","2023-05-11T09:41:30","120","2023/05/11","09:41:30","-15.747504770755768","35.00311750010587","2.3","13","30","64","84","-20476","12676","-5673","10","150","149.86","115.49","34.37","28.48","48.4","16.54","91904","28.38","DUALSPOT-UV-BLUE-GREEN-RED-IR","747989","711264","908796","13.216702","3.668625","0.008068","733491","896428","762333","9.247376","2.377575","-0.019123","833796","903576","814123","7.565946","1.841497","-0.022592","828302","922210","861319","5.945443","1.346474","-0.073036","717127","851800","955155","4.322115","1.086443","-0.232234","6202","6737","6943","4766","4234","4050","4275","3803","3651","3921","3002","2733","3485","2178","1739",""
"MA200-0416","22948","63","1","1.10","1.4","2023-05-11T09:42:00","120","2023/05/11","09:42:00","-15.747320234775543","35.003552166046575","2.8","13","30","64","84","-22332","9696","-3612","10","150","150.56","115.75","34.81","28.53","48.2","16.53","91868","28.44","DUALSPOT-UV-BLUE-GREEN-RED-IR","747208","710702","908211","13.255550","3.680399","0.000820","732846","895838","761879","9.275219","2.384561","-0.030895","833149","903021","813649","7.585252","1.845347","-0.105733","827614","921557","860747","5.960914","1.348805","-0.304815","716421","851021","954300","4.335941","1.089852","-0.073088","1971","1986","1992","1783","1488","1386","1384","918","768","1340","671","476","1668","1368","1267",""
"MA200-0416","22949","63","1","1.10","1.4","2023-05-11T09:42:30","120","2023/05/11","09:42:30","-15.746992230415344","35.0041239997372","2.1","13","30","64","84","-21166","11045","-6554","10","150","150.16","115.87","34.29","28.57","48.1","16.52","91832","28.50","DUALSPOT-UV-BLUE-GREEN-RED-IR","743831","707776","904618","13.314741","3.699424","0.008009","735539","899369","764926","9.310407","2.392601","-0.047530","834856","905103","815554","7.614309","1.850539","-0.144241","830147","924542","863502","5.981483","1.351773","-0.327335","718213","853222","956825","4.349809","1.094048","0.006699","3000","3259","3358","2251","1738","1560","2081","1257","992","1780","868","602","1671","1709","1722",""
"MA200-0416","22950","63","1","1.10","1.4","2023-05-11T09:43:00","120","2023/05/11","09:43:00","-15.746550798416138","35.004706332460046","2.9","13","30","64","84","-21348","11160","-6447","10","150","149.73","115.26","34.47","28.61","47.9","16.51","91796","28.50","DUALSPOT-UV-BLUE-GREEN-RED-IR","742795","706983","903675","13.349785","3.710350","0.004146","730227","892993","759579","9.333765","2.399295","-0.006384","834306","904629","815136","7.631171","1.853352","-0.183995","829430","923862","862898","5.993958","1.352798","-2.466758","712998","847111","949959","4.361511","1.094879","12.757578","1785","1861","1890","1502","1439","1417","1214","677","505","1085","298","68","1418","336","-25",""
"MA200-0416","22951","63","1","1.10","1.4","2023-05-11T09:43:30","120","2023/05/11","09:43:30","-15.746248841285706","35.00581916514784","4.3","13","30","64","84","-22070","9833","-6879","10","150","149.40","114.84","34.56","28.65","47.7","16.48","91780","28.56","DUALSPOT-UV-BLUE-GREEN-RED-IR","745492","709847","907527","13.404503","3.727588","0.004531","732122","895573","761822","9.367237","2.407545","-0.034433","835731","906420","816830","7.658387","1.859801","-0.051034","832725","927699","866516","6.013890","1.355397","-0.453545","714746","849340","952482","4.376426","1.097980","-0.160594","2798","2929","2979","2160","1769","1633","1967","1548","1414","1741","754","467","1814","1253","1065",""
"MA200-0416","22952","63","1","1.10","1.4","2023-05-11T09:44:00","120","2023/05/11","09:44:00","-15.745889365673065","35.006675666663796","2.6","13","30","64","84","-21600","10412","-6104","10","150","149.76","115.43","34.33","28.70","47.6","16.47","91744","28.56","DUALSPOT-UV-BLUE-GREEN-RED-IR","745576","710298","908331","13.481144","3.750494","0.000503","732025","895849","762196","9.425875","2.423423","-0.014526","835511","906501","816987","7.706971","1.870500","-0.067640","826108","920625","859982","6.052573","1.364314","-0.067609","714485","849189","952382","4.403892","1.104611","-0.076188","3899","3918","3926","3765","3428","3312","3494","2587","2296","3362","2605","2385","3323","2698","2488",""
"MA200-0416","22953","63","1","1.10","1.4","2023-05-11T09:44:30","120","2023/05/11","09:44:30","-15.74562019109726","35.00627483194694","2.9","13","30","64","84","-21968","9068","-9068","10","150","150.49","115.38","35.11","28.73","47.5","16.47","91760","28.63","DUALSPOT-UV-BLUE-GREEN-RED-IR","746316","711378","909915","13.558949","3.774276","0.000444","732249","896488","762850","9.481678","2.438419","-0.019725","836282","907637","818099","7.751715","1.881265","-0.049331","828129","923122","862370","6.087212","1.370340","-0.203084","715343","850361","953748","4.427828","1.110026","-0.117652","3960","3978","3984","3585","3165","3020","3219","2545","2329","3012","1721","1346","2898","2154","1905",""
"MA200-0416","22954","63","1","1.10","1.4","2023-05-11T09:45:00","120","2023/05/11","09:45:00","-15.745435953140259","35.00549783138558","2.0","13","30","64","84","-22880","8328","-6952","10","150","149.98","115.13","34.84","28.77","47.4","16.46","91812","28.63","DUALSPOT-UV-BLUE-GREEN-RED-IR","743038","709576","908491","13.785826","3.848358","0.007161","730974","895810","762542","9.593403","2.466821","-0.028609","833866","905715","816559","7.835806","1.900284","-0.063863","825524","920753","860272","6.150764","1.382553","-0.144657","713361","848358","951629","4.475469","1.120776","-0.114801","11574","12488","12841","7193","6042","5644","6063","4531","4041","5537","3516","2930","5780","4309","3818",""
"MA200-0416","22955","63","1","1.10","1.4","2023-05-11T09:45:30","120","2023/05/11","09:45:30","-15.745468199253082","35.00484133325517","3.1","13","30","64","84","-22288","8932","-7804","10","150","149.37","115.52","33.85","28.80","47.2","16.45","91868","28.69","DUALSPOT-UV-BLUE-GREEN-RED-IR","737217","704772","902719","13.976156","3.909883","0.008971","727828","892505","759853","9.684919","2.488916","-0.032054","830574","902544","813790","7.904041","1.914393","-0.080346","828035","923960","863310","6.205158","1.392113","-0.171712","714664","850206","953758","4.516834","1.127087","-0.391224","9677","10676","11064","5872","4838","4481","4903","3460","2999","4723","2833","2287","5001","2604","1807",""
"MA200-0416","22956","63","1","1.10","1.4","2023-05-11T09:46:00","120","2023/05/11","09:46:00","-15.745112359523773","35.00411866605282","4.6","13","30","64","84","-21572","9740","-8792","10","150","150.11","115.14","34.97","28.84","47.1","16.43","91916","28.69","DUALSPOT-UV-BLUE-GREEN-RED-IR","738210","705840","904152","14.023933","3.924133","-0.001818","728505","893466","760730","9.720962","2.498579","-0.019274","831031","903160","814363","7.932616","1.920473","-0.082320","828984","925109","864445","6.227431","1.396030","-0.190556","715064","850722","954380","4.534126","1.131754","-0.038386","2437","2393","2376","2320","2048","1954","2060","1443","1246","1940","1123","887","2097","1864","1786",""
"MA200-0416","22957","63","1","1.10","1.4","2023-05-11T09:46:30","120","2023/05/11","09:46:30","-15.744876027107239","35.00330199976452","1.8","13","30","64","84","-21196","11088","-5756","10","150","149.57","114.92","34.65","28.88","47.0","16.42","91940","28.69","DUALSPOT-UV-BLUE-GREEN-RED-IR","738682","706522","905130","14.065594","3.936912","0.001675","728856","894048","761273","9.745798","2.503656","-0.078443","831818","904183","815366","7.954705","1.926922","-0.005471","829765","926118","865402","6.242660","1.397973","-0.463774","715774","851669","955471","4.547193","1.133652","-0.490501","2129","2166","2180","1602","1086","908","1595","1545","1529","1329","562","341","1588","765","491",""
"MA200-0416","22958","63","1","1.10","1.4","2023-05-11T09:47:00","120","2023/05/11","09:47:00","-15.744770288467407","35.00275866640732","1.1","13","30","64","84","-23028","6832","-6908","10","150","149.63","115.31","34.32","28.90","46.9","16.42","91952","28.75","DUALSPOT-UV-BLUE-GREEN-RED-IR","739074","707113","906008","14.111904","3.950718","0.000169","728978","894429","761643","9.777840","2.511572","-0.030308","832589","905221","816321","7.981098","1.930510","-0.316729","831376","928066","867227","6.262168","1.400465","-0.443532","712097","847389","950667","4.561449","1.136676","-0.135783","2358","2362","2364","2059","1709","1588","1900","867","538","1697","728","449","1726","1231","1066",""
"MA200-0416","22959","63","1","1.10","1.4","2023-05-11T09:47:30","120","2023/05/11","09:47:30","-15.744708001613617","35.00264299963601","1.6","13","30","64","84","-20642","11542","-6911","10","150","150.16","115.39","34.77","28.94","46.9","16.46","91956","28.81","DUALSPOT-UV-BLUE-GREEN-RED-IR","740429","708562","908007","14.146736","3.960344","-0.009173","729529","895293","762422","9.801905","2.517568","-0.030939","832927","905713","816826","7.998240","1.933956","-0.097837","825616","921726","861346","6.275213","1.402449","-0.280328","712061","847433","950711","4.572115","1.138694","-0.214734","1772","1626","1569","1546","1278","1186","1233","822","691","1134","572","411","1291","810","651",""
"MA200-0416","22960","63","1","1.10","1.4","2023-05-11T09:48:00","120","2023/05/11","09:48:00","-15.744823515415192","35.00310816639103","1.9","13","30","64","84","-22228","9164","-7440","10","150","150.14","115.63","34.52","28.98","47.0","16.52","91936","28.81","DUALSPOT-UV-BLUE-GREEN-RED-IR","740801","709165","908818","14.182364","3.970224","-0.007719","730459","896620","763577","9.827235","2.520979","-0.287263","832996","905956","817048","8.017433","1.935994","-0.703516","825894","922188","861787","6.289503","1.403003","1.486290","712636","848195","951618","4.581619","1.140582","-0.175567","1809","1681","1631","1624","732","424","1378","490","207","1239","161","-148","1148","763","636",""
"MA200-0416","22961","63","1","1.10","1.4","2023-05-11T09:48:30","120","2023/05/11","09:48:30","-15.744925677776337","35.003699499415234","3.8","13","30","64","83","-21644","10880","-6764","10","150","150.43","115.35","35.07","29.02","47.1","16.60","91936","28.88","DUALSPOT-UV-BLUE-GREEN-RED-IR","738778","707584","907020","14.260366","3.993377","-0.002385","728859","895021","762333","9.883287","2.536672","-0.012045","831894","905073","816313","8.064581","1.946854","-0.058203","825627","922132","861797","6.325059","1.410781","-0.089307","711780","847313","950669","4.606580","1.146011","-0.132384","3971","3877","3841","3602","3317","3219","3393","2571","2309","3092","2225","1976","3022","2162","1877",""
"MA200-0416","22962","63","1","1.10","1.4","2023-05-11T09:49:00","120","2023/05/11","09:49:00","-15.745314955711365","35.00451433332637","3.3","13","30","64","84","-21204","10748","-5572","10","150","150.23","115.34","34.89","29.05","47.2","16.64","91892","28.88","DUALSPOT-UV-BLUE-GREEN-RED-IR","734345","704219","903229","14.409342","4.041353","0.005707","725877","892240","760282","10.002527","2.572250","-0.001886","828361","902006","813852","8.165872","1.975482","-0.011642","828235","925714","865333","6.406468","1.431822","-0.036053","713087","849304","953091","4.665142","1.162277","-0.026239","7586","8075","8266","7663","7558","7522","7291","6811","6658","7081","6049","5752","7092","6511","6319",""
"MA200-0416","22963","63","1","1.10","1.4","2023-05-11T09:49:30","120","2023/05/11","09:49:30","-15.745398163795471","35.00532933231443","2.8","13","30","64","84","-20616","12096","-6624","10","150","149.92","115.14","34.78","29.08","47.2","16.67","91836","28.94","DUALSPOT-UV-BLUE-GREEN-RED-IR","735183","705234","904663","14.490822","4.065618","-0.001373","727304","894270","762064","10.059078","2.586376","-0.030180","828745","902606","814414","8.210743","1.986729","-0.035234","829187","926917","866496","6.440159","1.437443","-0.211161","713557","849958","953860","4.687015","1.167158","-0.113800","4156","4098","4075","3640","3011","2793","3235","2685","2509","2935","1621","1243","2653","1960","1730",""
"MA200-0416","22964","63","1","1.10","1.4","2023-05-11T09:50:00","120","2023/05/11","09:50:00","-15.745562672615051","35.00621266569942","4.0","13","30","64","84","-22064","9092","-3528","10","150","149.51","115.24","34.27","29.12","47.2","16.72","91772","29.00","DUALSPOT-UV-BLUE-GREEN-RED-IR","733394","704423","904191","14.674479","4.125808","0.008468","725646","892799","760985","10.147371","2.607381","-0.036310","828505","902830","814746","8.276922","2.000242","-0.085115","822315","919599","859713","6.487381","1.445555","-0.183511","713358","849936","953885","4.722780","1.174410","-0.155484","9361","10315","10689","5680","4543","4150","4767","3273","2797","4111","2374","1876","4335","2956","2499",""
"MA200-0416","22965","63","1","1.10","1.4","2023-05-11T09:50:30","120","2023/05/11","09:50:30","-15.74570906162262","35.007015832234174","2.9","13","30","64","84","-22076","10860","-7652","10","150","149.39","115.16","34.23","29.16","47.2","16.75","91740","29.06","DUALSPOT-UV-BLUE-GREEN-RED-IR","735904","707014","907611","14.717293","4.138250","-0.002185","728242","896190","763942","10.175165","2.614254","-0.028755","829509","904059","815866","8.297605","2.004742","-0.065860","824699","922406","862384","6.505093","1.448655","-0.172759","714445","851347","955487","4.734701","1.176885","-0.141611","2183","2134","2115","1789","1488","1384","1491","1091","964","1543","908","726","1446","1009","865",""
"MA200-0416","22966","63","1","1.10","1.4","2023-05-11T09:51:00","120","2023/05/11","09:51:00","-15.745603501796722","35.00760783208534","2.4","13","30","64","84","-22568","10652","-4816","10","150","150.29","115.04","35.26","29.20","47.1","16.77","91716","29.06","DUALSPOT-UV-BLUE-GREEN-RED-IR","736903","708253","909342","14.762981","4.151947","-0.002125","728809","897148","764794","10.206668","2.621389","-0.053023","829545","904293","816147","8.321930","2.009731","-0.092957","825224","923114","863074","6.520713","1.450842","-0.355110","714649","851708","955909","4.749557","1.179079","-0.467338","2332","2281","2261","2030","1500","1317","1755","1174","989","1362","622","410","1804","869","560",""
"MA200-0416","22967","63","1","1.10","1.4","2023-05-11T09:51:30","120","2023/05/11","09:51:30","-15.74535197019577","35.008444665931165","4.4","13","30","64","84","-22692","9852","-4908","10","150","150.01","115.38","34.63","29.24","47.1","16.81","91688","29.13","DUALSPOT-UV-BLUE-GREEN-RED-IR","730657","702572","902223","14.827868","4.168977","-0.014265","724936","892652","761055","10.248831","2.631294","-0.040290","830407","905511","817308","8.353746","2.015048","-0.168155","826373","924668","864536","6.544628","1.453274","-0.865345","710765","847164","950872","4.767704","1.183268","-0.092906","3303","2888","2726","2709","2120","1917","2289","1274","952","2079","704","312","2197","1690","1522",""
"MA200-0416","22968","63","1","1.10","1.4","2023-05-11T09:52:00","120","2023/05/11","09:52:00","-15.745148241519928","35.00917316507548","2.2","13","30","64","84","-21180","10632","-8280","10","150","149.45","114.96","34.49","29.29","47.1","16.85","91672","29.19","DUALSPOT-UV-BLUE-GREEN-RED-IR","731270","703437","903482","14.891691","4.186843","-0.006897","725051","893009","761439","10.291524","2.642280","-0.023018","826984","901946","814112","8.385659","2.022528","-0.048278","828278","926921","866678","6.568798","1.457428","-0.185241","711664","848363","952236","4.784626","1.186680","-0.161589","3261","3042","2957","2753","2361","2225","2304","1800","1640","2109","1208","951","2056","1382","1159",""
"MA200-0416","22969","63","1","1.10","1.4","2023-05-11T09:52:30","120","2023/05/11","09:52:30","-15.745013058185577","35.00956033170223","1.4","13","30","64","84","-20504","11175","-7229","10","150","149.39","115.20","34.19","29.34","47.2","16.91","91652","29.19","DUALSPOT-UV-BLUE-GREEN-RED-IR","733391","705663","906439","14.932039","4.199936","0.007690","726260","894695","762912","10.316941","2.647680","-0.060006","827791","903023","815067","8.408052","2.025549","-0.303624","823831","922082","862154","6.584627","1.459211","-0.597370","712326","849259","953279","4.797329","1.188993","-0.220462","2057","2249","2324","1635","1170","1010","1613","733","454","1378","523","279","1540","944","748",""
"MA200-0416","22970","63","1","1.10","1.4","2023-05-11T09:53:00","120","2023/05/11","09:53:00","-15.744902968406677","35.009972332045436","1.8","13","30","64","84","-22640","12156","-2960","10","150","149.56","115.19","34.37","29.38","47.3","16.99","91636","29.25","DUALSPOT-UV-BLUE-GREEN-RED-IR","734300","706854","908123","14.987566","4.216125","-0.002182","727327","896256","764304","10.350318","2.655618","-0.036226","828303","903766","815808","8.432813","2.029674","-0.164866","825182","923728","863725","6.601408","1.460659","-1.583721","713133","850260","954431","4.809448","1.190210","-1.548732","2831","2766","2741","2148","1712","1562","1784","996","746","1461","422","127","1469","494","173",""
"MA200-0416","22971","63","1","1.10","1.4","2023-05-11T09:53:30","120","2023/05/11","09:53:30","-15.744814991950989","35.01043399889022","1.8","13","30","64","83","-21815","10576","-3426","10","150","149.39","115.47","33.91","29.44","47.4","17.09","91612","29.31","DUALSPOT-UV-BLUE-GREEN-RED-IR","734117","706851","908207","15.028793","4.229418","0.007975","727756","896966","764940","10.375724","2.660310","-0.096099","828365","903951","815998","8.451773","2.032595","-0.197980","826237","925043","864919","6.616918","1.460945","0.896539","713264","850531","954715","4.823509","1.193423","-0.086710","2097","2302","2382","1631","1025","816","1363","715","509","1347","84","-273","1701","1323","1199",""
"MA200-0416","22972","63","1","1.10","1.4","2023-05-11T09:54:00","120","2023/05/11","09:54:00","-15.744646906852722","35.010932164266706","2.1","13","30","64","83","-20828","11876","-6440","10","150","150.16","116.47","33.69","29.49","47.5","17.15","91560","29.38","DUALSPOT-UV-BLUE-GREEN-RED-IR","729065","702207","902389","15.071821","4.243845","0.012027","724085","892622","761298","10.403595","2.666402","-0.047050","828964","904792","816783","8.473498","2.036505","-0.116805","827779","926914","866716","6.634053","1.462614","-0.860368","714316","851864","956257","4.837055","1.195310","-0.456990","2169","2515","2650","1773","1340","1191","1548","963","778","1476","496","220","1624","782","506",""
"MA200-0416","22973","63","1","1.10","1.4","2023-05-11T09:54:30","120","2023/05/11","09:54:30","-15.744409203529358","35.01144383195788","1.7","13","30","64","83","-21876","10728","-6475","10","150","150.36","115.75","34.61","29.54","47.3","17.15","91536","29.44","DUALSPOT-UV-BLUE-GREEN-RED-IR","730673","703986","904837","15.120197","4.261312","0.014838","725496","894546","763000","10.431283","2.675777","0.014507","825577","901203","813597","8.494342","2.042245","-0.013642","822135","920708","860928","6.648271","1.466208","-0.037158","709964","846772","950569","4.848785","1.198735","-0.006642","2454","2964","3164","1773","2008","2089","1495","1377","1339","1232","1042","988","1415","1382","1371",""
"MA200-0416","22974","63","1","1.10","1.4","2023-05-11T09:55:00","120","2023/05/11","09:55:00","-15.744010031223297","35.011978164315224","2.3","13","30","64","83","-21584","10592","-3696","10","150","150.36","115.90","34.46","29.59","47.2","17.14","91516","29.50","DUALSPOT-UV-BLUE-GREEN-RED-IR","731357","704916","906203","15.178236","4.279152","0.002963","726053","895440","763808","10.462868","2.683061","-0.041314","826220","902121","814460","8.519502","2.047568","-0.071858","824501","923476","863543","6.664525","1.468223","-0.445046","711073","848167","952150","4.862097","1.201545","-0.128765","2941","3040","3079","2020","1566","1410","1802","1282","1117","1406","586","354","1604","1139","986",""
"MA200-0416","22975","63","1","1.10","1.4","2023-05-11T09:55:30","120","2023/05/11","09:55:30","-15.743840515613556","35.01232766453177","1.6","13","30","64","83","-21408","9900","-7396","10","150","150.43","115.79","34.64","29.64","47.1","17.15","91504","29.50","DUALSPOT-UV-BLUE-GREEN-RED-IR","731049","704885","906330","15.235266","4.297491","0.006207","721451","889970","759216","10.496633","2.692581","-0.007988","825453","901423","813872","8.543903","2.051764","-0.148679","823178","922129","862293","6.682255","1.469993","-0.876741","710145","847118","951039","4.876909","1.205052","-0.078591","2892","3109","3195","2161","2037","1994","1749","1005","770","1536","512","223","1787","1414","1291",""
"MA200-0416","22976","63","1","1.10","1.4","2023-05-11T09:56:00","120","2023/05/11","09:56:00","-15.743683397769928","35.01307883206755","2.5","13","30","64","83","-21976","9824","-6156","10","150","150.17","115.60","34.57","29.71","47.1","17.23","91472","29.56","DUALSPOT-UV-BLUE-GREEN-RED-IR","732845","706894","909079","15.291292","4.313574","-0.003883","723065","892242","761218","10.530019","2.698284","-0.129287","827060","903443","815734","8.569390","2.054863","-0.415142","826892","926453","866355","6.700713","1.470267","0.835477","711953","849442","953667","4.893322","1.208250","-0.176125","2846","2732","2687","2141","1222","906","1830","744","401","1601","79","-348","1983","1291","1065",""
"MA200-0416","22977","63","1","1.10","1.4","2023-05-11T09:56:30","120","2023/05/11","09:56:30","-15.7435781955719","35.0137554993853","2.3","14","30","64","83","-21784","9492","-7315","10","150","150.16","115.87","34.29","29.76","47.1","17.26","91460","29.63","DUALSPOT-UV-BLUE-GREEN-RED-IR","733663","708463","911537","15.389315","4.344007","0.004167","724029","893991","762846","10.585425","2.711635","-0.031430","826823","903569","815970","8.609182","2.064096","-0.046084","827283","927236","867151","6.729218","1.474708","-0.228985","712009","849720","954007","4.914467","1.211370","-0.404475","4968","5213","5309","3544","2886","2659","2851","2235","2041","2468","1299","971","2549","1271","853",""
"MA200-0416","22978","63","1","1.10","1.4","2023-05-11T09:57:00","120","2023/05/11","09:57:00","-15.743616104125977","35.01430883072317","2.5","14","30","64","83","-22988","8248","-6928","10","150","150.30","115.94","34.36","29.81","47.1","17.33","91480","29.69","DUALSPOT-UV-BLUE-GREEN-RED-IR","728031","703511","905433","15.541950","4.390558","0.002510","724637","895153","763970","10.674109","2.734386","-0.020647","823564","900356","813132","8.677406","2.079426","-0.053717","823683","923450","863661","6.776604","1.483559","-0.132621","708940","846226","950145","4.948471","1.219371","-0.076014","7732","7957","8046","5670","4908","4646","4885","3704","3332","4100","2584","2159","4097","3253","2977",""
"MA200-0416","22979","63","1","1.10","1.4","2023-05-11T09:57:30","120","2023/05/11","09:57:30","-15.743263185024261","35.01508366595954","2.6","14","30","64","83","-21612","11104","-4300","10","150","149.96","116.03","33.93","29.87","47.2","17.39","91480","29.75","DUALSPOT-UV-BLUE-GREEN-RED-IR","728838","704982","907712","15.662350","4.426679","0.002225","721475","891896","761388","10.754633","2.754991","-0.018779","823578","900906","813781","8.742572","2.094560","-0.042461","824456","924771","865004","6.827213","1.494378","-0.076945","709048","846640","950728","4.986088","1.228047","-0.078156","6094","6252","6314","5144","4501","4280","4662","3702","3400","4375","3198","2868","4528","3571","3258",""
"MA200-0416","22980","63","1","1.10","1.4","2023-05-11T09:58:00","120","2023/05/11","09:58:00","-15.7437082529068","35.01597849838436","2.4","14","30","64","83","-21980","9888","-6652","10","150","150.36","115.59","34.77","29.93","47.0","17.41","91472","29.81","DUALSPOT-UV-BLUE-GREEN-RED-IR","728801","705839","909336","15.868319","4.493749","0.006518","721221","892386","762091","10.901478","2.798753","-0.001140","823947","902033","815039","8.865578","2.128124","-0.015683","818016","918165","858990","6.923801","1.518213","-0.043120","709665","847801","952170","5.057634","1.247150","-0.034614","10465","11331","11673","9417","9331","9301","8834","8015","7756","8383","6878","6455","8646","7675","7358",""
"MA200-0416","22981","63","1","1.10","1.4","2023-05-11T09:58:30","120","2023/05/11","09:58:30","-15.744195580482483","35.01669149659574","2.3","14","30","64","83","-22232","8678","-7324","10","150","149.51","115.51","33.99","29.98","47.0","17.43","91464","29.94","DUALSPOT-UV-BLUE-GREEN-RED-IR","723428","701188","903669","15.983492","4.531553","0.008680","722568","894551","764068","10.972328","2.817613","-0.013430","824285","902784","815832","8.920069","2.140849","-0.041804","819008","919552","860377","6.964867","1.525765","-0.132669","710057","848435","952953","5.086527","1.253416","-0.105429","5856","6532","6799","4546","4112","3962","3916","3107","2852","3566","2229","1853","3494","2574","2274",""
"MA200-0416","22982","63","1","1.10","1.4","2023-05-11T09:59:00","120","2023/05/11","09:59:00","-15.744491338729858","35.01709866337478","2.1","14","30","64","83","-20960","11264","-7860","10","150","149.57","115.38","34.19","30.04","46.8","17.43","91448","30.00","DUALSPOT-UV-BLUE-GREEN-RED-IR","719474","700187","904204","16.185637","4.595651","0.005513","714515","887794","759508","11.124706","2.859474","-0.009774","821055","901983","816116","9.037650","2.171659","-0.019871","817084","919678","861272","7.054883","1.547681","-0.041962","708507","848071","953265","5.154154","1.270877","-0.039923","10290","11012","11298","9790","9076","8830","8460","7481","7172","7827","6431","6039","8187","7134","6790",""
"MA200-0416","22983","63","1","1.10","1.4","2023-05-11T09:59:30","120","2023/05/11","09:59:30","-15.74477231502533","35.017526496201754","0.8","14","30","64","83","-21940","10192","-5684","10","150","149.96","115.79","34.17","30.10","46.7","17.46","91436","30.06","DUALSPOT-UV-BLUE-GREEN-RED-IR","719618","702271","908166","16.999090","4.868662","0.009492","714395","889681","761960","11.828769","3.080595","0.006758","816762","899306","814529","9.671409","2.365362","0.004668","818889","923609","865738","7.594604","1.706653","-0.000321","705202","845425","950841","5.545030","1.386783","0.001155","41262","46928","49202","45075","47972","48992","45440","47063","47589","46763","46675","46650","47156","47384","47460",""
"MA200-0416","22984","63","1","1.10","1.4","2023-05-11T10:00:00","120","2023/05/11","10:00:00","-15.745024383068085","35.01793432980776","2.0","14","30","64","83","-21592","10536","-6620","10","150","149.40","115.13","34.27","30.17","46.6","17.46","91412","30.13","DUALSPOT-UV-BLUE-GREEN-RED-IR","714528","697726","902522","17.097208","4.899004","0.003015","716146","892333","764364","11.904758","3.101205","-0.011472","816905","899847","815166","9.733684","2.380371","-0.034621","819560","924667","866837","7.644066","1.717740","-0.061194","705145","845545","951071","5.583994","1.397846","-0.011778","5005","5199","5277","4893","4458","4305","4490","3635","3358","4310","3245","2936","4727","4509","4436",""
"MA200-0416","22985","63","1","1.10","1.4","2023-05-11T10:00:30","120","2023/05/11","10:00:30","-15.745125889778137","35.01830315962434","0.7","14","30","64","83","-22960","7743","-6704","10","150","149.39","115.43","33.95","30.22","46.4","17.46","91412","30.19","DUALSPOT-UV-BLUE-GREEN-RED-IR","715784","699324","904819","17.175752","4.922659","0.001890","711671","887099","759961","11.954732","3.113477","-0.024037","818232","901604","816802","9.774042","2.388941","-0.059547","814521","919211","861743","7.674091","1.722234","-0.224947","706518","847349","953182","5.608143","1.403719","-0.053563","3996","4092","4130","3209","2679","2492","2902","2095","1834","2609","1328","957","2922","2416","2247",""
"MA200-0416","22986","63","1","1.10","1.4","2023-05-11T10:01:00","120","2023/05/11","10:01:00","-15.745086014270782","35.018634328618646","1.8","15","30","64","82","-21860","10348","-6364","10","150","150.21","115.92","34.30","30.28","46.3","17.47","91416","30.25","DUALSPOT-UV-BLUE-GREEN-RED-IR","714585","698720","904296","17.267696","4.946216","-0.013387","711942","887992","760829","12.018995","3.126669","-0.058745","816709","900418","815812","9.825994","2.397101","-0.166400","814065","919087","861687","7.713636","1.727729","-0.279758","705602","846521","952299","5.638254","1.408787","-0.239562","4658","4034","3784","4109","2851","2408","3720","1975","1412","3422","1607","1083","3628","2064","1543",""
"MA200-0416","22987","63","1","1.10","1.4","2023-05-11T10:01:30","120","2023/05/11","10:01:30","-15.745052218437195","35.01933499611914","2.9","15","30","64","83","-21608","10884","-5612","10","150","150.16","115.71","34.45","30.34","46.2","17.48","91408","30.31","DUALSPOT-UV-BLUE-GREEN-RED-IR","717212","702014","908874","17.420768","4.985222","-0.014514","714147","891365","763901","12.122985","3.149408","-0.046138","814473","898423","814111","9.907157","2.412229","-0.098643","817276","923198","865605","7.777837","1.737112","-0.244701","707726","849342","955530","5.687713","1.417088","-0.243809","7770","6650","6201","6662","4893","4272","5823","3646","2945","5566","2732","1917","5971","3366","2501",""
"MA200-0416","22988","63","1","1.10","1.4","2023-05-11T10:02:00","120","2023/05/11","10:02:00","-15.745472490787506","35.02032966352999","5.4","14","30","64","83","-22168","9956","-5060","10","150","150.43","115.95","34.47","30.39","46.0","17.48","91364","30.31","DUALSPOT-UV-BLUE-GREEN-RED-IR","717842","703377","911048","17.572410","5.028333","-0.003718","714644","892642","765173","12.220636","3.173547","-0.024118","813941","898358","814186","9.981075","2.428519","-0.052075","817965","924349","866754","7.828197","1.744508","-0.238376","707451","849315","955588","5.727384","1.425725","-0.096692","7681","7345","7210","6243","5191","4822","5292","3923","3482","4357","2152","1520","4779","3500","3076",""
"MA200-0416","22989","63","1","1.10","1.4","2023-05-11T10:02:30","120","2023/05/11","10:02:30","-15.746201574802399","35.02140649408102","2.7","14","30","64","83","-22148","9784","-7143","10","150","150.23","115.39","34.84","30.46","45.8","17.47","91408","30.44","DUALSPOT-UV-BLUE-GREEN-RED-IR","712446","698360","904682","17.635148","5.047809","0.002149","710698","887940","761214","12.258192","3.183258","-0.019666","815195","899944","815647","10.010125","2.433967","-0.100142","812964","918831","861607","7.850367","1.747965","-0.209691","704250","845559","951391","5.746931","1.430045","-0.096624","3193","3283","3319","2412","2065","1944","2090","1298","1043","1927","995","728","2366","1731","1521",""
"MA200-0416","22990","63","1","1.10","1.4","2023-05-11T10:03:00","120","2023/05/11","10:03:00","-15.746631503105164","35.022213995456696","6.0","14","30","64","83","-22416","9196","-7328","10","150","149.69","115.58","34.11","30.51","45.5","17.41","91452","30.44","DUALSPOT-UV-BLUE-GREEN-RED-IR","710571","698591","906490","18.072688","5.206051","0.013301","711390","890248","763710","12.474568","3.245073","-0.003635","813997","899765","815878","10.170138","2.474427","-0.022980","812651","919377","862355","7.968187","1.773535","-0.064793","703730","845501","951499","5.824325","1.445619","-0.126015","22235","27245","29272","13878","13433","13276","11494","9846","9316","10227","7520","6745","9354","6377","5394",""
"MA200-0416","22991","63","1","1.10","1.4","2023-05-11T10:03:30","120","2023/05/11","10:03:30","-15.74665081501007","35.023033829405904","2.3","15","30","64","82","-21536","7915","-7956","10","150","150.49","115.64","34.85","30.57","45.2","17.35","91456","30.50","DUALSPOT-UV-BLUE-GREEN-RED-IR","709938","698180","906075","18.137106","5.227703","0.007691","710568","889424","763066","12.516238","3.257948","0.002643","814112","900064","816164","10.201981","2.481763","-0.044262","811975","918790","861792","7.992614","1.776653","-0.358446","703555","845407","951422","5.844892","1.449669","-0.146202","3271","3649","3802","2671","2738","2762","2286","1747","1574","2119","897","548","2484","1623","1339",""
"MA200-0416","22992","63","1","1.10","1.4","2023-05-11T10:04:00","120","2023/05/11","10:04:00","-15.746183931827545","35.02358049526811","3.5","15","30","64","83","-22784","9700","-5672","10","150","149.90","115.31","34.58","30.63","44.8","17.28","91480","30.56","DUALSPOT-UV-BLUE-GREEN-RED-IR","711495","699971","908589","18.196336","5.245851","0.001628","711607","891032","764536","12.561590","3.269703","-0.017896","815189","901540","817574","10.241054","2.491551","-0.027166","815527","923057","865857","8.024048","1.783066","-0.086939","705060","847379","953698","5.868313","1.455037","-0.077838","3016","3082","3109","2915","2519","2380","2813","2349","2200","2734","1860","1610","2837","2168","1947",""
"MA200-0416","22993","63","1","1.10","1.4","2023-05-11T10:04:30","120","2023/05/11","10:04:30","-15.746047973632812","35.02380366064608","0.0","15","30","64","83","-22640","8916","-5368","10","150","149.70","115.04","34.66","30.68","44.6","17.23","91476","30.56","DUALSPOT-UV-BLUE-GREEN-RED-IR","712889","701530","910702","18.235526","5.258190","0.003258","712443","892239","765581","12.589434","3.275394","-0.061041","815571","902076","818086","10.262897","2.496176","-0.063030","815714","923383","866184","8.040020","1.784431","-1.446077","704983","847363","953720","5.883056","1.458859","-0.038742","2000","2090","2127","1794","1217","1014","1576","1107","957","1393","395","110","1790","1540","1458",""
"MA200-0416","22994","63","1","1.10","1.4","2023-05-11T10:05:00","120","2023/05/11","10:05:00","-15.74595719575882","35.023965161293745","1.4","15","30","64","83","-22262","9058","-6575","10","150","149.83","115.35","34.48","30.72","44.3","17.19","91476","30.63","DUALSPOT-UV-BLUE-GREEN-RED-IR","706971","695848","903407","18.264538","5.266683","-0.001621","708838","887856","761856","12.609355","3.280300","-0.024791","811132","897287","813758","10.279268","2.496820","0.758852","816839","924733","867444","8.051489","1.784235","0.470816","705271","847807","954245","5.895200","1.460618","-0.369309","1477","1447","1434","1280","1054","975","1178","155","-173","997","-57","-357","1470","712","462",""
"MA200-0416","22995","63","1","1.10","1.4","2023-05-11T10:05:30","120","2023/05/11","10:05:30","-15.745753586292267","35.02436116337776","2.3","15","30","64","82","-22348","10404","-6148","10","150","149.45","115.35","34.09","30.74","44.2","17.16","91468","30.63","DUALSPOT-UV-BLUE-GREEN-RED-IR","707449","696515","904379","18.300158","5.277315","0.000753","708375","887431","761534","12.632433","3.284423","-0.090748","812436","898899","815264","10.298537","2.500307","-0.101889","810663","917880","861029","8.065960","1.785487","-1.229597","706079","848864","955422","5.908186","1.462752","-0.243443","1813","1831","1839","1483","896","690","1386","849","676","1258","368","115","1572","874","644",""
"MA200-0416","22996","63","1","1.10","1.4","2023-05-11T10:06:00","120","2023/05/11","10:06:00","-15.745733499526978","35.02483433112502","4.9","15","30","64","82","-20236","12556","-8047","10","150","149.83","115.24","34.59","30.80","44.1","17.18","91436","30.63","DUALSPOT-UV-BLUE-GREEN-RED-IR","706311","695642","903424","18.358736","5.297735","0.010060","708002","887198","761434","12.672093","3.295099","-0.012818","811910","898515","814967","10.330037","2.508145","-0.028270","808883","916034","859346","8.089361","1.789241","-0.183645","704803","847462","953892","5.927021","1.468010","-0.017315","2985","3466","3662","2551","2287","2194","2269","1881","1756","2037","1089","819","2283","2123","2070",""
"MA200-0416","22997","63","1","1.10","1.4","2023-05-11T10:06:30","120","2023/05/11","10:06:30","-15.742959141731262","35.02545866370201","14.8","15","30","64","82","-21216","11192","-5524","10","150","149.63","115.12","34.52","30.84","44.0","17.16","91524","30.69","DUALSPOT-UV-BLUE-GREEN-RED-IR","708205","698063","906911","18.471384","5.331939","0.000949","710007","890288","764264","12.757386","3.319526","-0.005061","812772","899929","816420","10.400192","2.526861","-0.016389","811275","919148","862363","8.143921","1.801859","-0.051048","706495","849770","956586","5.969248","1.477404","-0.087439","5747","5820","5850","5492","5246","5159","5059","4501","4322","4755","3667","3358","5124","3801","3366",""
"MA200-0416","22998","63","1","1.10","1.4","2023-05-11T10:07:00","120","2023/05/11","10:07:00","-15.739064455032349","35.02365232817829","18.4","15","30","64","82","-23212","8480","-5024","10","150","149.57","115.59","33.97","30.87","43.6","17.08","91612","30.69","DUALSPOT-UV-BLUE-GREEN-RED-IR","704991","696826","906482","18.840218","5.449802","0.005807","707212","888911","763901","13.067864","3.413307","0.002771","809990","898771","816064","10.663257","2.601814","-0.003947","810503","919909","863690","8.361377","1.862627","-0.008077","700866","844060","950677","6.130365","1.523966","-0.003703","18741","20377","21043","19911","20464","20659","18894","18317","18131","18873","17945","17679","19471","19146","19039",""
"MA200-0416","22999","63","1","1.10","1.4","2023-05-11T10:07:30","120","2023/05/11","10:07:30","-15.736130177974701","35.02303082682192","5.9","15","30","64","82","-24156","7647","1956","10","150","149.93","115.68","34.25","30.91","43.3","17.00","91792","30.75","DUALSPOT-UV-BLUE-GREEN-RED-IR","702595","695127","904731","19.011388","5.505571","0.006523","705720","887789","763189","13.206843","3.454034","-0.001049","808113","897336","814935","10.787699","2.636819","-0.006537","808163","917793","861849","8.462995","1.888484","-0.026083","699128","842323","948875","6.204775","1.543838","-0.024147","8690","9564","9921","8906","8816","8784","8930","8486","8342","8812","7574","7219","8985","8105","7814",""
"MA200-0416","23000","63","1","1.10","1.4","2023-05-11T10:08:00","120","2023/05/11","10:08:00","-15.738700032234192","35.023565996438265","13.3","15","30","64","82","-21540","10780","-7028","10","150","150.14","115.50","34.64","30.94","43.1","16.92","91688","30.75","DUALSPOT-UV-BLUE-GREEN-RED-IR","701843","696706","908231","19.510546","5.670149","0.006293","704041","888335","764682","13.643972","3.590118","0.003589","806221","897669","816230","11.176688","2.754717","0.001232","808001","919773","864543","8.793675","1.985210","-0.003756","698706","843347","950733","6.455633","1.615975","-0.009019","25383","27903","28936","28056","29120","29501","27960","28254","28351","28723","28012","27805","30340","29088","28671",""
"MA200-0416","23001","63","1","1.10","1.4","2023-05-11T10:08:30","120","2023/05/11","10:08:30","-15.742088854312897","35.02574232965708","16.4","15","30","64","82","-22440","9716","-5972","10","150","150.49","115.49","35.00","30.96","42.8","16.86","91520","30.75","DUALSPOT-UV-BLUE-GREEN-RED-IR","698470","694308","905628","19.677086","5.723583","0.003895","702563","887521","764349","13.787372","3.633844","0.000616","803659","895755","814826","11.302436","2.790361","-0.008294","804506","916629","861897","8.902893","2.014923","-0.017093","700826","846536","954549","6.539444","1.639319","-0.018480","8469","8968","9172","9204","9262","9283","9039","8455","8264","9487","8518","8234","10137","9318","9044",""
"MA200-0416","23002","63","1","1.10","1.4","2023-05-11T10:09:00","120","2023/05/11","10:09:00","-15.74652487039566","35.02474416233599","16.5","15","30","64","82","-21644","11056","-4992","10","150","150.56","115.54","35.02","30.97","42.6","16.79","91320","30.69","DUALSPOT-UV-BLUE-GREEN-RED-IR","700096","696411","908741","19.826314","5.770582","0.002645","698643","883120","760767","13.912051","3.668922","-0.007752","804051","896717","815889","11.414357","2.821218","-0.011936","805919","918673","863997","8.993878","2.038234","-0.027774","701604","847797","956087","6.610758","1.657710","-0.037571","7585","7883","8005","7999","7426","7220","8042","7316","7077","7900","6679","6321","8622","7336","6906",""
"MA200-0416","23003","63","1","1.10","1.4","2023-05-11T10:09:30","120","2023/05/11","10:09:30","-15.750354170799255","35.02377966418862","11.6","15","30","64","82","-22220","8508","-8329","10","150","150.36","114.99","35.37","30.98","42.4","16.71","91116","30.69","DUALSPOT-UV-BLUE-GREEN-RED-IR","697691","694274","906065","19.874198","5.784221","-0.005867","701413","886885","764098","13.947546","3.677904","-0.022744","802895","895663","814997","11.445498","2.829152","-0.025830","803287","915892","861380","9.015554","2.040553","-0.596222","699914","845864","953958","6.629038","1.661701","-0.095373","2445","2264","2190","2288","1882","1737","2248","1862","1735","1891","657","296","2220","1576","1360",""
"MA200-0416","23004","63","1","1.10","1.4","2023-05-11T10:10:00","120","2023/05/11","10:10:00","-15.753808856010437","35.02420582994819","15.6","15","30","64","82","-20908","11100","-5968","10","150","149.37","114.95","34.42","30.99","42.3","16.67","90868","30.69","DUALSPOT-UV-BLUE-GREEN-RED-IR","698432","695653","908272","19.995274","5.824058","0.006122","701497","887662","765047","14.045228","3.706752","-0.001346","803724","897158","816544","11.526102","2.850496","-0.015748","804778","918087","863591","9.082723","2.058636","-0.016506","696941","842606","950399","6.675691","1.673626","-0.036340","6186","6798","7049","6299","6213","6182","5821","5148","4927","5862","5271","5097","5669","4840","4562",""
"MA200-0416","23005","63","1","1.10","1.4","2023-05-11T10:10:30","120","2023/05/11","10:10:30","-15.758260309696198","35.024865828454494","20.1","15","30","64","82","-22284","10260","-6196","10","150","149.80","115.07","34.73","31.00","42.1","16.62","90620","30.69","DUALSPOT-UV-BLUE-GREEN-RED-IR","696569","694331","906899","20.123188","5.865072","0.004021","700183","886600","764317","14.150293","3.737163","-0.004165","802515","896360","816039","11.618516","2.877694","-0.002940","804757","918509","864163","9.159021","2.078902","-0.020050","700508","847218","955739","6.731022","1.688794","-0.020731","6529","6936","7104","6768","6491","6392","6667","6502","6447","6652","5854","5620","6717","6101","5894",""
"MA200-0416","23006","63","1","1.10","1.4","2023-05-11T10:11:00","120","2023/05/11","10:11:00","-15.761934041976929","35.02673699520528","17.0","15","30","64","82","-21564","11228","-5476","10","150","149.98","114.83","35.15","31.01","42.0","16.59","90384","30.69","DUALSPOT-UV-BLUE-GREEN-RED-IR","696647","694933","907973","20.232694","5.899080","0.000988","699900","886785","764651","14.240492","3.764444","-0.001167","802401","896709","816534","11.694965","2.898424","-0.015314","804305","918413","864207","9.220687","2.094268","-0.034379","696171","842236","950240","6.776733","1.701033","-0.029665","5601","5682","5715","5823","5753","5728","5527","4896","4687","5387","4385","4091","5561","4863","4630",""
"MA200-0416","23007","63","1","1.10","1.4","2023-05-11T10:11:30","120","2023/05/11","10:11:30","-15.76553863286972","35.02812266163528","12.1","15","30","64","82","-21120","11792","-6615","10","150","150.36","115.00","35.36","31.02","41.8","16.54","90212","30.69","DUALSPOT-UV-BLUE-GREEN-RED-IR","696025","694577","907670","20.295430","5.918724","0.001238","699596","886713","764703","14.289158","3.777563","-0.014104","801656","896172","816110","11.736919","2.908492","-0.035135","804134","918465","864314","9.254852","2.102595","-0.039639","700064","847137","955822","6.802929","1.706252","-0.130390","3204","3262","3286","3137","2750","2611","3028","2363","2144","2980","2362","2180","3182","2061","1686",""
"MA200-0416","23008","63","1","1.10","1.4","2023-05-11T10:12:00","120","2023/05/11","10:12:00","-15.769220352172852","35.026609828695655","19.1","15","30","64","82","-21983","10762","-5520","10","150","149.57","114.96","34.61","31.01","41.6","16.45","89980","30.69","DUALSPOT-UV-BLUE-GREEN-RED-IR","695172","694667","908325","20.469238","5.975067","0.004778","698501","886325","764729","14.435301","3.823238","0.003416","800733","895983","816297","11.864491","2.947807","0.002572","802447","917289","863519","9.360485","2.133578","-0.003687","699358","846768","955610","6.878099","1.727882","-0.009122","8880","9562","9843","9424","9783","9913","9213","9431","9503","9219","8981","8911","9134","8730","8595",""
"MA200-0416","23009","63","1","1.10","1.4","2023-05-11T10:12:30","120","2023/05/11","10:12:30","-15.773505866527557","35.02427882887423","18.9","15","30","64","81","-21608","10224","-5908","10","150","149.59","115.29","34.30","31.02","41.5","16.41","89784","30.69","DUALSPOT-UV-BLUE-GREEN-RED-IR","690913","691398","904787","20.686814","6.050375","0.009076","695441","883464","762686","14.596987","3.874307","0.005316","797242","893007","813925","12.000865","2.989333","0.002542","799043","914152","860866","9.467834","2.164262","-0.005642","696820","844230","952946","6.951261","1.748064","-0.015474","11084","12897","13646","10396","11038","11270","9820","10052","10129","9341","8976","8867","8864","8220","8003",""
"MA200-0416","23010","63","1","1.10","1.4","2023-05-11T10:13:00","120","2023/05/11","10:13:00","-15.77847170829773","35.02380316145718","18.7","15","30","64","82","-23860","6956","-6196","10","150","150.36","115.12","35.24","31.01","41.3","16.35","89940","30.63","DUALSPOT-UV-BLUE-GREEN-RED-IR","690108","691843","906197","20.971124","6.145117","0.005302","694748","884017","763729","14.845713","3.952289","0.002139","797490","894545","815850","12.221187","3.056394","-0.000637","799644","915965","863001","9.655913","2.220159","-0.004088","697500","845798","955096","7.091371","1.789678","-0.005866","14506","15789","16321","16017","16403","16542","15889","15797","15767","16391","15912","15769","17002","16494","16323",""
"MA200-0416","23011","63","1","1.10","1.4","2023-05-11T10:13:30","120","2023/05/11","10:13:30","-15.782224893569946","35.023461665958166","13.2","15","30","64","82","-22824","8444","-6360","10","150","150.25","115.36","34.89","31.00","41.2","16.30","90112","30.63","DUALSPOT-UV-BLUE-GREEN-RED-IR","688578","690886","905234","21.078180","6.179586","0.003982","693527","883052","763114","14.934362","3.977943","-0.004172","795902","893258","814872","12.297745","3.078442","-0.005518","798314","914884","862144","9.717358","2.237385","-0.010768","696563","844931","954242","7.134763","1.800648","-0.039375","5450","5803","5949","5696","5451","5362","5509","5247","5159","5343","4953","4837","5254","4392","4102",""
"MA200-0416","23012","63","1","1.10","1.4","2023-05-11T10:14:00","120","2023/05/11","10:14:00","-15.784391701221466","35.02369999885559","12.2","15","30","64","82","-22668","8820","-6080","10","150","150.56","115.08","35.48","31.00","41.3","16.31","90272","30.63","DUALSPOT-UV-BLUE-GREEN-RED-IR","688023","690907","905627","21.212214","6.222715","0.002741","692991","882968","763267","15.042768","4.011572","0.000548","794952","892795","814663","12.392914","3.106355","-0.005615","796774","913618","861131","9.795289","2.258473","-0.019307","695836","844383","953751","7.188585","1.816079","-0.014412","6841","7139","7263","6983","7026","7041","6866","6531","6419","6794","5962","5713","6533","6075","5920",""
"MA200-0416","23013","63","1","1.10","1.4","2023-05-11T10:14:30","120","2023/05/11","10:14:30","-15.785732805728912","35.02703149244189","17.2","15","30","64","82","-21976","10680","-5460","10","150","150.16","115.12","35.04","31.00","41.3","16.31","90136","30.63","DUALSPOT-UV-BLUE-GREEN-RED-IR","685987","690037","905339","21.479096","6.312725","0.006169","691558","882514","763442","15.274237","4.084592","0.003089","792609","891400","813880","12.596499","3.168594","0.000444","795204","912869","860871","9.967684","2.309310","-0.004269","694659","843636","953259","7.312694","1.851754","-0.011039","13617","15085","15697","14906","15446","15644","14682","14744","14765","15024","14553","14411","15060","14220","13935",""
"MA200-0416","23014","63","1","1.10","1.4","2023-05-11T10:15:00","120","2023/05/11","10:15:00","-15.786263048648834","35.029872661456466","10.2","15","30","64","82","-21092","10604","-5800","10","150","150.29","115.24","35.06","31.00","41.2","16.30","90056","30.63","DUALSPOT-UV-BLUE-GREEN-RED-IR","684916","689234","904469","21.550286","6.336138","0.004777","690089","880928","762208","15.329900","4.101699","0.000891","792568","891638","814195","12.644417","3.181481","-0.014505","795622","913631","861630","10.006406","2.319466","-0.021849","694734","843911","953626","7.339075","1.858906","-0.023238","3628","3922","4045","3580","3617","3630","3452","3051","2917","3371","2906","2766","3198","2850","2732",""
"MA200-0416","23015","63","1","1.10","1.4","2023-05-11T10:15:30","120","2023/05/11","10:15:30","-15.78639531135559","35.03130849450827","5.3","15","30","64","81","-21124","11592","-5952","10","150","149.45","115.24","34.21","31.00","41.1","16.25","90004","30.63","DUALSPOT-UV-BLUE-GREEN-RED-IR","683460","687900","902782","21.578892","6.346781","0.012235","689223","879949","761389","15.351651","4.108894","0.008783","791489","890507","813218","12.662469","3.188359","0.021695","792888","910524","858762","10.019715","2.323537","0.003795","693092","841965","951452","7.347053","1.860239","-0.192548","1458","1827","1981","1399","1559","1617","1300","1669","1793","1158","1193","1204","967","544","400",""
"MA200-0416","23016","63","1","1.10","1.4","2023-05-11T10:16:00","120","2023/05/11","10:16:00","-15.786575853824615","35.03313499689102","2.8","15","30","64","81","-21412","9980","-5528","10","150","150.21","115.17","35.05","31.00","41.0","16.20","89888","30.63","DUALSPOT-UV-BLUE-GREEN-RED-IR","685302","689892","905520","21.612842","6.359735","0.012244","690733","882030","763258","15.376861","4.116708","0.001618","792623","891924","814543","12.683672","3.194415","-0.007050","794666","912686","860801","10.035043","2.327805","-0.012399","694405","843623","953359","7.358347","1.863864","0.009295","1731","2171","2354","1622","1653","1664","1528","1434","1403","1335","1221","1187","1369","1444","1470",""
"MA200-0416","23017","63","1","1.10","1.4","2023-05-11T10:16:30","120","2023/05/11","10:16:30","-15.787002384662628","35.03465949371457","9.3","15","30","64","82","-21932","11300","-3287","10","150","150.16","115.24","34.93","31.01","40.9","16.17","89744","30.63","DUALSPOT-UV-BLUE-GREEN-RED-IR","685088","689838","905537","21.644460","6.369919","0.003768","690707","882175","763402","15.400283","4.122650","-0.018578","792328","891735","814433","12.703876","3.199946","-0.011681","794865","913031","861194","10.052838","2.333206","0.000154","694683","844060","953880","7.368379","1.865305","-0.323430","1611","1712","1754","1506","1261","1171","1455","1314","1267","1549","1551","1551","1216","576","359",""
"MA200-0416","23018","63","1","1.10","1.4","2023-05-11T10:17:00","120","2023/05/11","10:17:00","-15.787206649780273","35.03514216095209","0.1","15","30","64","81","-21872","10796","-4376","10","150","149.90","115.75","34.14","31.02","40.8","16.15","89716","30.63","DUALSPOT-UV-BLUE-GREEN-RED-IR","683180","688064","903306","21.676564","6.380451","0.006331","689629","880950","762413","15.425411","4.131078","0.010225","790822","890163","813015","12.724291","3.205954","-0.000241","792937","910885","859219","10.068440","2.336197","-0.083103","693076","842160","951747","7.379919","1.868727","0.000999","1628","1811","1888","1609","1830","1910","1464","1460","1459","1352","879","736","1392","1400","1402",""
"MA200-0416","23019","63","1","1.10","1.4","2023-05-11T10:17:30","120","2023/05/11","10:17:30","-15.78720498085022","35.03515265882015","0.0","15","30","64","82","-21608","10660","-5532","10","150","150.09","115.67","34.42","31.02","40.8","16.15","89712","30.63","DUALSPOT-UV-BLUE-GREEN-RED-IR","684858","689976","905934","21.722860","6.395948","0.006921","689745","881326","762796","15.458033","4.139274","-0.017487","792077","891711","814515","12.751245","3.213381","-0.008612","795592","914113","862277","10.089020","2.340841","-0.045560","694618","844107","953979","7.394212","1.871731","-0.087672","2350","2644","2766","2090","1764","1645","1934","1791","1743","1784","1353","1222","1726","1219","1047",""
"MA200-0416","23020","63","1","1.10","1.4","2023-05-11T10:18:00","120","2023/05/11","10:18:00","-15.7871955037117","35.03514649346471","0.1","15","30","64","81","-21684","10980","-5016","10","150","150.23","114.92","35.31","31.04","40.8","16.16","89716","30.69","DUALSPOT-UV-BLUE-GREEN-RED-IR","685271","690537","906830","21.758288","6.409313","0.011217","690967","883025","764354","15.485695","4.148328","0.005284","792651","892567","815331","12.773840","3.218858","-0.030785","795497","914136","862357","10.106669","2.345604","-0.018649","694806","844448","954402","7.405657","1.875584","0.015339","1810","2223","2395","1784","1900","1943","1632","1287","1171","1540","1353","1296","1391","1524","1569",""
"MA200-0416","23021","63","1","1.10","1.4","2023-05-11T10:18:30","120","2023/05/11","10:18:30","-15.787196516990662","35.03513615950942","0.1","15","30","64","81","-21700","10932","-3704","10","150","150.11","115.38","34.72","31.05","40.8","16.17","89720","30.69","DUALSPOT-UV-BLUE-GREEN-RED-IR","684785","690224","906544","21.795188","6.422760","0.010559","691058","883290","764652","15.509577","4.155653","0.001647","792009","891986","814862","12.795373","3.224706","-0.011728","795879","914721","862932","10.123638","2.350461","-0.006704","694748","844461","954440","7.418478","1.879396","-0.002221","1878","2274","2439","1534","1563","1574","1549","1398","1347","1475","1403","1381","1552","1533","1527",""
"MA200-0416","23022","63","1","1.10","1.4","2023-05-11T10:19:00","120","2023/05/11","10:19:00","-15.787197172641754","35.03512416034937","0.0","15","30","72","81","-21658","10975","-5641","10","150","149.83","115.51","34.32","31.06","40.8","16.18","89720","30.69","DUALSPOT-UV-BLUE-GREEN-RED-IR","685890","691580","908484","21.848256","6.441631","0.009997","691331","883913","765269","15.550209","4.168701","0.006405","792849","893137","815981","12.826370","3.234379","0.004928","690067","793250","748377","10.147552","2.357072","-0.009809","695298","845221","955323","7.434293","1.882846","-0.074271","2698","3230","3452","2607","2818","2896","2227","2340","2378","2076","1932","1888","1912","1404","1232",""
"MA200-0416","23023","63","1","1.10","1.4","2023-05-11T10:19:30","120","2023/05/11","10:19:30","-15.787203550338745","35.03512132540345","0.0","15","30","64","81","-21940","10764","-4428","10","150","149.54","115.33","34.21","31.07","40.8","16.19","89716","30.69","DUALSPOT-UV-BLUE-GREEN-RED-IR","685737","691664","908772","21.901572","6.459623","0.007459","686818","878370","760565","15.589445","4.180462","0.000901","792157","892555","815555","12.863132","3.245537","0.002345","796526","915776","864059","10.175053","2.364217","-0.018925","695323","845352","955532","7.453087","1.887427","-0.042088","2715","3089","3245","2521","2548","2557","2646","2707","2728","2392","2095","2006","2276","1870","1732",""
"MA200-0416","23024","63","1","1.10","1.4","2023-05-11T10:20:00","120","2023/05/11","10:20:00","-15.787198841571808","35.035110991448164","0.0","15","30","64","81","-21788","10716","-5132","10","150","150.40","115.70","34.70","31.08","40.8","16.19","89720","30.75","DUALSPOT-UV-BLUE-GREEN-RED-IR","685731","691881","909227","21.954502","6.478134","0.008679","690721","883622","765190","15.630256","4.192543","-0.001155","793283","893980","816940","12.893375","3.253608","-0.013422","797798","917407","865657","10.200957","2.370840","-0.023358","691572","840886","950545","7.470356","1.891954","-0.027174","2687","3133","3319","2614","2581","2568","2170","1930","1850","2246","1914","1814","2085","1822","1733",""
"MA200-0416","23025","63","1","1.10","1.4","2023-05-11T10:20:30","120","2023/05/11","10:20:30","-15.787203848361969","35.035111989825964","0.1","15","30","64","81","-21820","10720","-5212","10","150","149.96","114.88","35.09","31.10","40.8","16.20","89720","30.75","DUALSPOT-UV-BLUE-GREEN-RED-IR","686334","692674","910394","21.995468","6.492269","0.007070","687626","879805","761938","15.655971","4.200054","-0.004060","793071","893925","816942","12.917439","3.259932","-0.017769","797155","916819","865127","10.217813","2.374464","-0.061432","695676","845964","956295","7.482692","1.895271","-0.025508","2094","2366","2480","1659","1586","1560","1739","1496","1414","1472","1036","904","1500","1320","1259",""
"MA200-0416","23026","63","1","1.10","1.4","2023-05-11T10:21:00","120","2023/05/11","10:21:00","-15.787294685840607","35.03530032560229","5.4","15","30","64","81","-21384","11500","-5140","10","150","149.83","114.80","35.03","31.11","40.7","16.20","89696","30.75","DUALSPOT-UV-BLUE-GREEN-RED-IR","685724","692274","910011","22.041946","6.508219","0.006811","687102","879362","761641","15.690662","4.211288","0.004924","792432","893388","816460","12.942836","3.266096","-0.029132","798239","918203","866461","10.238138","2.379751","-0.023270","691711","841209","950940","7.496668","1.898397","-0.074226","2378","2674","2798","2240","2377","2427","1836","1460","1333","1776","1514","1434","1700","1246","1092",""
"MA200-0416","23027","63","1","1.10","1.4","2023-05-11T10:21:30","120","2023/05/11","10:21:30","-15.787583351135254","35.03590615838766","1.0","15","30","64","81","-21076","12444","-4476","10","150","149.49","115.14","34.34","31.13","40.7","16.19","89668","30.75","DUALSPOT-UV-BLUE-GREEN-RED-IR","680116","686816","902971","22.083936","6.522718","0.008281","687719","880306","762521","15.719249","4.218572","-0.015834","793198","894404","817500","12.966629","3.273087","-0.001563","797865","917903","866226","10.256824","2.384227","-0.033614","691594","841188","950943","7.509998","1.901820","-0.030499","2141","2479","2621","1840","1572","1473","1715","1690","1681","1628","1307","1210","1617","1392","1315",""
"MA200-0416","23028","63","1","1.10","1.4","2023-05-11T10:22:00","120","2023/05/11","10:22:00","-15.787266075611115","35.035071156919","5.8","15","30","64","81","-22972","7879","-5700","10","150","149.73","115.03","34.70","31.14","40.6","16.17","89708","30.75","DUALSPOT-UV-BLUE-GREEN-RED-IR","679572","686788","903280","22.192826","6.559440","0.006459","687556","880673","763012","15.802565","4.242307","-0.005216","792924","894609","817842","13.039741","3.292333","-0.015759","790667","910065","858992","10.315753","2.398144","-0.038251","691525","841389","951298","7.552324","1.911915","-0.051582","5560","6215","6490","5369","5070","4960","5276","4604","4377","5139","4023","3685","5140","4063","3699",""
"MA200-0416","23029","63","1","1.10","1.4","2023-05-11T10:22:30","120","2023/05/11","10:22:30","-15.786697506904602","35.03360799327493","4.2","15","30","64","81","-21741","8316","-5166","10","150","149.66","115.38","34.28","31.14","40.5","16.14","89844","30.75","DUALSPOT-UV-BLUE-GREEN-RED-IR","684085","692272","911162","22.403638","6.632446","0.008495","685973","879693","762673","15.984753","4.303556","0.009536","790618","892980","816756","13.200382","3.341728","0.003375","796210","917266","866114","10.452500","2.440172","0.004101","690185","840322","950353","7.653564","1.942634","0.003603","10732","12507","13254","11706","13244","13811","11559","11961","12098","11891","12299","12423","12257","12517","12605",""
"MA200-0416","23030","63","1","1.10","1.4","2023-05-11T10:23:00","120","2023/05/11","10:23:00","-15.786506652832031","35.03221633285284","4.0","15","30","64","81","-23616","7072","-4552","10","150","150.11","115.14","34.97","31.14","40.4","16.10","89952","30.75","DUALSPOT-UV-BLUE-GREEN-RED-IR","683516","691849","910746","22.444144","6.648546","0.013589","685304","878996","762110","16.013992","4.312641","0.001905","790575","893089","816919","13.226651","3.350311","0.006972","795628","916734","865643","10.472289","2.444201","-0.071998","690363","840621","950740","7.668735","1.946961","-0.011586","2066","2704","2972","1882","1925","1941","1894","2037","2086","1724","1156","983","1840","1728","1690",""
"MA200-0416","23031","63","1","1.10","1.4","2023-05-11T10:23:30","120","2023/05/11","10:23:30","-15.785885035991669","35.03255916014314","4.4","15","30","64","81","-20688","12496","-6920","10","150","149.34","115.21","34.13","31.14","40.4","16.09","89880","30.75","DUALSPOT-UV-BLUE-GREEN-RED-IR","682925","691503","910462","22.490992","6.664913","0.009034","684794","878571","761824","16.048225","4.323322","0.004237","790121","892766","816667","13.254319","3.358769","0.003104","795372","916583","865561","10.493874","2.450513","-0.001616","694292","845528","956330","7.684429","1.949228","-0.284958","2388","2816","2997","2202","2320","2363","1993","2057","2079","1879","1855","1848","1902","927","596",""
"MA200-0416","23032","63","1","1.10","1.4","2023-05-11T10:24:00","120","2023/05/11","10:24:00","-15.786065816879272","35.033754996955395","4.6","15","30","64","81","-20916","11104","-4912","10","150","149.33","115.08","34.25","31.15","40.3","16.08","89776","30.75","DUALSPOT-UV-BLUE-GREEN-RED-IR","682467","691350","910447","22.565176","6.690279","0.007739","684491","878477","761851","16.099360","4.338365","-0.000992","790036","892902","816913","13.295257","3.371178","0.001817","794653","915994","865075","10.526115","2.459067","-0.015693","693919","845195","956006","7.706127","1.955267","-0.012335","3786","4350","4587","3294","3256","3242","2953","3008","3026","2810","2505","2412","2634","2463","2405",""
