"Serial number","Datum ID","Session ID","Data format version","Firmware version","App version","Date / time local","Timezone offset (mins)","Date local (yyyy/MM/dd)","Time local (hh:mm:ss)","GPS lat (ddmm.mmmmm)","GPS long (dddmm.mmmmm)","GPS speed (km/h)","GPS sat count","Timebase (s)","Status","Battery remaining (%)","Accel X","Accel Y","Accel Z","Tape position","Flow setpoint (mL/min)","Flow total (mL/min)","Flow1 (mL/min)","Flow2 (mL/min)","Sample temp (C)","Sample RH (%)","Sample dewpoint (C)","Internal pressure (Pa)","Internal temp (C)","Optical config","UV Sen1","UV Sen2","UV Ref","UV ATN1","UV ATN2","UV K","Blue Sen1","Blue Sen2","Blue Ref","Blue ATN1","Blue ATN2","Blue K","Green Sen1","Green Sen2","Green Ref","Green ATN1","Green ATN2","Green K","Red Sen1","Red Sen2","Red Ref","Red ATN1","Red ATN2","Red K","IR Sen1","IR Sen2","IR Ref","IR ATN1","IR ATN2","IR K","UV BC1","UV BC2","UV BCc","Blue BC1","Blue BC2","Blue BCc","Green BC1","Green BC2","Green BCc","Red BC1","Red BC2","Red BCc","IR BC1","IR BC2","IR BCc","Readable status"
"MA200-0420","43083","72","1","1.10","1.6","2023-07-15T12:20:00","120","2023/07/15","12:20:00","0","0","0.0","1","300","66","13","936","-26903","608","14","150","150.15","117.53","32.62","19.41","63.7","12.35","90676","19.00","DUALSPOT-UV-BLUE-GREEN-RED-IR","804048","702679","892603","0.000000","0.000000","0.000000","910742","907969","836900","0.000000","0.000000","0.000000","892284","886451","834628","0.000000","0.000000","0.000000","920189","900884","904901","0.000000","0.000000","0.000000","790188","902341","962755","0.000000","0.000000","0.000000","","","","","","","","","","","","","","","","Start up-DualSpot on"
"MA200-0420","43084","72","1","1.10","1.6","2023-07-15T12:25:00","120","2023/07/15","12:25:00","-15.795605957508087","35.002825166331604","0.3","7","300","64","23","891","-27195","429","14","150","149.91","117.83","32.07","20.88","61.8","13.29","90712","23.00","DUALSPOT-UV-BLUE-GREEN-RED-IR","845911","743820","948463","0.000000","0.000000","0.000000","906123","906100","836796","0.000000","0.000000","0.000000","888745","885134","834767","0.000000","0.000000","0.000000","918853","901269","906557","0.000000","0.000000","0.000000","787458","900727","961882","0.000000","0.000000","0.000000","","","","","","","","","","","","","","","","DualSpot on"
"MA200-0420","43085","72","1","1.10","1.6","2023-07-15T12:30:00","120","2023/07/15","12:30:00","-15.795660316944122","35.002816332736984","0.0","11","300","64","24","933","-27070","733","14","150","150.15","117.74","32.41","22.16","58.6","13.66","90712","24.25","DUALSPOT-UV-BLUE-GREEN-RED-IR","815700","720880","921665","0.772874","0.266258","0.000000","904794","907187","838951","0.410443","0.144290","0.000000","886315","884664","835251","0.335854","0.116080","0.000000","901926","886143","892223","0.271743","0.102231","0.000000","786559","901312","963111","0.242385","0.064957","0.000000","3855","4825","3855","2584","3300","2584","2368","2973","2368","2315","3164","2315","2875","2800","2875","DualSpot on"
"MA200-0420","43086","72","1","1.10","1.6","2023-07-15T12:35:00","120","2023/07/15","12:35:00","-15.795585334300995","35.00287399953231","0.1","12","300","64","25","792","-26888","528","14","150","149.60","117.20","32.40","23.21","56.0","13.94","90700","25.25","DUALSPOT-UV-BLUE-GREEN-RED-IR","797308","706749","904450","1.176171","0.366077","0.000000","900108","903592","835808","0.553417","0.166433","0.000000","880489","879614","830496","0.422292","0.114965","0.000000","902306","886986","893015","0.316762","0.096638","0.000000","788194","903899","965632","0.299005","0.038490","0.000000","2021","1809","2021","904","506","904","612","-28","612","385","-173","385","674","-1141","674","DualSpot on"
"MA200-0420","43087","72","1","1.10","1.6","2023-07-15T12:40:00","120","2023/07/15","12:40:00","-15.795749962329865","35.00265733292326","0.3","11","300","64","26","912","-27096","288","14","150","150.46","117.50","32.96","24.03","53.9","14.13","90696","25.94","DUALSPOT-UV-BLUE-GREEN-RED-IR","795445","707630","906689","1.654758","0.484155","0.000000","900830","905842","838290","0.770854","0.219023","0.000000","879332","879584","830666","0.575053","0.141829","0.000000","895180","880710","886850","0.419801","0.115878","0.000000","789207","905989","967840","0.394140","0.036568","0.000000","2392","2104","2392","1371","1182","1371","1079","676","1079","879","585","879","1131","-81","1131","DualSpot on"
"MA200-0420","43088","72","1","1.10","1.6","2023-07-15T12:45:00","120","2023/07/15","12:45:00","-15.795673608779907","35.00271683302708","0.2","11","300","64","27","963","-27140","748","14","150","149.71","116.56","33.15","24.89","52.8","14.59","90684","26.94","DUALSPOT-UV-BLUE-GREEN-RED-IR","793149","708133","908569","2.144150","0.615600","0.000000","899619","906135","838979","0.982755","0.263619","0.000000","877639","879027","830337","0.727045","0.165909","0.000000","894186","880505","886859","0.528746","0.137440","0.000000","785245","902309","963916","0.494356","0.037535","0.000000","2466","2328","2466","1347","997","1347","1082","603","1082","937","652","937","1201","40","1201","DualSpot on"
"MA200-0420","43089","72","1","1.10","1.6","2023-07-15T12:50:00","120","2023/07/15","12:50:00","-15.795653223991394","35.0028061659541","0.1","11","300","64","28","980","-27275","716","14","150","150.01","116.54","33.47","25.47","50.6","14.46","90680","27.19","DUALSPOT-UV-BLUE-GREEN-RED-IR","785861","704250","904640","2.640055","0.736040","0.000000","893049","901065","834786","1.214068","0.322443","0.000000","877515","880029","831573","0.890439","0.200176","0.000000","895312","882396","888956","0.639236","0.158622","0.000000","783381","900916","962475","0.585563","0.043062","0.000000","2499","2113","2499","1471","1302","1471","1164","849","1164","951","634","951","1093","230","1093","DualSpot on"
"MA200-0420","43090","72","1","1.10","1.6","2023-07-15T12:55:00","120","2023/07/15","12:55:00","-15.795872509479523","35.00273716612719","0.5","11","300","64","31","954","-27025","400","14","150","150.01","116.99","33.02","25.76","49.4","14.35","90680","27.31","DUALSPOT-UV-BLUE-GREEN-RED-IR","786534","708108","910955","3.243732","0.881433","-0.077730","897078","907150","840937","1.502335","0.388186","0.000000","879410","883444","835107","1.099508","0.240504","0.000000","891943","880075","886846","0.781023","0.183856","0.000000","785027","903617","965402","0.676237","0.047442","0.000000","3030","2586","2420","1826","1476","1826","1483","1014","1483","1215","766","1215","1082","185","1082","DualSpot on"
"MA200-0420","43091","72","1","1.10","1.6","2023-07-15T13:00:00","120","2023/07/15","13:00:00","-15.795661330223083","35.00280383275822","0.1","11","300","64","32","980","-27068","548","14","150","149.76","117.06","32.70","25.96","48.3","14.20","90676","27.50","DUALSPOT-UV-BLUE-GREEN-RED-IR","777446","703332","906351","3.904199","1.054227","-0.024315","889359","901477","836363","1.821082","0.469892","0.000000","873678","879258","831642","1.336139","0.296533","0.000000","893266","882512","889614","0.941991","0.220511","0.000000","785143","904507","966521","0.775650","0.060193","0.000000","3313","3104","3026","2018","1852","2018","1678","1422","1678","1379","1124","1379","1186","544","1186","DualSpot on"
"MA200-0420","43092","72","1","1.10","1.6","2023-07-15T13:05:00","120","2023/07/15","13:05:00","-15.795547187328339","35.002775999717414","0.1","10","300","64","35","824","-27091","880","14","150","150.02","116.71","33.31","26.12","47.3","14.03","90664","27.44","DUALSPOT-UV-BLUE-GREEN-RED-IR","776556","705468","910433","4.471534","1.200836","-0.033236","891163","905168","840332","2.094078","0.538313","0.000000","874502","881408","834046","1.536297","0.343513","0.000000","889212","879409","886761","1.075607","0.251110","0.000000","781209","900580","962390","0.853498","0.071390","0.000000","2855","2585","2485","1734","1522","1734","1423","1170","1423","1148","921","1148","931","469","931","DualSpot on"
"MA200-0420","43093","72","1","1.10","1.6","2023-07-15T13:10:00","120","2023/07/15","13:10:00","-15.795656859874725","35.00274599972181","0.1","10","300","64","36","920","-26940","360","14","150","150.15","117.00","33.15","26.18","47.2","14.04","90660","27.56","DUALSPOT-UV-BLUE-GREEN-RED-IR","773072","704701","910493","4.925010","1.314699","-0.037260","888861","904497","840216","2.335727","0.595706","0.000000","873097","881280","834272","1.719337","0.383687","0.000000","888216","879342","886915","1.206767","0.277282","0.000000","781309","901245","963211","0.926279","0.082524","0.000000","2276","2017","1923","1531","1283","1531","1298","1006","1298","1124","792","1124","868","469","868","DualSpot on"
"MA200-0420","43094","72","1","1.10","1.6","2023-07-15T13:15:00","120","2023/07/15","13:15:00","-15.79568099975586","35.00274183298461","0.4","10","300","64","38","950","-27158","633","14","150","150.01","117.03","32.98","26.39","47.7","14.39","90636","28.00","DUALSPOT-UV-BLUE-GREEN-RED-IR","765519","700412","906212","5.437599","1.456079","-0.005475","882321","899519","836114","2.585911","0.656670","0.000000","868165","877566","831104","1.909702","0.427305","0.000000","890062","882047","889941","1.338011","0.309221","0.000000","781726","902315","964503","1.003862","0.096885","0.000000","2572","2518","2498","1584","1370","1584","1350","1098","1350","1125","971","1125","926","608","926","DualSpot on"
"MA200-0420","43095","72","1","1.10","1.6","2023-07-15T13:20:00","120","2023/07/15","13:20:00","-15.79563182592392","35.00277883303352","0.2","11","300","64","40","950","-26962","1087","14","150","149.90","117.54","32.36","26.62","46.8","14.32","90640","28.19","DUALSPOT-UV-BLUE-GREEN-RED-IR","763249","700542","907463","5.863298","1.571264","-0.004085","881709","900367","837346","2.798688","0.709533","0.000000","867046","877563","831430","2.070194","0.464517","0.000000","889392","882153","890263","1.451083","0.334938","0.000000","780452","901450","963692","1.080476","0.109092","0.000000","2127","2090","2077","1341","1211","1341","1133","954","1133","965","797","965","910","527","910","DualSpot on"
"MA200-0420","43096","72","1","1.10","1.6","2023-07-15T13:25:00","120","2023/07/15","13:25:00","-15.795655190944672","35.00270166620612","0.1","12","300","64","40","945","-26825","316","14","150","149.53","116.95","32.58","26.68","46.0","14.11","90620","27.88","DUALSPOT-UV-BLUE-GREEN-RED-IR","755411","696896","904425","6.569683","1.762756","-0.005829","882585","903430","840921","3.127676","0.795841","-0.027159","867993","880057","834283","2.311003","0.524157","0.000000","884989","878870","887300","1.616242","0.372119","0.000000","782414","904386","966955","1.171791","0.123086","0.000000","3547","3451","3416","2085","1963","1922","1709","1519","1709","1416","1144","1416","1090","599","1090","DualSpot on"
"MA200-0420","43097","72","1","1.10","1.6","2023-07-15T13:30:00","120","2023/07/15","13:30:00","-15.795647203922272","35.0027464996092","0.1","12","300","64","42","1068","-27103","792","14","150","150.15","117.18","32.97","26.81","46.8","14.48","90632","28.31","DUALSPOT-UV-BLUE-GREEN-RED-IR","752887","696692","905321","7.004926","1.887327","0.003302","874635","896796","835212","3.351903","0.849813","-0.071586","866813","880030","834573","2.480614","0.562459","0.000000","883889","878635","887316","1.738153","0.400452","0.000000","781321","903631","966287","1.241365","0.135056","0.000000","2181","2219","2233","1418","1213","1144","1201","964","1201","1043","862","1043","829","507","829","DualSpot on"
"MA200-0420","43098","72","1","1.10","1.6","2023-07-15T13:35:00","120","2023/07/15","13:35:00","-15.795707941055298","35.00279283290729","0.0","12","300","64","43","887","-26933","554","14","150","150.01","117.28","32.73","26.89","45.7","14.19","90624","28.13","DUALSPOT-UV-BLUE-GREEN-RED-IR","748079","694845","904191","7.517639","2.028310","-0.002727","877936","901950","840530","3.610909","0.916987","-0.028966","864225","878731","833761","2.679169","0.611889","0.000000","881936","877653","886592","1.877421","0.432202","0.000000","779939","902713","965447","1.328861","0.149627","0.000000","2567","2530","2516","1637","1521","1482","1405","1253","1405","1191","973","1191","1042","621","1042","DualSpot on"
"MA200-0420","43099","72","1","1.10","1.6","2023-07-15T13:40:00","120","2023/07/15","13:40:00","-15.795661985874176","35.00278849969618","0.2","12","300","64","44","884","-26980","612","14","150","150.21","117.35","32.86","26.72","45.4","13.93","90612","27.81","DUALSPOT-UV-BLUE-GREEN-RED-IR","748724","697706","908973","7.960701","2.143987","-0.012795","874257","899637","838870","3.834956","0.974851","-0.030287","861710","877279","832725","2.848762","0.654590","0.000000","886294","882768","891981","1.993161","0.459505","0.000000","778426","901359","964078","1.383428","0.159736","0.000000","2217","2067","2012","1415","1305","1268","1199","1078","1199","989","833","989","649","429","649","DualSpot on"
"MA200-0420","43100","72","1","1.10","1.6","2023-07-15T13:45:00","120","2023/07/15","13:45:00","-15.79569661617279","35.002785332966596","0.1","13","300","64","45","912","-26780","732","14","150","150.15","117.06","33.09","26.62","45.7","13.95","90604","27.88","DUALSPOT-UV-BLUE-GREEN-RED-IR","743542","695159","906772","8.412115","2.269331","-0.002934","870188","897026","836988","4.072410","1.036256","-0.031625","858351","875055","831027","3.031242","0.700604","-0.053809","882901","880239","889711","2.119774","0.489478","0.000000","776958","900060","962807","1.443607","0.173395","0.000000","2265","2225","2210","1503","1375","1332","1294","1154","1112","1085","908","1085","718","576","718","DualSpot on"
"MA200-0420","43101","72","1","1.10","1.6","2023-07-15T13:50:00","120","2023/07/15","13:50:00","-15.795635223388672","35.00277116615325","0.2","13","300","64","47","951","-26968","568","14","150","150.47","117.38","33.10","26.79","46.0","14.19","90608","28.19","DUALSPOT-UV-BLUE-GREEN-RED-IR","741122","696049","909776","9.062826","2.469408","0.012206","869966","899076","839685","4.416513","1.129847","-0.011302","858104","876559","833025","3.301710","0.772094","-0.026934","876658","875282","885196","2.318209","0.541880","0.000000","777352","901373","964525","1.567064","0.204195","0.000000","3256","3550","3661","2173","2096","2069","1913","1793","1756","1696","1588","1696","1469","1300","1469","DualSpot on"
"MA200-0420","43102","72","1","1.10","1.6","2023-07-15T13:55:00","120","2023/07/15","13:55:00","-15.795813977718353","35.00275249942206","0.0","13","300","64","48","941","-26966","479","14","150","149.76","116.74","33.01","26.87","45.5","14.12","90604","28.19","DUALSPOT-UV-BLUE-GREEN-RED-IR","731446","690154","903796","9.722155","2.664072","0.005896","868189","899512","840885","4.767579","1.225274","-0.011525","856484","876704","833745","3.577512","0.843060","-0.037323","876063","876007","886354","2.519763","0.592248","0.000000","776873","901677","965096","1.688383","0.229455","0.000000","3317","3463","3518","2229","2143","2113","1961","1784","1730","1732","1530","1732","1451","1068","1451","DualSpot on"
"MA200-0420","43103","72","1","1.10","1.6","2023-07-15T14:00:00","120","2023/07/15","14:00:00","-15.79564219713211","35.002776166191325","0.2","13","300","64","49","904","-27033","437","14","150","149.87","117.03","32.84","26.91","45.1","14.00","90596","28.00","DUALSPOT-UV-BLUE-GREEN-RED-IR","727748","688930","903488","10.198967","2.804046","0.005866","865150","898109","840213","5.040330","1.302081","0.000933","854350","875879","833477","3.794497","0.903070","-0.005092","881121","882124","892924","2.680609","0.634193","0.000000","775512","900775","964362","1.786926","0.252246","0.000000","2393","2503","2545","1727","1733","1735","1539","1517","1510","1378","1281","1378","1176","969","1176","DualSpot on"
"MA200-0420","43104","72","1","1.10","1.6","2023-07-15T14:05:00","120","2023/07/15","14:05:00","-15.795632481575012","35.002785332966596","0.2","13","300","64","51","916","-26941","470","14","150","149.82","116.98","32.84","26.79","45.0","13.86","90596","27.88","DUALSPOT-UV-BLUE-GREEN-RED-IR","725301","689004","904778","10.678331","2.942096","0.003230","864275","898970","841608","5.304849","1.373064","-0.011918","853705","876583","834557","4.002458","0.956398","-0.032043","874221","876173","887225","2.826918","0.669590","0.000000","776543","902529","966371","1.861156","0.268251","0.000000","2406","2469","2492","1676","1602","1576","1475","1348","1308","1254","1081","1254","886","680","886","DualSpot on"
"MA200-0420","43105","72","1","1.10","1.6","2023-07-15T14:10:00","120","2023/07/15","14:10:00","-15.795703530311584","35.00273766624741","0.1","13","300","64","53","1016","-26937","458","14","150","150.15","116.78","33.36","26.75","44.9","13.79","90592","27.88","DUALSPOT-UV-BLUE-GREEN-RED-IR","721727","687669","904234","11.111898","3.073665","0.007130","861654","897744","841012","5.541664","1.439148","-0.005835","852028","876007","834474","4.187107","1.006722","-0.015391","872859","875668","887026","2.961145","0.705543","0.000000","775675","901985","965978","1.934940","0.286875","0.000000","2180","2316","2368","1503","1468","1456","1312","1252","1233","1153","1081","1153","882","779","882","DualSpot on"
"MA200-0420","43106","72","1","1.10","1.6","2023-07-15T14:15:00","120","2023/07/15","14:15:00","-15.795632362365723","35.002760166535154","0.0","13","300","64","54","962","-26962","350","14","150","150.21","117.16","33.06","26.60","44.8","13.60","90584","27.69","DUALSPOT-UV-BLUE-GREEN-RED-IR","724089","691738","910549","11.479826","3.177333","-0.000175","858727","896155","840037","5.762810","1.499336","-0.008733","849809","874852","833748","4.361683","1.054925","-0.006683","871093","874760","886366","3.087898","0.737064","-0.059822","775497","902226","966356","1.997386","0.300906","0.000000","1844","1841","1840","1399","1349","1332","1237","1210","1202","1085","956","916","744","592","744","DualSpot on"
"MA200-0420","43107","72","1","1.10","1.6","2023-07-15T14:20:00","120","2023/07/15","14:20:00","-15.795569837093353","35.002811999525875","0.2","12","300","64","56","928","-26968","556","14","150","150.21","117.05","33.16","26.64","45.2","13.78","90580","27.75","DUALSPOT-UV-BLUE-GREEN-RED-IR","719552","689449","908790","11.915716","3.316017","0.012224","854609","893409","838051","6.007445","1.568311","-0.001084","846332","872498","831953","4.556989","1.108872","-0.007496","874346","878901","890900","3.229387","0.774249","-0.032554","772885","899772","963943","2.081855","0.321314","0.000000","2187","2456","2560","1549","1541","1539","1385","1350","1339","1212","1125","1097","1008","859","1008","DualSpot on"
"MA200-0420","43108","72","1","1.10","1.6","2023-07-15T14:25:00","120","2023/07/15","14:25:00","-15.795712649822235","35.00274149957113","0.1","12","300","64","57","904","-26968","384","14","150","149.67","116.83","32.84","26.46","45.0","13.57","90576","27.44","DUALSPOT-UV-BLUE-GREEN-RED-IR","714077","686001","905187","12.278137","3.420951","0.003242","850245","890223","835557","6.220216","1.627641","-0.001789","843096","870221","830171","4.725313","1.153731","-0.015648","870423","875767","887998","3.352030","0.806516","-0.027522","775915","903723","968284","2.142934","0.336001","0.000000","1822","1876","1897","1350","1339","1335","1196","1133","1113","1053","985","964","730","624","730","DualSpot on"
"MA200-0420","43109","72","1","1.10","1.6","2023-07-15T14:30:00","120","2023/07/15","14:30:00","-15.795618891716003","35.00277299946174","0.1","13","300","64","59","1083","-26833","-683","14","150","150.21","116.25","33.97","26.28","45.0","13.42","90584","27.13","DUALSPOT-UV-BLUE-GREEN-RED-IR","711672","685500","905591","12.666109","3.539943","0.005084","849116","890526","836416","6.453299","1.696968","0.003667","841998","870257","830682","4.914272","1.209634","0.003307","869845","876074","888665","3.491080","0.844114","-0.031289","771798","899394","963900","2.217405","0.357666","0.000000","1960","2057","2095","1486","1512","1522","1349","1366","1371","1200","1110","1081","894","890","894","DualSpot on"
"MA200-0420","43110","72","1","1.10","1.6","2023-07-15T14:35:00","120","2023/07/15","14:35:00","-15.795676529407501","35.00273233279586","0.1","13","300","64","61","928","-26980","592","14","150","149.72","116.44","33.28","26.08","45.2","13.29","90584","27.00","DUALSPOT-UV-BLUE-GREEN-RED-IR","709596","685183","906143","13.016058","3.647020","0.006856","847835","890476","836858","6.661737","1.758468","0.006311","840884","870123","830943","5.080265","1.258582","0.007955","869203","876197","889093","3.611460","0.878158","-0.003917","772279","900313","965048","2.274767","0.374928","0.000000","1765","1889","1938","1327","1369","1385","1183","1221","1233","1037","1026","1022","688","724","688","DualSpot on"
"MA200-0420","43111","72","1","1.10","1.6","2023-07-15T14:40:00","120","2023/07/15","14:40:00","-15.795643389225006","35.00275699957274","0.2","13","300","64","63","1048","-27272","1340","14","150","150.15","116.67","33.48","26.11","45.7","13.49","90596","27.25","DUALSPOT-UV-BLUE-GREEN-RED-IR","704549","682908","904776","13.574158","3.826812","0.010740","843681","888309","835679","7.007223","1.855784","-0.003679","837629","868520","830073","5.360681","1.336658","-0.007712","866372","874654","888045","3.821518","0.935472","-0.018251","770430","898929","963881","2.394426","0.407875","0.000000","2809","3154","3289","2195","2154","2140","1995","1936","1916","1806","1717","1688","1432","1374","1432","DualSpot on"
"MA200-0420","43112","72","1","1.10","1.6","2023-07-15T14:45:00","120","2023/07/15","14:45:00","-15.795614838600159","35.00278633297421","0.2","13","300","64","65","944","-27156","460","14","150","150.08","116.70","33.38","26.12","45.4","13.40","90596","27.06","DUALSPOT-UV-BLUE-GREEN-RED-IR","703697","684708","908808","14.138939","4.006469","0.009577","845571","892197","840059","7.309174","1.944202","0.004304","838896","871293","833261","5.595815","1.402181","-0.006334","869191","878617","892415","3.991547","0.978446","-0.045621","767737","896463","961447","2.492712","0.431332","0.000000","2842","3161","3287","1918","1963","1980","1672","1629","1615","1461","1291","1236","1176","981","1176","DualSpot on"
"MA200-0420","43113","72","1","1.10","1.6","2023-07-15T14:50:00","120","2023/07/15","14:50:00","-15.795676350593567","35.00272583286278","0.2","14","300","64","67","940","-27352","1252","14","150","149.63","116.71","32.92","26.10","45.5","13.42","90592","27.13","DUALSPOT-UV-BLUE-GREEN-RED-IR","698905","682434","907261","14.654385","4.171356","0.010769","841236","889298","837950","7.570731","2.017009","-0.002418","836020","869606","832107","5.797529","1.455647","-0.015120","866143","876452","890550","4.132090","1.015286","-0.025055","766054","895021","960066","2.568576","0.449553","0.000000","2594","2941","3080","1661","1639","1631","1434","1348","1319","1208","1122","1094","908","773","908","DualSpot on"
"MA200-0420","43114","72","1","1.10","1.6","2023-07-15T14:55:00","120","2023/07/15","14:55:00","-15.795664668083191","35.00272566615604","0.1","14","300","64","69","895","-26962","483","14","150","149.69","116.90","32.79","26.22","45.7","13.60","90588","27.31","DUALSPOT-UV-BLUE-GREEN-RED-IR","695292","680805","906275","15.063446","4.300907","0.010165","838269","887624","836880","7.798594","2.078247","-0.007749","833241","867851","830828","5.976921","1.502883","-0.014891","863371","874490","888858","4.261651","1.047934","-0.036512","769033","899051","964579","2.647819","0.467188","0.000000","2055","2320","2426","1444","1384","1362","1274","1196","1169","1111","999","962","946","751","946","DualSpot on"
"MA200-0420","43115","72","1","1.10","1.6","2023-07-15T15:00:00","120","2023/07/15","15:00:00","-15.795544505119324","35.002818499458954","0.1","14","300","64","71","994","-26880","-25","14","150","149.60","116.33","33.27","26.34","45.9","13.77","90584","27.38","DUALSPOT-UV-BLUE-GREEN-RED-IR","690693","678626","904880","15.575035","4.465282","0.009468","834610","885501","835531","8.071487","2.155792","-0.001104","835446","871563","834806","6.190908","1.559102","-0.019728","860881","872990","887681","4.416426","1.087780","-0.034588","766854","897144","962724","2.739721","0.487219","0.000000","2583","2901","3029","1739","1727","1723","1527","1402","1360","1334","1201","1157","1103","841","1103","DualSpot on"
"MA200-0420","43116","72","1","1.10","1.6","2023-07-15T15:05:00","120","2023/07/15","15:05:00","-15.795571327209473","35.00280483276583","0.1","13","300","64","72","950","-27012","504","14","150","150.15","116.41","33.73","26.38","45.8","13.77","90576","27.44","DUALSPOT-UV-BLUE-GREEN-RED-IR","687121","676723","903275","15.920757","4.572534","0.005656","831800","883781","834332","8.267896","2.207112","-0.018740","833016","870011","833636","6.345274","1.597166","-0.039218","858547","871362","886286","4.528598","1.114548","-0.067525","765143","895623","961251","2.809499","0.502007","0.000000","1744","1867","1916","1250","1127","1082","1100","936","881","966","796","740","837","612","837","DualSpot on"
"MA200-0420","43117","72","1","1.10","1.6","2023-07-15T15:10:00","120","2023/07/15","15:10:00","-15.795685350894928","35.00268083321862","0.1","13","300","64","74","945","-27008","550","14","150","150.30","116.37","33.92","26.50","45.8","13.87","90572","27.50","DUALSPOT-UV-BLUE-GREEN-RED-IR","687487","678468","906513","16.225229","4.672209","0.009077","832900","886081","836894","8.440999","2.255380","-0.007474","829090","866774","830835","6.481197","1.632577","-0.025559","861380","874902","890106","4.628935","1.138241","-0.072741","766334","897511","963361","2.874950","0.514943","0.000000","1536","1725","1802","1102","1054","1037","969","866","831","865","700","647","785","532","785","DualSpot on"
"MA200-0420","43118","72","1","1.10","1.6","2023-07-15T15:15:00","120","2023/07/15","15:15:00","-15.795702338218689","35.0027221662458","0.1","13","300","64","76","945","-26987","366","14","150","150.21","116.59","33.62","26.39","45.0","13.51","90584","27.06","DUALSPOT-UV-BLUE-GREEN-RED-IR","685343","677679","906230","16.509094","4.758840","0.004576","831440","885534","836774","8.604755","2.304732","0.006724","827837","866257","830670","6.609925","1.670181","0.002561","860160","874261","889660","4.720125","1.162511","-0.024180","766506","898069","964075","2.924718","0.524016","0.000000","1430","1513","1546","1041","1088","1105","916","928","932","784","724","704","596","376","596","DualSpot on"
"MA200-0420","43119","72","1","1.10","1.6","2023-07-15T15:20:00","120","2023/07/15","15:20:00","-15.79567551612854","35.0027151661925","0.1","12","300","64","79","896","-27032","596","14","150","150.60","116.90","33.70","26.13","45.2","13.32","90576","26.88","DUALSPOT-UV-BLUE-GREEN-RED-IR","681853","675411","903893","16.755848","4.833524","0.003914","834841","890117","841485","8.756992","2.348923","0.001075","826558","865665","830377","6.730183","1.704532","-0.001840","858315","872914","888475","4.806069","1.185707","-0.019234","766254","898008","964065","2.961458","0.535201","0.000000","1239","1301","1326","965","972","974","854","846","843","737","690","675","439","463","439","DualSpot on"
"MA200-0420","43120","72","1","1.10","1.6","2023-07-15T15:25:00","120","2023/07/15","15:25:00","-15.795685529708862","35.00275999982841","0.1","12","300","64","80","1004","-27016","1154","14","150","150.21","116.62","33.60","26.12","46.1","13.63","90576","27.13","DUALSPOT-UV-BLUE-GREEN-RED-IR","683253","678573","909326","17.149874","4.963756","0.010011","830401","887037","839165","9.014510","2.421093","-0.004284","827534","868047","833175","6.945341","1.764130","-0.007831","860696","876405","892452","4.972170","1.231896","-0.009736","768425","901208","967832","3.062702","0.563529","-0.011929","1984","2276","2395","1637","1592","1576","1531","1472","1452","1428","1379","1362","1212","1177","1170","DualSpot on"
"MA200-0420","43121","72","1","1.10","1.6","2023-07-15T15:30:00","120","2023/07/15","15:30:00","-15.795660555362701","35.00272599956952","0.2","13","300","64","82","1044","-26973","161","14","150","150.34","116.43","33.91","26.16","45.9","13.57","90572","27.00","DUALSPOT-UV-BLUE-GREEN-RED-IR","680931","678063","909884","17.553850","5.098989","0.009901","829538","887582","840285","9.252622","2.493137","0.005443","826447","868060","833666","7.137332","1.820451","0.001326","853650","870113","886388","5.117144","1.270735","-0.023355","763505","896018","962446","3.152214","0.586216","-0.060215","2037","2342","2466","1516","1574","1596","1369","1378","1382","1249","1149","1115","1073","934","902","DualSpot on"
"MA200-0420","43122","72","1","1.10","1.6","2023-07-15T15:35:00","120","2023/07/15","15:35:00","-15.795631170272827","35.002740166382864","0.5","13","300","64","84","896","-26763","-252","14","150","149.81","116.29","33.52","26.07","45.3","13.30","90560","26.81","DUALSPOT-UV-BLUE-GREEN-RED-IR","676359","674780","906235","17.826230","5.186172","0.007563","824880","883613","836982","9.419516","2.544534","0.009104","822810","865054","831082","7.271410","1.859676","0.002719","854940","872036","888565","5.215732","1.298560","-0.005465","765017","898179","964915","3.207363","0.599623","-0.074346","1375","1527","1590","1063","1136","1163","957","971","976","850","832","826","662","558","534","DualSpot on"
"MA200-0420","43123","72","1","1.10","1.6","2023-07-15T15:40:00","120","2023/07/15","15:40:00","-15.795658707618713","35.002778333146125","0.2","13","300","64","86","912","-26875","152","14","150","149.95","116.39","33.56","25.98","45.3","13.22","90564","26.81","DUALSPOT-UV-BLUE-GREEN-RED-IR","677730","677269","910313","18.070054","5.264532","0.007698","827188","887007","840572","9.568821","2.587485","-0.000341","824481","867574","833790","7.392648","1.893950","-0.003670","851785","869430","886131","5.305389","1.320912","-0.041464","762953","896134","962817","3.257597","0.612660","-0.043089","1230","1371","1429","950","948","947","864","847","841","772","668","633","602","542","528","DualSpot on"
"MA200-0420","43124","72","1","1.10","1.6","2023-07-15T15:45:00","120","2023/07/15","15:45:00","-15.795604944229126","35.00276749976911","0.2","12","300","64","88","748","-27180","1696","14","150","149.97","116.60","33.36","25.98","45.5","13.30","90568","26.88","DUALSPOT-UV-BLUE-GREEN-RED-IR","676394","677011","910618","18.303254","5.341509","0.009739","827487","888206","842029","9.710464","2.627736","-0.000978","824123","867885","834356","7.505887","1.925755","-0.003383","851797","869944","886868","5.389131","1.345469","0.005947","763148","896632","963503","3.306211","0.624074","-0.085932","1174","1355","1429","900","894","892","806","791","786","720","738","744","582","477","453","DualSpot on"
"MA200-0420","43125","72","1","1.10","1.6","2023-07-15T15:50:00","120","2023/07/15","15:50:00","-15.795633256435394","35.00273466622457","0.2","12","300","64","90","895","-26987","587","14","150","150.02","116.55","33.47","25.96","45.0","13.09","90560","26.63","DUALSPOT-UV-BLUE-GREEN-RED-IR","670354","671972","904547","18.533664","5.414587","0.006937","819730","880760","835320","9.848639","2.668934","0.005065","819522","863756","830633","7.616801","1.957750","0.000796","853021","871719","888856","5.467801","1.365012","-0.040100","764419","898448","965532","3.351207","0.634001","-0.119411","1161","1282","1332","878","912","925","790","793","794","677","585","555","539","414","385","DualSpot on"
"MA200-0420","43126","72","1","1.10","1.6","2023-07-15T15:55:00","120","2023/07/15","15:55:00","-15.795679688453674","35.0027123328764","0.3","12","300","64","92","954","-27058","758","14","150","149.63","116.11","33.51","25.75","44.5","12.76","90572","26.25","DUALSPOT-UV-BLUE-GREEN-RED-IR","673556","676308","911055","18.771884","5.488134","0.004777","824872","887210","841821","9.997028","2.715242","0.010035","818261","863119","830344","7.734019","1.994115","0.011849","852068","871250","888600","5.553743","1.389641","-0.001719","764782","899119","966391","3.392547","0.647250","0.035388","1205","1289","1323","947","1024","1053","838","900","922","742","737","735","497","552","565","DualSpot on"
"MA200-0420","43127","72","1","1.10","1.6","2023-07-15T16:00:00","120","2023/07/15","16:00:00","-15.795668244361877","35.002703999402","0.3","13","300","64","94","841","-26937","483","14","150","150.08","116.54","33.54","25.58","44.6","12.63","90568","26.13","DUALSPOT-UV-BLUE-GREEN-RED-IR","667607","671553","905474","19.046362","5.582201","0.011153","818353","881219","836610","10.172909","2.771186","0.012410","818561","864287","831845","7.879051","2.040201","0.015621","853382","873285","890982","5.662755","1.422837","0.012694","761458","895565","962770","3.450391","0.665676","0.033847","1383","1647","1756","1118","1236","1280","1033","1140","1178","938","992","1011","693","767","785","DualSpot on"
"MA200-0420","43128","72","1","1.10","1.6","2023-07-15T16:05:00","120","2023/07/15","16:05:00","-15.795630037784576","35.0027749997098","0.2","13","300","64","95","941","-26962","429","14","150","150.08","116.33","33.75","25.57","45.1","12.78","90580","26.38","DUALSPOT-UV-BLUE-GREEN-RED-IR","667794","673052","908401","19.338786","5.679878","0.009119","819390","883519","839267","10.360454","2.826130","0.001270","819771","866506","834351","8.032278","2.082807","-0.007424","848257","868753","886626","5.777717","1.455266","-0.006681","762877","897704","965227","3.518421","0.685951","0.009281","1476","1699","1792","1195","1206","1211","1093","1047","1032","991","963","954","816","839","844","DualSpot on"
"MA200-0420","43129","72","1","1.10","1.6","2023-07-15T16:10:00","120","2023/07/15","16:10:00","-15.795644700527191","35.00276116630994","0.2","13","300","64","96","941","-27045","558","14","150","149.90","116.33","33.57","25.65","45.3","12.92","90584","26.38","DUALSPOT-UV-BLUE-GREEN-RED-IR","661997","669065","904234","19.747012","5.816068","0.009180","813687","879044","835672","10.625689","2.904683","0.003300","814391","862222","830744","8.256010","2.146685","-0.001743","848675","870337","888673","5.954067","1.503552","-0.012318","763112","898810","966745","3.640962","0.716654","-0.053851","2061","2383","2517","1690","1734","1751","1596","1579","1574","1520","1443","1416","1471","1277","1230","DualSpot on"
"MA200-0420","43130","72","1","1.10","1.6","2023-07-15T16:15:00","120","2023/07/15","16:15:00","-15.795637726783752","35.002780833048746","0.2","13","300","64","97","980","-26963","492","14","150","149.84","116.41","33.43","25.64","44.2","12.56","90584","26.19","DUALSPOT-UV-BLUE-GREEN-RED-IR","663975","672702","910332","20.125204","5.944702","0.010307","810484","877074","834431","10.874790","2.983451","0.011246","816203","865373","834320","8.463221","2.209997","0.009416","845480","868027","886766","6.115987","1.551142","0.004986","761011","896996","965052","3.745035","0.743443","-0.039656","1908","2260","2407","1586","1746","1807","1477","1572","1605","1395","1428","1439","1248","1119","1087","DualSpot on"
"MA200-0420","43131","72","1","1.10","1.6","2023-07-15T16:20:00","120","2023/07/15","16:20:00","-15.795656144618988","35.00274633290246","0.1","13","300","64","96","959","-27084","684","14","150","150.02","116.39","33.63","25.45","43.4","12.10","90596","25.81","DUALSPOT-UV-BLUE-GREEN-RED-IR","655224","666536","903697","20.712674","6.134329","0.006893","808069","877267","835849","11.337745","3.127425","0.008417","809468","860710","830855","8.869939","2.333492","0.007290","844224","868812","888446","6.450850","1.647805","-0.000183","756122","892714","961075","3.970859","0.807139","-0.007734","2964","3312","3458","2948","3174","3259","2901","3049","3101","2886","2883","2883","2710","2646","2629","DualSpot on"
"MA200-0420","43132","72","1","1.10","1.6","2023-07-15T16:25:00","120","2023/07/15","16:25:00","-15.795673310756683","35.00284283305518","0.4","13","300","64","97","958","-27045","266","14","150","149.63","116.51","33.12","25.22","43.2","11.83","90604","25.56","DUALSPOT-UV-BLUE-GREEN-RED-IR","657643","670841","910843","21.139766","6.276884","0.009394","805128","876027","835528","11.669560","3.235089","0.014028","807323","860063","831000","9.159229","2.425390","0.015051","842651","868581","888809","6.686538","1.719857","0.013796","756317","893796","962658","4.117612","0.854684","0.036409","2153","2528","2686","2111","2410","2524","2061","2303","2391","2029","2182","2235","1759","2005","2069","DualSpot on"
"MA200-0420","43133","72","1","1.10","1.6","2023-07-15T16:30:00","120","2023/07/15","16:30:00","-15.795658886432648","35.002740666270256","0.1","13","300","64","97","959","-26863","544","14","150","149.95","116.39","33.56","25.00","43.2","11.62","90616","25.25","DUALSPOT-UV-BLUE-GREEN-RED-IR","653750","668552","908815","21.509434","6.397831","0.007476","807383","879976","839968","11.920250","3.312683","0.007739","804863","858700","830230","9.371493","2.491272","0.010051","841108","868052","888646","6.850027","1.766147","-0.003650","756278","894341","963499","4.210851","0.881624","0.000598","1865","2116","2222","1596","1713","1759","1514","1629","1671","1409","1383","1374","1119","1121","1121","DualSpot on"
"MA200-0420","43134","72","1","1.10","1.6","2023-07-15T16:35:00","120","2023/07/15","16:35:00","-15.79560512304306","35.00285383290611","0.3","13","300","64","97","951","-26940","300","14","150","149.89","116.47","33.42","24.72","43.0","11.31","90612","24.94","DUALSPOT-UV-BLUE-GREEN-RED-IR","650109","666033","906223","21.785060","6.490663","0.009110","804137","877566","838195","12.109985","3.374737","0.013411","806781","861690","833518","9.529304","2.542680","0.016355","844083","871826","892872","6.970349","1.801739","0.005751","754655","892754","962021","4.272299","0.902973","0.049381","1390","1631","1734","1207","1376","1441","1124","1277","1332","1036","1068","1079","737","892","934","DualSpot on"
"MA200-0420","43135","72","1","1.10","1.6","2023-07-15T16:40:00","120","2023/07/15","16:40:00","-15.795623540878296","35.00280449935235","0.0","13","300","64","97","988","-26984","668","14","150","149.72","116.39","33.32","24.50","43.2","11.15","90612","24.69","DUALSPOT-UV-BLUE-GREEN-RED-IR","646989","664391","905030","22.129878","6.602588","0.007235","801372","876075","837419","12.363576","3.453332","0.008310","804468","860520","832957","9.748860","2.610308","0.009629","841669","870429","891902","7.144710","1.853197","0.005590","754564","893314","962908","4.375019","0.934655","0.020456","1740","1972","2071","1615","1748","1800","1566","1684","1728","1502","1549","1565","1232","1328","1354","DualSpot on"
"MA200-0420","43136","72","1","1.10","1.6","2023-07-15T16:45:00","120","2023/07/15","16:45:00","-15.795613825321198","35.00277016637847","0.4","13","300","64","97","883","-26912","479","14","150","150.07","116.96","33.12","24.25","43.3","10.98","90620","24.38","DUALSPOT-UV-BLUE-GREEN-RED-IR","647142","666553","909346","22.581436","6.752277","0.008673","795719","871853","834261","12.690295","3.555965","0.010398","800538","857990","831232","10.030916","2.698648","0.012638","837791","867790","889775","7.370534","1.918797","0.004593","752817","892148","962053","4.513729","0.975999","0.013950","2267","2654","2820","2070","2297","2385","2002","2214","2292","1937","1987","2005","1656","1744","1768","DualSpot on"
"MA200-0420","43137","72","1","1.10","1.6","2023-07-15T16:50:00","120","2023/07/15","16:50:00","-15.795624136924744","35.00276449974626","0.2","13","300","64","97","1040","-27008","520","14","150","150.60","116.59","34.02","23.92","43.5","10.77","90620","24.00","DUALSPOT-UV-BLUE-GREEN-RED-IR","639957","660895","902813","22.980992","6.886997","0.007913","793799","871362","834557","12.969448","3.647351","0.011191","800921","859778","833604","10.266775","2.774370","0.011776","831436","862321","884655","7.556870","1.975635","0.007675","754758","895055","965525","4.621074","1.012258","0.036355","2012","2326","2460","1775","1991","2076","1679","1848","1910","1603","1676","1702","1286","1489","1545","DualSpot on"
"MA200-0420","43138","72","1","1.10","1.6","2023-07-15T16:55:00","120","2023/07/15","16:55:00","-15.795626699924469","35.002842999761924","0.3","14","300","64","97","933","-27445","841","14","150","150.01","116.54","33.47","23.65","43.9","10.63","90616","23.75","DUALSPOT-UV-BLUE-GREEN-RED-IR","643585","665806","910341","23.244106","6.978679","0.010042","793047","871585","835212","13.144300","3.704226","0.011842","799829","859412","833653","10.414648","2.823847","0.017712","836941","868710","891484","7.669055","2.009113","0.006525","755013","895640","966378","4.674844","1.032282","0.058960","1326","1608","1729","1112","1259","1317","1053","1227","1291","965","1003","1016","644","835","889","DualSpot on"
"MA200-0420","43139","72","1","1.10","1.6","2023-07-15T17:00:00","120","2023/07/15","17:00:00","-15.795619189739227","35.002811166225","0.3","13","300","64","97","1216","-27024","776","14","150","149.87","116.16","33.71","23.42","44.1","10.49","90616","23.50","DUALSPOT-UV-BLUE-GREEN-RED-IR","641009","664472","909461","23.548310","7.082165","0.008394","797004","877123","841092","13.348400","3.770953","0.011236","798542","859049","833773","10.587893","2.879274","0.011653","829147","861420","884414","7.805648","2.049577","0.003519","755544","896741","967776","4.749544","1.056350","0.026156","1538","1803","1917","1302","1467","1532","1238","1365","1412","1179","1204","1213","898","997","1025","DualSpot on"
"MA200-0420","43140","72","1","1.10","1.6","2023-07-15T17:05:00","120","2023/07/15","17:05:00","-15.795583546161652","35.00282933283597","0.2","14","300","64","97","895","-27262","641","14","150","149.57","116.13","33.44","23.15","44.1","10.27","90616","23.13","DUALSPOT-UV-BLUE-GREEN-RED-IR","636873","662056","907477","23.976604","7.225443","0.007841","792395","873968","838873","13.661710","3.868067","0.007052","795544","857487","832965","10.861545","2.963263","0.007646","832788","866597","890252","8.025898","2.111840","-0.003167","754272","896089","967473","4.887321","1.096022","-0.000011","2166","2516","2667","2000","2152","2213","1956","2085","2133","1902","1867","1855","1657","1657","1657","DualSpot on"
"MA200-0420","43141","72","1","1.10","1.6","2023-07-15T17:10:00","120","2023/07/15","17:10:00","-15.795578300952911","35.00282716634683","0.4","14","300","64","97","991","-26916","545","14","150","149.59","116.07","33.52","22.84","44.3","10.04","90628","22.81","DUALSPOT-UV-BLUE-GREEN-RED-IR","636045","662852","909702","24.353466","7.352070","0.007791","786612","869140","835015","13.933824","3.957372","0.011486","790871","853779","829993","11.096395","3.038323","0.011545","827291","862053","886090","8.214711","2.168151","0.005175","751779","893814","965363","4.996416","1.130828","0.023867","1907","2218","2353","1738","1975","2069","1679","1859","1926","1632","1685","1704","1313","1450","1490","DualSpot on"
"MA200-0420","43142","72","1","1.10","1.6","2023-07-15T17:15:00","120","2023/07/15","17:15:00","-15.795734465122223","35.002813999541104","0.1","14","300","64","97","916","-26937","466","14","150","149.44","115.88","33.56","22.56","44.6","9.89","90624","22.50","DUALSPOT-UV-BLUE-GREEN-RED-IR","631891","660633","908185","24.840728","7.521148","0.008906","788513","873366","840035","14.286596","4.072511","0.010550","788494","853003","830024","11.403237","3.136188","0.010742","831795","868257","893122","8.463265","2.242602","0.005255","751119","893996","966023","5.153742","1.180294","0.019383","2469","2959","3171","2256","2543","2657","2198","2420","2505","2152","2225","2252","1896","2058","2107","DualSpot on"
"MA200-0420","43143","72","1","1.10","1.6","2023-07-15T17:20:00","120","2023/07/15","17:20:00","-15.795643031597137","35.00283149955794","0.2","14","300","64","97","908","-26896","460","14","150","149.56","116.19","33.37","22.33","44.7","9.71","90628","22.31","DUALSPOT-UV-BLUE-GREEN-RED-IR","627154","657649","905607","25.310592","7.689071","0.010267","784495","870832","838484","14.619058","4.181325","0.011192","789884","856167","833907","11.690535","3.230327","0.013947","827594","865216","890667","8.694270","2.313207","0.009262","749453","892883","965262","5.295921","1.226328","0.026858","2375","2955","3209","2121","2417","2536","2052","2342","2452","1994","2122","2169","1709","1927","1992","DualSpot on"
"MA200-0420","43144","72","1","1.10","1.6","2023-07-15T17:25:00","120","2023/07/15","17:25:00","-15.795690774917603","35.002793833147734","0.1","13","300","64","97","951","-26847","348","14","150","150.21","116.86","33.35","22.09","44.6","9.48","90632","22.00","DUALSPOT-UV-BLUE-GREEN-RED-IR","625356","657247","906203","25.663948","7.814155","0.010009","782899","870448","838782","14.860503","4.261231","0.012310","784478","851475","829877","11.895949","3.296566","0.012809","827573","866185","892067","8.856425","2.362363","0.008835","700776","835404","903399","5.390320","1.257173","0.029499","1776","2203","2389","1531","1776","1874","1459","1649","1721","1392","1478","1510","1128","1292","1341","DualSpot on"
"MA200-0420","43145","72","1","1.10","1.6","2023-07-15T17:30:00","120","2023/07/15","17:30:00","-15.795648992061615","35.00283549982123","0.2","13","300","64","97","914","-26938","435","14","150","150.60","116.39","34.21","21.85","44.7","9.29","90632","21.75","DUALSPOT-UV-BLUE-GREEN-RED-IR","621824","655461","905093","26.102184","7.964027","0.007294","780210","869360","838578","15.173420","4.360265","0.006400","781923","850318","829447","12.166091","3.381801","0.007581","825110","864950","891386","9.076275","2.426664","-0.000760","749811","894735","967947","5.525356","1.296885","0.000101","2211","2572","2731","1993","2145","2207","1926","2068","2122","1895","1885","1882","1620","1621","1621","DualSpot on"
"MA200-0420","43146","72","1","1.10","1.6","2023-07-15T17:35:00","120","2023/07/15","17:35:00","-15.795650720596313","35.00283033307642","0.0","13","300","64","97","936","-26944","628","14","150","149.94","116.45","33.49","21.58","44.7","9.02","90636","21.44","DUALSPOT-UV-BLUE-GREEN-RED-IR","615086","651126","901151","26.754418","8.191101","0.008705","772286","863362","834143","15.662358","4.518932","0.009765","781832","852700","832921","12.594420","3.517890","0.010084","819624","861317","888569","9.426759","2.532158","0.006364","746951","892765","966502","5.756845","1.366974","0.011263","3289","3982","4288","3112","3512","3674","3053","3373","3497","3019","3160","3212","2776","2923","2969","DualSpot on"
"MA200-0420","43147","72","1","1.10","1.6","2023-07-15T17:40:00","120","2023/07/15","17:40:00","-15.795688807964325","35.00281783286482","0.1","13","300","64","97","932","-26872","296","14","150","149.44","116.11","33.32","21.37","44.6","8.83","90628","21.25","DUALSPOT-UV-BLUE-GREEN-RED-IR","613870","652118","904274","27.298324","8.387008","0.009856","771546","864739","836545","16.046360","4.649466","0.012847","780613","853289","834400","12.927584","3.627199","0.012840","819173","862466","890489","9.697161","2.616063","0.010317","743049","889151","963117","5.928516","1.423013","0.025827","2751","3452","3764","2451","2903","3088","2382","2723","2856","2336","2526","2596","2065","2349","2438","DualSpot on"
"MA200-0420","43148","72","1","1.10","1.6","2023-07-15T17:45:00","120","2023/07/15","17:45:00","-15.795656144618988","35.00274199969135","0.1","13","300","64","97","933","-26904","429","14","150","149.63","116.51","33.12","21.15","44.7","8.64","90632","21.06","DUALSPOT-UV-BLUE-GREEN-RED-IR","610318","651380","905666","28.033406","8.649158","0.009600","768141","863979","837194","16.566549","4.815561","0.008937","773584","848189","830617","13.379620","3.770524","0.010349","817674","863129","892158","10.065490","2.725872","0.006233","743142","890754","965551","6.170517","1.494366","0.007598","3705","4649","5070","3309","3717","3885","3221","3593","3738","3171","3326","3384","2901","3009","3044","DualSpot on"
"MA200-0420","43149","72","1","1.10","1.6","2023-07-15T17:50:00","120","2023/07/15","17:50:00","-15.795670807361603","35.00278999982402","0.1","13","300","64","98","862","-26757","720","14","150","149.94","116.49","33.45","20.95","44.8","8.51","90640","20.81","DUALSPOT-UV-BLUE-GREEN-RED-IR","604795","648764","904665","28.824588","8.939079","0.009921","763639","862112","836915","17.124074","4.999822","0.010271","769745","846779","830494","13.862396","3.924382","0.009595","813701","861297","891330","10.460614","2.844079","0.005210","741698","890666","966186","6.430834","1.570517","0.003788","3989","5091","5586","3547","4084","4305","3440","3819","3968","3402","3545","3599","3121","3180","3199","DualSpot on"
"MA200-0420","43150","72","1","1.10","1.6","2023-07-15T17:55:00","120","2023/07/15","17:55:00","-15.795603811740875","35.00266516627744","0.2","13","300","64","97","904","-26832","260","14","150","149.82","116.71","33.12","20.76","45.0","8.38","90636","20.63","DUALSPOT-UV-BLUE-GREEN-RED-IR","601450","648437","906907","29.629014","9.235901","0.010254","760673","862050","838444","17.685404","5.182159","0.009610","767090","846698","831686","14.349686","4.076809","0.008719","811548","861448","892526","10.858851","2.960821","0.004008","740835","891314","967625","6.693872","1.646079","0.002410","4048","5264","5815","3565","4081","4295","3466","3821","3962","3423","3536","3579","3148","3187","3200","DualSpot on"
"MA200-0420","43151","72","1","1.10","1.6","2023-07-15T18:00:00","120","2023/07/15","18:00:00","-15.795551061630249","35.00279149948619","0.4","13","300","64","98","891","-26887","741","14","150","149.53","116.25","33.29","20.62","45.2","8.33","90636","20.56","DUALSPOT-UV-BLUE-GREEN-RED-IR","596773","647612","909248","30.662670","9.620029","0.009870","756704","861914","840402","18.437460","5.431813","0.009993","765095","848297","835077","15.009626","4.287887","0.009377","804593","857359","889784","11.406360","3.127084","0.006748","736590","888548","965680","7.064113","1.754224","0.003686","5222","6778","7489","4796","5560","5879","4713","5264","5485","4725","5011","5119","4449","4538","4568","DualSpot on"
"MA200-0420","43152","72","1","1.10","1.6","2023-07-15T18:05:00","120","2023/07/15","18:05:00","-15.795742332935333","35.00270633283071","0.1","14","300","64","98","888","-27003","292","14","150","149.87","116.70","33.17","20.47","45.4","8.27","90644","20.31","DUALSPOT-UV-BLUE-GREEN-RED-IR","582899","642148","910208","33.086948","10.561085","0.010560","746764","858932","841450","19.875256","5.900550","0.008696","751627","840398","830377","16.209572","4.658025","0.006587","798172","856430","891296","12.368668","3.399540","-0.000442","732811","888179","966871","7.700739","1.918880","-0.017708","12201","16662","18754","9133","10475","11041","8536","9263","9557","8272","8240","8227","7620","6934","6706","DualSpot on"
"MA200-0420","43153","72","1","1.10","1.6","2023-07-15T18:10:00","120","2023/07/15","18:10:00","-15.795617878437042","35.002784999785945","0.2","14","300","64","97","1025","-26866","154","14","150","150.33","116.90","33.44","20.31","45.7","8.21","90644","20.19","DUALSPOT-UV-BLUE-GREEN-RED-IR","563938","631554","906233","35.988908","11.798386","0.011724","731476","850019","837193","21.449100","6.438559","0.010166","744275","839523","832877","17.508194","5.066276","0.006990","785432","849055","886238","13.420493","3.700458","0.000023","725172","883660","963682","8.423244","2.099664","-0.023760","14581","21735","25224","9980","11928","12764","9223","10137","10509","9027","9029","9030","8634","7553","7194","DualSpot on"
"MA200-0420","43154","72","1","1.10","1.6","2023-07-15T18:15:00","120","2023/07/15","18:15:00","-15.795620560646057","35.00281266612001","0.1","14","300","64","98","863","-26968","656","14","150","149.82","116.59","33.23","20.15","46.0","8.16","90636","20.00","DUALSPOT-UV-BLUE-GREEN-RED-IR","543973","622111","905768","39.544532","13.256969","0.010059","711601","841735","836858","24.162286","7.379073","0.009819","726658","833279","833385","19.959568","5.872029","0.008929","770688","845643","888516","15.566105","4.359941","0.006298","714464","880980","965167","10.061445","2.559809","-0.001992","17913","25778","29744","17252","20979","22618","17456","20128","21242","18463","19908","20470","19629","19341","19243","DualSpot on"
"MA200-0420","43155","72","1","1.10","1.6","2023-07-15T18:20:00","120","2023/07/15","18:20:00","-15.795600295066833","35.002814499428496","0.1","15","300","64","98","855","-26944","492","14","150","150.21","116.99","33.22","20.02","46.4","8.18","90644","19.94","DUALSPOT-UV-BLUE-GREEN-RED-IR","535917","617578","904433","40.890728","13.840652","0.010841","703640","837650","835725","25.154612","7.730484","0.010450","718954","829324","831897","20.850430","6.169103","0.009514","762888","841613","886392","16.346445","4.598276","0.005815","709439","878541","964105","10.656858","2.723326","-0.004346","6758","10318","12140","6288","7841","8530","6322","7423","7886","6691","7197","7394","7109","6875","6794","DualSpot on"
"MA200-0420","43156","72","1","1.10","1.6","2023-07-15T18:25:00","120","2023/07/15","18:25:00","-15.795602798461914","35.00282933283597","0.0","15","300","64","98","948","-26908","996","14","150","149.56","116.63","32.93","19.90","47.0","8.26","90644","19.81","DUALSPOT-UV-BLUE-GREEN-RED-IR","532859","617606","908412","41.900976","14.275894","0.010587","701678","839404","839816","25.924062","8.008178","0.011066","716699","830542","835024","21.541422","6.403508","0.010336","761276","843295","889860","16.948750","4.786955","0.007800","708734","880489","967462","11.106241","2.850469","0.000230","5087","7762","9144","4890","6250","6858","4918","5909","6327","5181","5747","5970","5382","5392","5396","DualSpot on"
"MA200-0420","43157","72","1","1.10","1.6","2023-07-15T18:30:00","120","2023/07/15","18:30:00","-15.795693218708038","35.00277716643177","0.1","15","300","64","98","948","-26912","280","14","150","150.35","117.07","33.28","19.77","47.7","8.35","90640","19.69","DUALSPOT-UV-BLUE-GREEN-RED-IR","525339","611981","903402","42.776780","14.638943","0.009600","698434","839242","841596","26.602418","8.244851","0.009318","709935","826019","832194","22.149216","6.604233","0.008461","754325","838658","886320","17.470314","4.943573","0.004176","704288","877348","965010","11.486814","2.955400","-0.003663","4393","6407","7455","4295","5272","5711","4310","5007","5304","4469","4721","4821","4541","4404","4357","DualSpot on"
"MA200-0420","43158","72","1","1.10","1.6","2023-07-15T18:35:00","120","2023/07/15","18:35:00","-15.79560399055481","35.00280633266084","0.1","14","300","64","97","908","-26854","550","14","150","149.82","116.71","33.12","19.62","48.4","8.42","90652","19.50","DUALSPOT-UV-BLUE-GREEN-RED-IR","522396","611524","905901","43.612124","14.989471","0.009672","689862","832348","836602","27.243200","8.470404","0.009496","706943","825667","833392","22.720206","6.794651","0.008804","752338","839269","888306","17.960126","5.093321","0.005431","703222","878270","966985","11.837996","3.053342","-0.001996","4204","6217","7271","4070","5049","5490","4061","4773","5077","4210","4536","4665","4203","4131","4106","DualSpot on"
"MA200-0420","43159","72","1","1.10","1.6","2023-07-15T18:40:00","120","2023/07/15","18:40:00","-15.795682787895203","35.00278866640292","0.1","14","300","64","98","832","-26852","612","14","150","149.69","116.98","32.71","19.46","49.0","8.47","90656","19.38","DUALSPOT-UV-BLUE-GREEN-RED-IR","518652","609998","906682","44.411656","15.323162","0.009666","686379","831536","837600","27.861732","8.687172","0.009658","703788","825110","834363","23.275172","6.978900","0.009071","749143","838568","888841","18.439454","5.237569","0.005222","697314","873081","962207","12.183342","3.150238","0.000381","4014","5992","7033","3919","4912","5362","3938","4676","4992","4110","4424","4548","4123","4138","4143","DualSpot on"
"MA200-0420","43160","72","1","1.10","1.6","2023-07-15T18:45:00","120","2023/07/15","18:45:00","-15.79559713602066","35.00276633282192","0.1","14","300","64","98","920","-26950","404","14","150","149.41","116.78","32.62","19.35","49.5","8.52","90668","19.25","DUALSPOT-UV-BLUE-GREEN-RED-IR","513356","606919","905526","45.321004","15.707169","0.009690","680851","828449","836533","28.551862","8.934246","0.010181","699030","822821","833801","23.891210","7.187814","0.009808","744787","836700","888331","18.969580","5.403854","0.007729","698852","877400","968034","12.573700","3.263282","0.003752","4573","6913","8154","4380","5614","6176","4379","5316","5719","4554","5113","5336","4669","4840","4900","DualSpot on"
"MA200-0420","43161","72","1","1.10","1.6","2023-07-15T18:50:00","120","2023/07/15","18:50:00","-15.795600295066833","35.00271266628988","0.0","14","300","64","98","1004","-26900","548","14","150","150.21","116.98","33.23","19.25","50.1","8.60","90668","19.13","DUALSPOT-UV-BLUE-GREEN-RED-IR","511388","607229","908928","46.072304","16.025650","0.009337","679780","829976","839599","29.070922","9.115950","0.008699","693473","818742","830901","24.341470","7.335195","0.007353","745870","840141","892990","19.348592","5.516795","0.003317","695576","874996","966096","12.839809","3.334686","-0.006300","3772","5629","6619","3289","4053","4402","3195","3682","3892","3250","3409","3473","3177","3001","2939","DualSpot on"
"MA200-0420","43162","72","1","1.10","1.6","2023-07-15T18:55:00","120","2023/07/15","18:55:00","-15.795688509941101","35.00276166643016","0.1","13","300","64","98","971","-26900","576","14","150","149.63","116.59","33.04","19.18","50.6","8.68","90672","19.13","DUALSPOT-UV-BLUE-GREEN-RED-IR","505349","603493","907163","47.070848","16.449936","0.009226","673477","826120","837863","29.794970","9.375051","0.009302","692069","820614","834619","24.986268","7.553863","0.008802","739499","836125","890258","19.900408","5.689766","0.006501","691314","872185","964067","13.247253","3.449154","-0.000890","5030","7542","8892","4603","5813","6369","4591","5494","5886","4748","5252","5454","4882","4839","4825","DualSpot on"
"MA200-0420","43163","72","1","1.10","1.6","2023-07-15T19:00:00","120","2023/07/15","19:00:00","-15.795690476894379","35.00276866625063","0.3","13","300","64","98","923","-26784","442","14","150","149.74","116.66","33.08","19.10","51.2","8.78","90676","19.00","DUALSPOT-UV-BLUE-GREEN-RED-IR","500518","600076","904641","47.754024","16.744148","0.009301","668398","822478","835654","30.285662","9.549758","0.008979","687678","817722","832848","25.419394","7.697038","0.007561","734712","832853","887748","20.268322","5.801696","0.004577","688152","869885","962236","13.512970","3.520714","-0.005385","3439","5224","6188","3118","3915","4282","3082","3593","3815","3164","3394","3487","3181","3022","2966","DualSpot on"
"MA200-0420","43164","72","1","1.10","1.6","2023-07-15T19:05:00","120","2023/07/15","19:05:00","-15.795726656913757","35.00274333311245","0.2","13","300","64","97","908","-26825","137","14","150","149.67","116.99","32.68","19.05","51.7","8.86","90680","19.00","DUALSPOT-UV-BLUE-GREEN-RED-IR","499641","601829","910665","48.583620","17.108020","0.009636","668581","825701","840645","30.854730","9.754487","0.009604","683704","815643","832138","25.910182","7.864641","0.009348","736725","837540","893928","20.684010","5.930746","0.006534","690053","874207","967792","13.809875","3.603572","-0.000087","4165","6540","7831","3605","4644","5124","3482","4258","4596","3564","3962","4121","3545","3542","3540","DualSpot on"
"MA200-0420","43165","72","1","1.10","1.6","2023-07-15T19:10:00","120","2023/07/15","19:10:00","-15.79566115140915","35.00274166627787","0.3","13","300","64","98","884","-26828","572","14","150","150.15","117.06","33.09","18.98","52.1","8.92","90680","18.94","DUALSPOT-UV-BLUE-GREEN-RED-IR","494873","598335","908034","49.262736","17.407516","0.009424","663685","822036","838282","31.313334","9.921908","0.009555","680133","813517","831079","26.308602","7.999019","0.008263","733191","835462","892589","21.020076","6.032898","0.004552","687537","872515","966533","14.049824","3.666701","-0.007348","3407","5316","6360","2904","3751","4144","2825","3371","3610","2880","3097","3185","2863","2665","2595","DualSpot on"
"MA200-0420","43166","72","1","1.10","1.6","2023-07-15T19:15:00","120","2023/07/15","19:15:00","-15.795695662498474","35.002802832750604","0.1","13","300","64","98","912","-26708","92","14","150","149.47","117.03","32.44","18.94","52.5","8.99","90688","18.88","DUALSPOT-UV-BLUE-GREEN-RED-IR","489523","594983","906593","50.180780","17.807510","0.009366","658664","819002","837006","31.910798","10.137342","0.009592","675290","810500","829427","26.816476","8.172510","0.009346","728024","832011","890131","21.444794","6.167094","0.007660","684383","870426","965040","14.350437","3.750116","0.000111","4607","7243","8692","3784","4923","5454","3602","4440","4807","3640","4150","4356","3588","3592","3593","DualSpot on"
"MA200-0420","43167","72","1","1.10","1.6","2023-07-15T19:20:00","120","2023/07/15","19:20:00","-15.795673191547394","35.002677832962945","0.2","13","300","68","98","891","-26825","216","15","150","150.60","117.69","32.91","18.91","52.8","9.07","90700","18.88","DUALSPOT-UV-BLUE-GREEN-RED-IR","798985","710231","908308","0.000000","0.000000","0.000000","897637","902306","838466","0.000000","0.000000","0.000000","880118","879933","834592","0.000000","0.000000","0.000000","896616","881777","891465","0.000000","0.000000","0.000000","785162","902880","964725","0.000000","0.000000","0.000000","","","","","","","","","","","","","","","","Tape advance-DualSpot on"
"MA200-0420","43168","72","1","1.10","1.6","2023-07-15T19:25:00","120","2023/07/15","19:25:00","-15.795621871948242","35.0026921662502","0.2","13","300","68","98","904","-27096","224","15","150","149.89","117.18","32.71","18.85","53.3","9.15","90708","18.81","DUALSPOT-UV-BLUE-GREEN-RED-IR","783333","705464","906643","0.000000","0.000000","0.000000","886198","897813","836697","0.000000","0.000000","0.000000","871178","876660","833505","0.000000","0.000000","0.000000","888935","878677","890020","0.000000","0.000000","0.000000","780915","900988","963769","0.000000","0.000000","0.000000","","","","","","","","","","","","","","","","Tape advance-DualSpot on"
"MA200-0420","43169","72","1","1.10","1.6","2023-07-15T19:30:00","120","2023/07/15","19:30:00","-15.795736849308014","35.002697999589145","0.1","13","300","64","98","928","-26844","460","15","150","150.28","117.28","33.00","18.79","53.7","9.20","90708","18.75","DUALSPOT-UV-BLUE-GREEN-RED-IR","773787","702634","905856","1.142943","0.314968","0.000000","879180","894789","835250","0.621694","0.162279","0.000000","866542","875252","833236","0.502604","0.129187","0.000000","885057","877366","889558","0.383799","0.097353","0.000000","778586","899940","963172","0.234985","0.053278","0.000000","5724","5605","5724","3929","3645","3929","3557","3249","3557","3283","2959","3283","2798","2255","2798","DualSpot on"
"MA200-0420","43170","72","1","1.10","1.6","2023-07-15T19:35:00","120","2023/07/15","19:35:00","-15.795656621456146","35.002728999592364","0.1","13","300","64","98","924","-26860","576","15","150","149.50","117.14","32.36","18.78","54.0","9.28","90708","18.75","DUALSPOT-UV-BLUE-GREEN-RED-IR","761786","698990","904864","2.589666","0.722814","0.000000","872475","892673","834843","1.336038","0.351292","0.000000","861088","873277","832558","1.054007","0.272756","0.000000","881398","876396","889482","0.788311","0.198576","0.000000","776425","899028","962734","0.465837","0.106622","0.000000","7254","7403","7254","4520","4330","4520","3908","3683","3908","3464","3138","3464","2753","2302","2753","DualSpot on"
"MA200-0420","43171","72","1","1.10","1.6","2023-07-15T19:40:00","120","2023/07/15","19:40:00","-15.795653522014618","35.00273999967612","0.1","13","300","64","98","930","-26865","1626","15","150","150.15","117.65","32.49","18.76","54.5","9.38","90712","18.69","DUALSPOT-UV-BLUE-GREEN-RED-IR","752884","696094","903916","3.662811","1.034904","0.018780","873702","897605","840774","1.902211","0.505971","0.000000","856618","871609","831980","1.503032","0.393390","0.000000","876752","873949","887776","1.124015","0.288397","0.000000","779136","903523","967974","0.664888","0.154885","0.000000","5357","5641","5753","3567","3528","3567","3168","3082","3168","2862","2773","2862","2363","2074","2363","DualSpot on"
"MA200-0420","43172","72","1","1.10","1.6","2023-07-15T19:45:00","120","2023/07/15","19:45:00","-15.795655012130737","35.002729499479756","0.1","13","300","64","98","961","-26942","246","15","150","149.56","117.10","32.46","18.76","54.7","9.45","90720","18.69","DUALSPOT-UV-BLUE-GREEN-RED-IR","743803","693989","904595","4.958647","1.414144","0.014595","868505","896624","841363","2.574628","0.688815","0.000000","852183","870465","832043","2.033430","0.534516","0.000000","873689","873418","888132","1.518062","0.390311","0.000000","777431","903133","968080","0.892761","0.207249","0.000000","6499","6862","7006","4256","4175","4256","3760","3609","3760","3376","3149","3376","2718","2253","2718","DualSpot on"
"MA200-0420","43173","72","1","1.10","1.6","2023-07-15T19:50:00","120","2023/07/15","19:50:00","-15.795616090297699","35.00270983274095","0.2","13","300","64","98","904","-26891","720","15","150","149.90","117.16","32.74","18.72","55.1","9.51","90720","18.69","DUALSPOT-UV-BLUE-GREEN-RED-IR","742148","696144","909433","5.717617","1.637378","0.012028","861859","892856","838911","3.049719","0.817644","-0.013759","847079","867760","830310","2.427357","0.638562","0.000000","867681","869403","884795","1.828962","0.470453","0.000000","774572","901121","966356","1.085214","0.253170","0.000000","3804","4005","4085","3006","2917","2885","2791","2638","2791","2662","2456","2662","2294","1959","2294","DualSpot on"
"MA200-0420","43174","72","1","1.10","1.6","2023-07-15T19:55:00","120","2023/07/15","19:55:00","-15.795654356479645","35.00268716621213","0.2","13","300","64","98","876","-26936","420","15","150","149.60","116.83","32.78","18.68","55.5","9.58","90732","18.63","DUALSPOT-UV-BLUE-GREEN-RED-IR","735109","692975","907158","6.416939","1.843307","0.010144","856062","889491","836668","3.459144","0.928258","-0.015394","848893","871808","834903","2.764541","0.726223","0.000000","872613","876038","892089","2.085661","0.534720","0.000000","772919","900317","965828","1.242166","0.289111","0.000000","3515","3690","3760","2598","2501","2466","2396","2220","2396","2204","1967","2204","1876","1531","1876","DualSpot on"
"MA200-0420","43175","72","1","1.10","1.6","2023-07-15T20:00:00","120","2023/07/15","20:00:00","-15.795634508132935","35.002736166119576","0.5","13","300","64","97","955","-26952","256","15","150","150.35","117.24","33.11","18.66","55.7","9.62","90736","18.63","DUALSPOT-UV-BLUE-GREEN-RED-IR","729506","692251","908811","7.359195","2.127773","0.012012","852979","889901","838347","4.011077","1.082140","-0.004461","845561","871250","835422","3.211492","0.848865","-0.012521","870663","876342","893239","2.430158","0.626606","0.000000","771631","900234","966232","1.448202","0.338385","0.000000","4720","5046","5178","3489","3445","3428","3165","3075","3042","2948","2784","2948","2454","2078","2454","DualSpot on"
"MA200-0420","43176","72","1","1.10","1.6","2023-07-15T20:05:00","120","2023/07/15","20:05:00","-15.795638680458069","35.00274333311245","0.1","13","300","64","98","867","-26719","560","15","150","149.67","117.32","32.35","18.64","55.8","9.64","90744","18.63","DUALSPOT-UV-BLUE-GREEN-RED-IR","723865","690220","908008","8.053512","2.335437","0.013248","848258","887777","837368","4.456544","1.203459","-0.003820","841749","869667","834696","3.586709","0.948381","-0.015206","866929","874435","891967","2.725391","0.702549","0.000000","769780","899309","965685","1.636198","0.383894","0.000000","3476","3770","3891","2814","2780","2767","2655","2554","2517","2524","2355","2524","2238","1965","2238","DualSpot on"
"MA200-0420","43177","72","1","1.10","1.6","2023-07-15T20:10:00","120","2023/07/15","20:10:00","-15.795616924762726","35.00274149957113","0.1","13","300","64","98","967","-26875","308","15","150","149.69","116.94","32.75","18.62","56.1","9.69","90756","18.63","DUALSPOT-UV-BLUE-GREEN-RED-IR","721567","690091","909070","8.488802","2.468305","0.013264","847226","888390","838568","4.719091","1.276821","-0.000643","840241","869502","835028","3.802484","1.006484","-0.014508","865673","874232","892131","2.892767","0.746588","0.000000","769212","899351","965975","1.738611","0.408678","0.000000","2186","2383","2463","1664","1660","1659","1531","1472","1451","1435","1349","1435","1223","1057","1223","DualSpot on"
"MA200-0420","43178","72","1","1.10","1.6","2023-07-15T20:15:00","120","2023/07/15","20:15:00","-15.795639157295227","35.00271016638726","0.2","13","300","64","98","924","-26868","472","15","150","149.71","117.28","32.44","18.64","56.2","9.74","90760","18.63","DUALSPOT-UV-BLUE-GREEN-RED-IR","716034","688617","909388","9.290922","2.719692","0.017054","843646","887470","838728","5.165541","1.402187","0.003983","832756","864029","830646","4.168558","1.105094","-0.008812","863852","874234","892826","3.179193","0.821161","-0.027000","768472","899750","966814","1.921182","0.450773","0.000000","4017","4552","4773","2822","2865","2881","2591","2524","2499","2450","2306","2256","2174","1812","2174","DualSpot on"
"MA200-0420","43179","72","1","1.10","1.6","2023-07-15T20:20:00","120","2023/07/15","20:20:00","-15.795640289783478","35.00269949925132","0.1","13","300","64","98","848","-26903","580","15","150","149.63","117.26","32.37","18.61","56.4","9.75","90764","18.56","DUALSPOT-UV-BLUE-GREEN-RED-IR","709530","684575","905364","9.763126","2.865245","0.014517","837392","882627","834775","5.439430","1.477193","-0.002014","834043","866776","833753","4.390120","1.164299","-0.010354","859653","871117","889991","3.349009","0.862950","-0.051119","765699","897237","964320","2.024818","0.473295","0.000000","2365","2641","2755","1731","1717","1712","1568","1518","1500","1452","1295","1240","1234","972","1234","DualSpot on"
"MA200-0420","43180","72","1","1.10","1.6","2023-07-15T20:25:00","120","2023/07/15","20:25:00","-15.795595288276672","35.00264949956909","0.1","14","300","64","98","836","-26756","632","15","150","149.56","117.14","32.42","18.59","56.6","9.80","90764","18.56","DUALSPOT-UV-BLUE-GREEN-RED-IR","708416","685099","907062","10.111599","2.973915","0.015052","837437","884003","836552","5.643106","1.531636","-0.008730","833020","866798","834107","4.558848","1.208168","-0.019711","859462","871747","890932","3.477649","0.894120","-0.057899","765767","897837","965148","2.101429","0.489119","0.000000","1747","1968","2060","1288","1244","1228","1195","1123","1097","1101","964","917","913","681","913","DualSpot on"
"MA200-0420","43181","72","1","1.10","1.6","2023-07-15T20:30:00","120","2023/07/15","20:30:00","-15.795756757259369","35.00273783272132","0.3","14","300","64","98","812","-26963","435","15","150","149.94","117.53","32.41","18.61","56.6","9.82","90764","18.63","DUALSPOT-UV-BLUE-GREEN-RED-IR","706331","684887","907861","10.492071","3.095489","0.017507","836025","884031","837161","5.887923","1.602906","0.012049","831925","866939","834741","4.761899","1.265210","0.005194","858825","872142","891717","3.636896","0.938256","0.001819","765230","897897","965452","2.203853","0.515159","0.000000","1901","2203","2329","1544","1630","1662","1434","1461","1470","1359","1366","1368","1217","1122","1217","DualSpot on"
"MA200-0420","43182","72","1","1.10","1.6","2023-07-15T20:35:00","120","2023/07/15","20:35:00","-15.795608818531036","35.00276749976911","0.3","13","300","64","98","984","-26956","280","15","150","150.01","117.16","32.85","18.61","56.7","9.82","90772","18.63","DUALSPOT-UV-BLUE-GREEN-RED-IR","704627","684944","909011","10.861090","3.211847","0.013824","834897","884239","837888","6.108516","1.666963","0.007624","830643","866717","834978","4.942210","1.315295","-0.002640","857981","872146","892052","3.776837","0.975936","-0.015022","764897","898134","965890","2.291710","0.536222","0.000000","1850","2080","2176","1395","1445","1464","1277","1265","1261","1198","1150","1134","1047","895","1047","DualSpot on"
"MA200-0420","43183","72","1","1.10","1.6","2023-07-15T20:40:00","120","2023/07/15","20:40:00","-15.795599281787872","35.002765332814306","0.3","13","300","64","98","844","-26896","624","15","150","150.00","117.52","32.48","18.61","56.7","9.83","90776","18.56","DUALSPOT-UV-BLUE-GREEN-RED-IR","701737","683925","908696","11.240732","3.330268","0.013748","833101","883878","838167","6.355127","1.737314","0.006676","828970","866301","835042","5.151457","1.373636","0.002307","856097","871316","891603","3.941291","1.020144","-0.009723","763883","897666","965630","2.398777","0.562133","0.000000","1897","2141","2244","1555","1605","1624","1478","1491","1495","1403","1365","1352","1272","1114","1272","DualSpot on"
"MA200-0420","43184","72","1","1.10","1.6","2023-07-15T20:45:00","120","2023/07/15","20:45:00","-15.79560512304306","35.002766833174974","0.1","13","300","64","98","844","-26575","560","15","150","150.15","117.24","32.91","18.58","56.9","9.87","90772","18.50","DUALSPOT-UV-BLUE-GREEN-RED-IR","697844","681535","906382","11.539246","3.422683","0.011065","829226","880976","835873","6.546759","1.791662","0.002156","826636","864832","834004","5.313228","1.418525","-0.002978","854322","870274","890859","4.067239","1.053914","-0.015806","762969","897128","965197","2.476577","0.579165","0.000000","1495","1649","1714","1211","1224","1229","1145","1132","1127","1077","1029","1012","927","723","927","DualSpot on"
"MA200-0420","43185","72","1","1.10","1.6","2023-07-15T20:50:00","120","2023/07/15","20:50:00","-15.795634508132935","35.002751332940534","0.1","13","300","64","98","892","-26891","520","15","150","149.59","117.20","32.39","18.55","56.9","9.84","90772","18.50","DUALSPOT-UV-BLUE-GREEN-RED-IR","695081","680302","905656","11.855591","3.523700","0.015288","833312","886601","841676","6.746922","1.849877","0.009998","824169","863333","832929","5.479671","1.465493","0.005131","852057","868800","889647","4.198512","1.088794","-0.013046","761311","895698","963885","2.557996","0.599636","0.000000","1585","1832","1936","1266","1332","1357","1179","1204","1213","1123","1080","1065","970","882","970","DualSpot on"
"MA200-0420","43186","72","1","1.10","1.6","2023-07-15T20:55:00","120","2023/07/15","20:55:00","-15.79567700624466","35.002713666297495","0.2","13","300","64","98","863","-26680","560","15","150","149.52","117.54","31.98","18.51","56.9","9.81","90776","18.44","DUALSPOT-UV-BLUE-GREEN-RED-IR","691094","678484","904459","12.302095","3.660104","0.012083","829414","884463","840380","7.064454","1.938057","0.003894","821479","862180","832474","5.754158","1.539325","-0.002775","848852","866948","888247","4.419691","1.146144","-0.015373","759405","894479","962904","2.704839","0.635845","0.000000","2231","2504","2620","2002","2043","2059","1938","1916","1908","1887","1798","1767","1745","1581","1745","DualSpot on"
"MA200-0420","43187","72","1","1.10","1.6","2023-07-15T21:00:00","120","2023/07/15","21:00:00","-15.795713007450104","35.002718166215345","0.2","13","300","64","98","825","-26808","816","15","150","149.81","117.12","32.69","18.47","57.2","9.84","90784","18.44","DUALSPOT-UV-BLUE-GREEN-RED-IR","693625","682405","910543","12.604040","3.752264","0.009319","827209","883378","839811","7.263781","1.992821","-0.003043","819074","860731","831423","5.923152","1.584083","-0.012680","846381","865332","886896","4.555661","1.180897","-0.028193","762980","899262","968242","2.787449","0.654094","0.000000","1514","1655","1715","1261","1241","1234","1197","1136","1114","1164","1066","1032","985","779","985","DualSpot on"
"MA200-0420","43188","72","1","1.10","1.6","2023-07-15T21:05:00","120","2023/07/15","21:05:00","-15.795598804950714","35.002760499715805","0.2","12","300","64","98","871","-26800","156","15","150","150.41","117.81","32.60","18.42","57.4","9.84","90788","18.38","DUALSPOT-UV-BLUE-GREEN-RED-IR","691613","681620","910249","12.859846","3.835424","0.015519","824936","881996","838918","7.432928","2.042919","0.011916","817856","860322","831353","6.065442","1.624059","0.003404","851584","871365","893347","4.666366","1.209491","-0.021129","761871","898438","967521","2.856802","0.670871","0.000000","1275","1498","1593","1064","1139","1167","1002","1018","1023","942","880","858","822","719","822","DualSpot on"
"MA200-0420","43189","72","1","1.10","1.6","2023-07-15T21:10:00","120","2023/07/15","21:10:00","-15.79564255475998","35.00271399971098","0.1","12","300","64","98","859","-26948","682","15","150","149.63","117.18","32.45","18.39","57.6","9.88","90792","18.38","DUALSPOT-UV-BLUE-GREEN-RED-IR","687011","679454","908757","13.364914","3.991598","0.010675","819546","878761","836828","7.838058","2.158153","0.004620","813646","858143","830082","6.427464","1.725912","0.003343","841080","862532","884987","4.970593","1.291589","-0.007153","759857","897436","966959","3.063665","0.722683","-0.046591","2531","2827","2952","2563","2632","2659","2564","2606","2621","2604","2538","2515","2466","2230","2158","DualSpot on"
"MA200-0420","43190","72","1","1.10","1.6","2023-07-15T21:15:00","120","2023/07/15","21:15:00","-15.795626699924469","35.00291649950668","0.3","12","300","64","98","925","-26829","433","15","150","150.28","117.53","32.75","18.34","57.8","9.86","90780","18.31","DUALSPOT-UV-BLUE-GREEN-RED-IR","682737","677138","906906","13.779385","4.124725","0.012974","816041","877087","836084","8.174074","2.259254","0.012129","815681","862156","834720","6.729229","1.814109","0.009294","845261","868403","891711","5.226316","1.365223","0.008230","758145","896587","966497","3.243671","0.771374","-0.012374","2071","2387","2522","2119","2288","2352","2131","2235","2273","2182","2255","2281","2139","2076","2056","DualSpot on"
"MA200-0420","43191","72","1","1.10","1.6","2023-07-15T21:20:00","120","2023/07/15","21:20:00","-15.795605659484863","35.002762666437775","0.3","12","300","64","98","828","-26924","812","15","150","150.08","117.34","32.74","18.30","57.9","9.87","90776","18.25","DUALSPOT-UV-BLUE-GREEN-RED-IR","679782","675638","905790","14.098186","4.229059","0.014039","819592","882474","841810","8.425214","2.333736","0.009480","812572","860228","833375","6.953634","1.879847","0.009179","842136","866370","890076","5.417235","1.418935","0.002017","755978","894911","965012","3.374817","0.805318","-0.031188","1595","1871","1989","1586","1686","1724","1587","1666","1696","1632","1645","1650","1561","1448","1412","DualSpot on"
"MA200-0420","43192","72","1","1.10","1.6","2023-07-15T21:25:00","120","2023/07/15","21:25:00","-15.795672357082367","35.002722499426454","0.3","12","300","64","98","884","-26808","528","15","150","150.21","118.05","32.16","18.30","58.1","9.92","90780","18.25","DUALSPOT-UV-BLUE-GREEN-RED-IR","678559","675305","905931","14.294115","4.293695","0.016198","818103","881757","841464","8.564763","2.372223","0.001941","811473","859831","833276","7.076943","1.913219","-0.001307","840980","865798","889727","5.516765","1.445564","-0.004552","755359","894613","964846","3.441606","0.821696","-0.043943","974","1180","1268","876","887","891","867","861","859","845","830","825","790","711","686","DualSpot on"
"MA200-0420","43193","72","1","1.10","1.6","2023-07-15T21:30:00","120","2023/07/15","21:30:00","-15.795646965503693","35.00276416633278","0.2","12","300","64","98","875","-26662","408","15","150","149.81","117.40","32.40","18.28","58.4","9.98","90780","18.25","DUALSPOT-UV-BLUE-GREEN-RED-IR","677075","674661","905584","14.475075","4.351494","0.012688","810627","874425","834765","8.684436","2.404487","-0.003799","810428","859387","833053","7.179095","1.939010","-0.018393","839414","864737","888824","5.598811","1.465202","-0.039133","754824","894366","964664","3.494304","0.832251","-0.160941","905","1047","1109","755","738","731","722","660","638","701","608","575","627","455","401","DualSpot on"
"MA200-0420","43194","72","1","1.10","1.6","2023-07-15T21:35:00","120","2023/07/15","21:35:00","-15.795649886131287","35.00269166636281","0.0","12","300","64","98","928","-27003","475","15","150","150.21","117.42","32.80","18.26","58.6","10.00","90780","18.25","DUALSPOT-UV-BLUE-GREEN-RED-IR","675683","674105","905414","14.663326","4.414734","0.015333","815859","880857","841167","8.806255","2.440869","0.009931","810007","859556","833482","7.283583","1.969939","0.010395","838640","864454","888728","5.680685","1.487908","-0.001704","754230","894021","964418","3.546831","0.845433","-0.043364","941","1132","1214","769","822","842","738","782","799","699","694","692","624","561","541","DualSpot on"
"MA200-0420","43195","72","1","1.10","1.6","2023-07-15T21:40:00","120","2023/07/15","21:40:00","-15.795620024204254","35.002738166134804","0.2","12","300","64","98","912","-26863","160","15","150","150.01","117.94","32.07","18.25","58.7","10.02","90780","18.19","DUALSPOT-UV-BLUE-GREEN-RED-IR","672505","672091","903393","14.911064","4.495113","0.014537","812107","877841","838725","8.973098","2.489030","0.008763","807164","857447","831762","7.423980","2.008760","0.003064","836281","862723","887220","5.794034","1.517803","-0.007305","752727","892684","963195","3.621750","0.864325","-0.029083","1233","1472","1575","1048","1113","1138","988","1005","1011","964","935","925","887","822","802","DualSpot on"
"MA200-0420","43196","72","1","1.10","1.6","2023-07-15T21:45:00","120","2023/07/15","21:45:00","-15.795628011226654","35.00274533312768","0.0","12","300","64","98","888","-26819","672","15","150","150.21","117.07","33.14","18.24","58.7","10.01","90776","18.19","DUALSPOT-UV-BLUE-GREEN-RED-IR","671371","672143","904325","15.184088","4.585886","0.013171","812174","879013","840271","9.154377","2.543849","0.009434","806921","858092","832786","7.579150","2.053708","0.004082","836723","863961","888809","5.918983","1.553447","0.001752","753279","893950","964748","3.704645","0.885459","-0.040525","1369","1608","1712","1147","1226","1256","1100","1126","1135","1070","1079","1081","989","890","860","DualSpot on"
"MA200-0420","43197","72","1","1.10","1.6","2023-07-15T21:50:00","120","2023/07/15","21:50:00","-15.795539855957031","35.002805666066706","0.2","12","300","64","98","944","-26772","564","15","150","150.28","117.50","32.78","18.23","58.8","10.03","90780","18.19","DUALSPOT-UV-BLUE-GREEN-RED-IR","674477","676232","910531","15.403576","4.658005","0.013178","809841","877401","839068","9.296146","2.584481","0.003912","805019","856844","831835","7.700094","2.086889","-0.003036","834618","862389","887410","6.012527","1.577939","-0.015148","751695","892456","963254","3.763607","0.899251","-0.071649","1097","1292","1376","894","918","928","854","840","835","798","749","732","701","587","552","DualSpot on"
"MA200-0420","43198","72","1","1.10","1.6","2023-07-15T21:55:00","120","2023/07/15","21:55:00","-15.795654892921448","35.002733333269134","0.2","11","300","64","98","937","-26850","625","15","150","149.71","117.31","32.40","18.20","58.9","10.03","90772","18.13","DUALSPOT-UV-BLUE-GREEN-RED-IR","672489","675208","909741","15.613577","4.725685","0.012376","808340","876566","838602","9.431277","2.623283","0.005538","803662","856069","831345","7.813660","2.119475","0.006501","832938","861212","886409","6.102299","1.601591","-0.010892","750579","891497","962363","3.819439","0.912943","-0.045167","1051","1227","1303","853","887","900","803","835","846","767","732","719","664","590","567","DualSpot on"
"MA200-0420","43199","72","1","1.10","1.6","2023-07-15T22:00:00","120","2023/07/15","22:00:00","-15.795688807964325","35.002742999466136","0.2","11","300","64","98","963","-27052","640","15","150","150.15","117.96","32.19","18.18","59.0","10.02","90768","18.13","DUALSPOT-UV-BLUE-GREEN-RED-IR","669333","672910","907215","15.805117","4.790418","0.016136","805217","873971","836440","9.556723","2.660721","0.012030","805948","859138","834573","7.918987","2.149641","0.008052","836992","865931","891466","6.185005","1.624488","0.003137","753256","895033","966320","3.872306","0.925336","-0.058680","953","1181","1280","788","862","890","741","778","791","703","713","717","626","537","510","DualSpot on"
"MA200-0420","43200","72","1","1.10","1.6","2023-07-15T22:05:00","120","2023/07/15","22:05:00","-15.79568487405777","35.00271466630511","0.2","12","300","64","98","950","-26707","280","15","150","150.49","117.69","32.79","18.13","59.2","10.03","90768","18.06","DUALSPOT-UV-BLUE-GREEN-RED-IR","669045","673368","908329","15.972067","4.844063","0.011286","804845","874215","836956","9.662737","2.691328","0.004939","801028","854468","830247","8.010475","2.175218","0.000569","837009","866396","892097","6.256993","1.643082","-0.017559","753559","895738","967155","3.918239","0.937138","-0.029098","833","960","1016","667","691","701","645","647","648","613","568","552","545","502","489","DualSpot on"
"MA200-0420","43201","72","1","1.10","1.6","2023-07-15T22:10:00","120","2023/07/15","22:10:00","-15.795585215091705","35.002802999224514","0.1","12","300","64","98","988","-26760","444","15","150","149.83","117.22","32.61","18.11","59.3","10.05","90772","18.06","DUALSPOT-UV-BLUE-GREEN-RED-IR","667703","672663","907863","16.118607","4.894178","0.015370","803832","873731","836713","9.760613","2.720159","0.007728","805264","859518","835325","8.092227","2.196616","-0.010916","836716","866519","892393","6.323170","1.660046","-0.018847","749053","890652","961741","3.959423","0.945647","-0.128969","734","902","976","619","655","669","579","544","532","566","521","506","490","364","324","DualSpot on"
"MA200-0420","43202","72","1","1.10","1.6","2023-07-15T22:15:00","120","2023/07/15","22:15:00","-15.795641720294952","35.00277099967934","0.1","12","300","64","98","963","-26956","184","15","150","149.89","117.26","32.63","18.07","59.4","10.03","90768","18.00","DUALSPOT-UV-BLUE-GREEN-RED-IR","665025","670626","905482","16.264294","4.940717","0.010780","807500","878341","841344","9.858958","2.746641","-0.004749","803405","858078","834139","8.177165","2.221524","0.008428","834581","864728","890690","6.389341","1.677321","-0.014318","752298","894774","966306","4.000146","0.956449","-0.016385","729","837","884","621","601","593","601","633","645","566","531","518","485","462","455","DualSpot on"
"MA200-0420","43203","72","1","1.10","1.6","2023-07-15T22:20:00","120","2023/07/15","22:20:00","-15.795628845691681","35.00272649945691","0.1","13","300","64","98","932","-26936","520","15","150","149.71","117.62","32.10","18.06","59.4","10.03","90772","18.00","DUALSPOT-UV-BLUE-GREEN-RED-IR","662614","668839","903533","16.408701","4.989805","0.015901","804737","875938","839287","9.954839","2.776545","0.016618","801084","856061","832399","8.260874","2.246576","0.014192","831945","862420","888498","6.457160","1.696931","0.011591","750187","892552","964027","4.044172","0.967597","-0.025861","721","898","975","604","690","724","590","648","669","578","613","625","522","485","473","DualSpot on"
"MA200-0420","43204","72","1","1.10","1.6","2023-07-15T22:25:00","120","2023/07/15","22:25:00","-15.795671045780182","35.0026748329401","0.1","13","300","64","98","916","-26996","584","15","150","150.15","117.46","32.69","18.03","59.5","10.02","90768","17.94","DUALSPOT-UV-BLUE-GREEN-RED-IR","662310","669171","904407","16.552692","5.035341","0.009891","804364","876190","839765","10.058065","2.805382","0.000506","800759","856274","832790","8.348956","2.269882","-0.008709","831203","862099","888332","6.527916","1.715096","-0.018017","750394","893108","964727","4.089206","0.978542","-0.048902","720","818","861","651","653","654","622","591","580","604","557","540","535","467","446","DualSpot on"
"MA200-0420","43205","72","1","1.10","1.6","2023-07-15T22:30:00","120","2023/07/15","22:30:00","-15.79561299085617","35.0027213327121","0.1","13","300","64","98","908","-26754","187","15","150","150.60","117.77","32.83","18.00","59.7","10.04","90764","18.00","DUALSPOT-UV-BLUE-GREEN-RED-IR","661230","668606","904001","16.670551","5.076727","0.016307","803417","875660","839475","10.139551","2.829694","0.008762","799751","855601","832314","8.418864","2.290660","0.009902","830972","862226","888549","6.584000","1.729628","-0.016068","750127","893054","964733","4.125780","0.987182","-0.060813","587","740","807","512","548","562","492","525","537","477","444","432","433","367","346","DualSpot on"
"MA200-0420","43206","72","1","1.10","1.6","2023-07-15T22:35:00","120","2023/07/15","22:35:00","-15.795608222484589","35.00275999982841","0.1","13","300","64","98","848","-26972","348","15","150","149.74","117.45","32.29","17.98","59.8","10.06","90764","17.94","DUALSPOT-UV-BLUE-GREEN-RED-IR","665116","673089","910435","16.793594","5.117563","0.013667","802634","875319","839336","10.224606","2.852553","-0.003152","798740","854974","831873","8.492023","2.310580","-0.001589","829185","860746","887189","6.642243","1.746091","0.005525","749104","892064","963778","4.162506","0.996789","-0.016399","615","742","798","536","524","520","517","512","510","497","511","516","436","415","408","DualSpot on"
"MA200-0420","43207","72","1","1.10","1.6","2023-07-15T22:40:00","120","2023/07/15","22:40:00","-15.795637011528015","35.00271549937315","0.2","13","300","64","98","859","-26888","544","15","150","150.33","117.16","33.17","17.95","60.0","10.08","90760","17.88","DUALSPOT-UV-BLUE-GREEN-RED-IR","663036","671456","908508","16.895292","5.151123","0.011385","799688","872563","836884","10.297145","2.873355","0.001704","796726","853216","830300","8.554355","2.327454","-0.007488","826573","858348","884837","6.693018","1.758526","-0.033494","747395","890262","961893","4.195074","1.003191","-0.160052","509","594","631","458","464","467","441","422","415","434","376","355","388","269","232","DualSpot on"
"MA200-0420","43208","72","1","1.10","1.6","2023-07-15T22:45:00","120","2023/07/15","22:45:00","-15.795652210712433","35.0027506663464","0.1","12","300","64","98","855","-26780","708","15","150","150.15","117.90","32.25","17.92","60.1","10.07","90760","17.88","DUALSPOT-UV-BLUE-GREEN-RED-IR","663219","672181","909864","17.015404","5.191629","0.014761","799954","873380","837883","10.385643","2.900535","0.014033","797384","854386","831637","8.631518","2.349967","0.009735","827043","859201","885868","6.757175","1.776690","0.006746","748460","891791","963678","4.235937","1.014346","-0.000589","598","737","799","556","624","651","543","579","593","545","565","572","484","483","482","DualSpot on"
"MA200-0420","43209","72","1","1.10","1.6","2023-07-15T22:50:00","120","2023/07/15","22:50:00","-15.795590460300446","35.00276916613802","0.1","12","300","64","98","959","-27028","936","15","150","150.35","117.49","32.86","17.89","60.3","10.08","90760","17.81","DUALSPOT-UV-BLUE-GREEN-RED-IR","661440","670791","908308","17.111174","5.225652","0.016361","798003","871694","836422","10.453063","2.919912","0.003515","795935","853187","830620","8.690751","2.367138","0.005485","833431","866148","893162","6.804393","1.789338","-0.008967","747292","890612","962430","4.266409","1.022063","-0.033329","478","608","664","425","437","441","418","433","439","403","386","380","362","328","317","DualSpot on"
"MA200-0420","43210","72","1","1.10","1.6","2023-07-15T22:55:00","120","2023/07/15","22:55:00","-15.795546174049377","35.00284916628152","0.4","12","300","64","98","880","-26944","620","15","150","150.15","117.69","32.45","17.89","60.4","10.10","90760","17.88","DUALSPOT-UV-BLUE-GREEN-RED-IR","659328","669028","906201","17.200654","5.257293","0.016806","795644","869474","834466","10.516479","2.940034","0.016451","798815","856599","834088","8.747057","2.384317","0.014585","830937","863837","890926","6.851185","1.803107","0.012179","746146","889426","961256","4.297228","1.030579","0.000643","446","572","628","399","459","483","397","439","455","398","425","435","365","366","366","DualSpot on"
"MA200-0420","43211","72","1","1.10","1.6","2023-07-15T23:00:00","120","2023/07/15","23:00:00","-15.795568645000458","35.00283766631037","0.3","12","300","64","98","1084","-27028","600","15","150","150.21","117.65","32.56","17.89","60.3","10.09","90760","17.88","DUALSPOT-UV-BLUE-GREEN-RED-IR","658933","668942","906393","17.283974","5.290127","0.021943","795585","869775","834935","10.579222","2.961075","0.021483","798905","857006","834626","8.801165","2.403122","0.029582","830451","863628","890808","6.897449","1.818167","0.028010","745858","889256","961189","4.329572","1.041337","0.048492","415","592","670","395","479","511","381","479","516","394","464","488","384","461","486","DualSpot on"
"MA200-0420","43212","72","1","1.10","1.6","2023-07-15T23:05:00","120","2023/07/15","23:05:00","-15.79558151960373","35.00279966625385","0.3","12","300","64","98","941","-27020","525","15","150","149.77","117.65","32.12","17.91","60.4","10.13","90760","17.88","DUALSPOT-UV-BLUE-GREEN-RED-IR","659653","670078","908216","17.375226","5.321111","0.014965","796621","871353","836602","10.649666","2.981746","0.008841","794359","852506","830389","8.864013","2.420628","0.003064","831739","865296","892648","6.948558","1.833231","0.014040","746602","890429","962500","4.365972","1.048824","-0.110030","455","566","615","443","477","490","443","452","455","435","470","482","432","325","291","DualSpot on"
"MA200-0420","43213","72","1","1.10","1.6","2023-07-15T23:10:00","120","2023/07/15","23:10:00","-15.795568645000458","35.002778499852866","0.2","13","300","64","98","1072","-27144","568","15","150","149.81","117.57","32.24","17.89","60.6","10.15","90756","17.88","DUALSPOT-UV-BLUE-GREEN-RED-IR","659310","670097","908494","17.456684","5.348018","0.013055","796757","871895","837283","10.713031","3.000396","0.008649","794106","852595","830617","8.920928","2.436858","0.005858","831562","865394","892874","6.995112","1.845185","-0.013479","746381","890381","962528","4.397638","1.055588","-0.093168","406","490","527","399","428","440","401","418","424","397","372","363","376","293","266","DualSpot on"
"MA200-0420","43214","72","1","1.10","1.6","2023-07-15T23:15:00","120","2023/07/15","23:15:00","-15.795596301555634","35.0027478330303","0.1","13","300","64","98","888","-26984","380","15","150","149.67","117.28","32.39","17.88","60.6","10.15","90760","17.81","DUALSPOT-UV-BLUE-GREEN-RED-IR","658778","669941","908548","17.542958","5.377275","0.014103","795896","871294","836866","10.776010","3.019464","0.010951","792851","851578","829752","8.975616","2.452409","0.004368","830161","864227","891785","7.038998","1.857091","-0.003483","750405","895368","968016","4.425804","1.063733","0.013198","432","530","574","398","436","451","387","398","402","375","368","366","335","351","356","DualSpot on"
"MA200-0420","43215","72","1","1.10","1.6","2023-07-15T23:20:00","120","2023/07/15","23:20:00","-15.795621156692505","35.00274633290246","0.2","13","300","64","98","820","-26784","-388","15","150","149.95","117.46","32.50","17.87","60.5","10.11","90752","17.81","DUALSPOT-UV-BLUE-GREEN-RED-IR","657237","669080","907859","17.695756","5.430814","0.015694","794276","870256","836202","10.892562","3.057146","0.017432","797327","856988","835299","9.078053","2.483898","0.014613","828948","863440","891232","7.123789","1.883172","0.018514","745359","889757","962068","4.483761","1.079535","-0.004344","764","967","1057","735","859","908","724","804","834","724","805","834","689","679","676","DualSpot on"
"MA200-0420","43216","72","1","1.10","1.6","2023-07-15T23:25:00","120","2023/07/15","23:25:00","-15.795637845993042","35.00275516626425","0.0","13","300","64","98","933","-27087","408","15","150","150.15","117.88","32.27","17.82","60.5","10.06","90752","17.75","DUALSPOT-UV-BLUE-GREEN-RED-IR","655261","667608","906259","17.827388","5.473964","0.012444","791123","867366","833708","10.996059","3.089094","0.013715","795804","855919","834451","9.168933","2.512163","0.017229","827710","862627","890556","7.199045","1.904853","0.009257","749091","894522","967367","4.534031","1.093239","-0.001199","655","785","842","650","734","766","640","727","760","640","674","686","595","593","592","DualSpot on"
"MA200-0420","43217","72","1","1.10","1.6","2023-07-15T23:30:00","120","2023/07/15","23:30:00","-15.795665323734283","35.002744832774624","0.2","13","300","64","98","800","-27062","754","15","150","149.95","117.38","32.57","17.77","60.4","10.00","90748","17.69","DUALSPOT-UV-BLUE-GREEN-RED-IR","653291","665982","904313","17.912380","5.503940","0.015693","795844","872930","839210","11.057482","3.109020","0.017211","794511","854795","833527","9.223045","2.531081","0.028586","826021","861100","889089","7.240506","1.916704","0.005411","748182","893585","966438","4.559583","1.100716","0.014661","425","540","591","387","453","479","382","482","519","354","365","368","304","320","325","DualSpot on"
"MA200-0420","43218","72","1","1.10","1.6","2023-07-15T23:35:00","120","2023/07/15","23:35:00","-15.795568645000458","35.00282949954271","0.0","13","300","64","98","928","-27040","760","15","150","150.28","117.53","32.74","17.72","60.6","9.99","90744","17.63","DUALSPOT-UV-BLUE-GREEN-RED-IR","656316","669504","909394","18.010318","5.535051","0.009351","793939","871274","837774","11.123961","3.129166","0.009790","792179","852631","831539","9.279564","2.545673","-0.012101","823961","859270","887323","7.286901","1.929198","-0.006514","746277","891484","964204","4.584099","1.106981","-0.026662","489","558","588","419","456","470","399","369","358","396","382","378","291","267","259","DualSpot on"
"MA200-0420","43219","72","1","1.10","1.6","2023-07-15T23:40:00","120","2023/07/15","23:40:00","-15.79563021659851","35.002749666105956","0.1","13","300","64","98","930","-26900","603","15","150","149.47","117.82","31.65","17.69","60.8","10.03","90744","17.63","DUALSPOT-UV-BLUE-GREEN-RED-IR","655549","669033","908978","18.081436","5.560383","0.017700","793021","870602","837228","11.176954","3.141707","-0.017761","791481","852196","831199","9.326762","2.558142","-0.002505","829321","865119","893407","7.325058","1.937950","-0.033860","745819","891121","963854","4.609827","1.113558","-0.014765","354","470","521","333","293","278","332","327","325","324","277","260","305","290","285","DualSpot on"
"MA200-0420","43220","72","1","1.10","1.6","2023-07-15T23:45:00","120","2023/07/15","23:45:00","-15.79566115140915","35.00273433304392","0.4","13","300","64","98","953","-26730","107","15","150","150.15","117.73","32.42","17.68","61.1","10.09","90752","17.63","DUALSPOT-UV-BLUE-GREEN-RED-IR","653520","667327","906843","18.155380","5.584257","0.010987","790814","868565","835397","11.235455","3.157210","-0.004910","794530","855820","834836","9.378644","2.571511","-0.010342","827045","863033","891354","7.369578","1.948119","-0.040937","744281","889481","962202","4.640768","1.120082","-0.096296","368","432","460","368","354","349","365","342","333","379","314","291","367","281","253","DualSpot on"
"MA200-0420","43221","72","1","1.10","1.6","2023-07-15T23:50:00","120","2023/07/15","23:50:00","-15.795750677585602","35.00263133319095","0.4","13","300","64","98","959","-26660","596","15","150","150.15","117.65","32.49","17.69","61.2","10.11","90748","17.69","DUALSPOT-UV-BLUE-GREEN-RED-IR","655368","669445","909989","18.220958","5.610424","0.021471","793492","871755","838575","11.281705","3.171438","0.012119","791269","852538","831785","9.420612","2.584433","0.014505","822645","858626","886890","7.405184","1.960420","0.034352","746067","891795","964738","4.666290","1.126028","-0.055690","327","472","537","291","324","337","296","330","343","303","379","407","303","255","240","DualSpot on"
"MA200-0420","43222","72","1","1.10","1.6","2023-07-15T23:55:00","120","2023/07/15","23:55:00","-15.795725524425507","35.002753832843155","0.1","13","300","64","98","936","-26908","228","15","150","149.67","117.90","31.77","17.69","61.3","10.15","90744","17.69","DUALSPOT-UV-BLUE-GREEN-RED-IR","653992","668336","908680","18.287006","5.634266","0.018008","791366","869731","836767","11.330080","3.184861","0.003513","789786","851217","830578","9.464606","2.595365","-0.012686","820062","856194","884473","7.441291","1.969298","-0.018142","744307","889823","962671","4.690798","1.132308","-0.014715","329","440","490","304","313","316","309","285","276","307","280","270","290","276","271","DualSpot on"
"MA200-0420","43223","72","1","1.10","1.6","2023-07-16T00:00:00","120","2023/07/16","00:00:00","-15.795640289783478","35.002742832992226","0.1","13","300","64","98","1044","-27063","544","15","150","150.42","117.86","32.56","17.69","61.5","10.19","90740","17.63","DUALSPOT-UV-BLUE-GREEN-RED-IR","654866","669621","910661","18.369858","5.659652","0.007418","792496","871429","838530","11.397763","3.203154","-0.002726","791035","852930","832408","9.523181","2.611846","0.002608","821939","858443","886926","7.490583","1.982759","-0.002116","745878","891970","965056","4.726560","1.140666","-0.053894","412","457","478","425","416","412","412","420","423","419","414","413","423","358","337","DualSpot on"
"MA200-0420","43224","72","1","1.10","1.6","2023-07-16T00:05:00","120","2023/07/16","00:05:00","-15.795671164989471","35.00272766617127","0.2","12","300","64","98","916","-26780","215","15","150","150.07","118.26","31.81","17.69","61.6","10.21","90740","17.63","DUALSPOT-UV-BLUE-GREEN-RED-IR","654209","669252","910353","18.438790","5.681700","0.011634","791679","870864","838130","11.453022","3.219122","0.008166","790402","852526","832116","9.573130","2.625370","0.000927","821949","858713","887286","7.531610","1.992969","-0.015047","745550","891785","964922","4.756147","1.146391","-0.123331","342","407","435","346","372","382","350","352","353","348","322","312","349","251","220","DualSpot on"
"MA200-0420","43225","72","1","1.10","1.6","2023-07-16T00:10:00","120","2023/07/16","00:10:00","-15.795639991760254","35.00275933300145","0.0","13","300","64","98","932","-27147","884","15","150","149.89","117.61","32.27","17.69","61.6","10.22","90724","17.69","DUALSPOT-UV-BLUE-GREEN-RED-IR","652449","667695","908491","18.503124","5.709026","0.023894","789698","868952","836452","11.500143","3.236175","0.026727","789398","851688","831435","9.616989","2.641421","0.032769","820412","857299","885931","7.567094","2.004967","0.031728","744745","890952","964057","4.780205","1.153022","0.001232","321","497","575","297","391","428","309","412","452","302","372","398","285","287","287","DualSpot on"
"MA200-0420","43226","72","1","1.10","1.6","2023-07-16T00:15:00","120","2023/07/16","00:15:00","-15.795673608779907","35.00278549967334","0.1","13","300","64","98","892","-26903","540","15","150","150.28","118.01","32.27","17.73","61.6","10.25","90728","17.75","DUALSPOT-UV-BLUE-GREEN-RED-IR","653783","669301","910884","18.561272","5.730972","0.019120","791700","871409","838924","11.545404","3.250468","0.015362","790144","852759","832533","9.655744","2.651912","-0.001457","822528","859747","888531","7.600917","2.014736","0.009352","746097","892733","966082","4.804323","1.160440","0.029385","289","399","448","284","328","345","272","269","268","287","303","309","285","321","332","DualSpot on"
"MA200-0420","43227","72","1","1.10","1.6","2023-07-16T00:20:00","120","2023/07/16","00:20:00","-15.795702338218689","35.00272999983281","0.1","12","300","64","98","887","-26916","587","15","150","149.96","117.43","32.53","17.76","61.4","10.24","90724","17.75","DUALSPOT-UV-BLUE-GREEN-RED-IR","649144","664838","905075","18.632266","5.757957","0.018780","792611","872702","840340","11.599001","3.268677","0.020656","790811","853754","833664","9.704074","2.668321","0.024446","822850","860320","889239","7.641539","2.027426","0.019366","745922","892745","966146","4.832918","1.167212","-0.048986","355","487","546","338","414","444","341","418","447","347","391","407","340","290","275","DualSpot on"
"MA200-0420","43228","72","1","1.10","1.6","2023-07-16T00:25:00","120","2023/07/16","00:25:00","-15.795604646205902","35.00278616626747","0.0","13","300","64","98","836","-26836","308","15","150","149.53","117.61","31.92","17.77","61.3","10.23","90724","17.75","DUALSPOT-UV-BLUE-GREEN-RED-IR","648382","664337","904577","18.694934","5.780214","0.016515","791545","871821","839611","11.648504","3.284347","0.016143","799728","863667","843438","9.746056","2.678299","-0.021227","822155","859780","888771","7.674935","2.037395","0.015582","745539","892448","965894","4.858026","1.173019","-0.049817","312","409","452","312","363","384","296","259","245","284","313","323","298","254","240","DualSpot on"
"MA200-0420","43229","72","1","1.10","1.6","2023-07-16T00:30:00","120","2023/07/16","00:30:00","-15.795546352863312","35.00279133301228","0.1","13","300","64","98","959","-26988","435","15","150","150.15","117.86","32.29","17.77","61.1","10.17","90724","17.75","DUALSPOT-UV-BLUE-GREEN-RED-IR","648256","664480","904973","18.759384","5.803406","0.016645","791548","872102","840012","11.695148","3.302431","0.031344","789804","853151","833315","9.787740","2.696687","0.046714","821791","859588","888681","7.709221","2.049817","0.039600","745714","892766","966345","4.881132","1.180128","0.028613","321","421","467","293","415","463","293","472","540","291","386","420","273","307","318","DualSpot on"
"MA200-0420","43230","72","1","1.10","1.6","2023-07-16T00:35:00","120","2023/07/16","00:35:00","-15.795733213424683","35.00271683302708","0.1","13","300","64","98","904","-26912","516","15","150","150.08","117.69","32.39","17.76","60.8","10.09","90716","17.75","DUALSPOT-UV-BLUE-GREEN-RED-IR","647206","663810","904338","18.852954","5.837509","0.016956","790705","871541","839691","11.762040","3.325993","0.023866","789108","852690","832998","9.844125","2.714831","0.019244","820827","858834","888054","7.754052","2.064053","0.022352","744970","892109","965671","4.911873","1.188812","0.006896","466","618","686","421","539","585","397","465","490","382","440","462","364","374","377","DualSpot on"
"MA200-0420","43231","72","1","1.10","1.6","2023-07-16T00:40:00","120","2023/07/16","00:40:00","-15.79566866159439","35.002753499662504","0.1","13","300","64","98","916","-26872","380","15","150","150.60","118.05","32.55","17.69","61.1","10.09","90716","17.63","DUALSPOT-UV-BLUE-GREEN-RED-IR","648852","666056","907716","18.970040","5.869543","-0.000609","786499","867450","835878","11.843647","3.344124","-0.031352","790335","854501","834923","9.914218","2.731931","-0.019097","816635","854843","883992","7.810040","2.075590","-0.067209","741916","888672","962031","4.944301","1.195276","-0.116545","582","577","575","512","412","373","492","436","414","475","355","312","383","277","243","DualSpot on"
"MA200-0420","43232","72","1","1.10","1.6","2023-07-16T00:45:00","120","2023/07/16","00:45:00","-15.795668005943298","35.00276166643016","0.1","13","300","64","98","863","-26800","284","15","150","150.21","117.65","32.56","17.68","61.2","10.12","90708","17.63","DUALSPOT-UV-BLUE-GREEN-RED-IR","648755","666622","908940","19.115688","5.917185","0.010913","786495","868091","836794","11.949567","3.377288","0.012958","786255","850629","831344","10.006139","2.758312","0.004868","824028","863014","892674","7.884988","2.097881","0.011720","743241","890594","964219","4.992307","1.208118","-0.009233","727","859","918","667","755","789","648","672","681","639","686","704","569","550","544","DualSpot on"
"MA200-0420","43233","72","1","1.10","1.6","2023-07-16T00:50:00","120","2023/07/16","00:50:00","-15.795621573925018","35.00277433288284","0.1","13","300","64","98","850","-26866","687","15","150","149.87","117.90","31.97","17.64","61.3","10.11","90704","17.56","DUALSPOT-UV-BLUE-GREEN-RED-IR","647436","665779","908129","19.233650","5.955600","0.011720","784720","866690","835668","12.039895","3.403175","0.006093","790101","855290","836091","10.084885","2.780747","0.006477","816764","855839","885430","7.952383","2.115848","-0.002970","742603","890075","963787","5.035061","1.217411","-0.070388","587","705","758","567","600","612","554","582","593","573","563","560","506","406","374","DualSpot on"
"MA200-0420","43234","72","1","1.10","1.6","2023-07-16T00:55:00","120","2023/07/16","00:55:00","-15.795615255832672","35.002805166179314","0.2","13","300","64","98","937","-26837","50","15","150","149.65","117.54","32.11","17.60","61.4","10.08","90700","17.56","DUALSPOT-UV-BLUE-GREEN-RED-IR","645596","664378","906542","19.341152","5.991886","0.013158","783111","865365","834553","12.115771","3.427595","0.016426","783897","848941","830062","10.153026","2.802306","0.017662","822078","861735","891654","8.006840","2.130956","0.002602","741913","889519","963250","5.070202","1.227027","0.000455","537","663","720","478","563","597","481","557","586","464","472","474","417","418","418","DualSpot on"
"MA200-0420","43235","72","1","1.10","1.6","2023-07-16T01:00:00","120","2023/07/16","01:00:00","-15.795636892318726","35.0027881662827","0.1","13","300","64","98","924","-26888","336","15","150","150.02","117.69","32.32","17.55","61.5","10.06","90692","17.50","DUALSPOT-UV-BLUE-GREEN-RED-IR","644234","663389","905509","19.440258","6.027168","0.015451","788190","871400","840557","12.185233","3.447813","0.006315","787341","853054","834245","10.213672","2.820682","0.012224","820822","860763","890766","8.057498","2.145770","0.010069","745704","894256","968479","5.105440","1.237381","0.016523","494","641","706","437","463","474","427","471","488","431","459","469","418","447","456","DualSpot on"
"MA200-0420","43236","72","1","1.10","1.6","2023-07-16T01:05:00","120","2023/07/16","01:05:00","-15.795679450035095","35.00276383315213","0.4","14","300","64","98","800","-27068","604","15","150","149.52","117.31","32.21","17.54","61.5","10.05","90692","17.50","DUALSPOT-UV-BLUE-GREEN-RED-IR","643442","662885","905114","19.522904","6.058368","0.018039","787312","870743","840132","12.246678","3.469962","0.024812","786281","852225","833571","10.267228","2.838564","0.022392","819273","859387","889474","8.101775","2.160378","0.026605","744528","893031","967250","5.133806","1.244947","-0.007638","413","568","638","388","509","557","379","460","492","378","454","482","337","328","325","DualSpot on"
"MA200-0420","43237","72","1","1.10","1.6","2023-07-16T01:10:00","120","2023/07/16","01:10:00","-15.795703649520874","35.00264283292927","0.1","14","300","64","98","867","-26844","636","15","150","150.41","117.97","32.44","17.54","61.3","10.01","90692","17.50","DUALSPOT-UV-BLUE-GREEN-RED-IR","642961","662741","905197","19.601932","6.091217","0.021734","786990","870736","840291","12.303109","3.490329","0.024692","786072","852255","833754","10.318536","2.857482","0.031054","819124","859429","889693","8.144129","2.175888","0.038269","739673","887433","961248","5.164922","1.254282","0.020780","393","594","685","354","465","509","361","484","531","360","479","523","368","402","412","DualSpot on"
"MA200-0420","43238","72","1","1.10","1.6","2023-07-16T01:15:00","120","2023/07/16","01:15:00","-15.79567700624466","35.00270499964245","0.1","14","300","64","98","976","-27068","720","15","150","149.41","117.69","31.72","17.55","61.2","10.00","90692","17.56","DUALSPOT-UV-BLUE-GREEN-RED-IR","642531","662587","905260","19.676006","6.119474","0.019120","786605","870590","840294","12.356325","3.508347","0.021338","785880","852313","833933","10.364470","2.871519","0.015079","818877","859435","889751","8.182680","2.186575","0.004591","744437","893307","967669","5.191585","1.262133","0.021002","369","523","592","335","421","455","324","367","384","328","338","341","316","345","355","DualSpot on"
"MA200-0420","43239","72","1","1.10","1.6","2023-07-16T01:20:00","120","2023/07/16","01:20:00","-15.795627236366272","35.00276449974626","0.3","13","300","64","98","992","-26847","136","15","150","149.32","117.34","31.98","17.58","61.0","9.97","90692","17.56","DUALSPOT-UV-BLUE-GREEN-RED-IR","642562","662921","905947","19.747310","6.145292","0.016354","780686","864324","834402","12.408026","3.527093","0.025452","785846","852503","834279","10.410665","2.887892","0.028215","819663","860452","890925","8.218486","2.199262","0.035369","744367","893406","967867","5.218456","1.270049","0.018504","356","474","527","326","434","477","326","425","462","306","398","431","319","345","354","DualSpot on"
"MA200-0420","43240","72","1","1.10","1.6","2023-07-16T01:25:00","120","2023/07/16","01:25:00","-15.795625567436218","35.0027436662931","0.4","13","300","64","98","887","-26970","616","15","150","150.35","117.65","32.70","17.56","60.9","9.94","90684","17.50","DUALSPOT-UV-BLUE-GREEN-RED-IR","641772","662465","905568","19.828372","6.174133","0.014585","786265","870864","840854","12.462840","3.543776","0.009416","784995","851900","833788","10.457413","2.901882","0.009181","818162","859131","889656","8.259659","2.210926","0.003122","743703","892777","967229","5.244777","1.275783","-0.076209","404","518","569","345","378","391","329","355","364","351","357","360","312","244","223","DualSpot on"
"MA200-0420","43241","72","1","1.10","1.6","2023-07-16T01:30:00","120","2023/07/16","01:30:00","-15.795646846294403","35.002749332692474","0.1","13","300","64","98","940","-26844","876","15","150","149.63","117.34","32.29","17.54","60.9","9.90","90680","17.50","DUALSPOT-UV-BLUE-GREEN-RED-IR","639896","661571","905018","20.058170","6.248813","0.010378","784039","869565","840130","12.658876","3.605795","0.013671","783181","850947","833323","10.634045","2.956199","0.013165","816033","857812","888683","8.410095","2.255227","0.010400","742706","892283","967004","5.352886","1.305119","-0.003494","1150","1358","1452","1238","1423","1497","1249","1396","1453","1286","1376","1409","1287","1269","1263","DualSpot on"
"MA200-0420","43242","72","1","1.10","1.6","2023-07-16T01:35:00","120","2023/07/16","01:35:00","-15.795584857463837","35.00284433318302","0.6","13","300","64","98","940","-26832","316","15","150","150.08","117.92","32.17","17.51","60.9","9.87","90680","17.44","DUALSPOT-UV-BLUE-GREEN-RED-IR","643366","665604","910895","20.166290","6.285789","0.013354","782182","868008","838832","12.745093","3.630936","0.006902","781924","850075","832636","10.712157","2.979183","0.009168","814217","856279","887258","8.475829","2.273815","0.005619","741671","891312","966038","5.395500","1.314692","-0.056416","538","675","737","542","579","594","549","593","609","559","579","587","504","415","387","DualSpot on"
"MA200-0420","43243","72","1","1.10","1.6","2023-07-16T01:40:00","120","2023/07/16","01:40:00","-15.795580804347992","35.00270183291286","0.1","13","300","64","98","929","-26862","337","15","150","149.90","117.58","32.32","17.48","61.0","9.86","90676","17.44","DUALSPOT-UV-BLUE-GREEN-RED-IR","642148","664645","909847","20.242966","6.311813","0.012564","780669","866666","837682","12.803263","3.649366","0.013738","781178","849558","832273","10.761725","2.992695","-0.001079","813196","855454","886529","8.514742","2.284747","0.003435","741101","890831","965563","5.421055","1.321358","-0.013343","383","472","513","366","422","445","350","347","345","332","339","342","303","288","283","DualSpot on"
"MA200-0420","43244","72","1","1.10","1.6","2023-07-16T01:45:00","120","2023/07/16","01:45:00","-15.795639455318451","35.00273749954067","0.3","13","300","64","98","840","-26752","328","15","150","149.79","117.18","32.61","17.47","61.0","9.86","90676","17.44","DUALSPOT-UV-BLUE-GREEN-RED-IR","640909","664220","909836","20.430946","6.376081","0.012198","778655","865358","836844","12.958081","3.697777","0.011369","779550","848602","831716","10.901410","3.036326","0.013290","812244","855169","886511","8.633422","2.320442","0.011503","740418","890529","965465","5.502073","1.342590","-0.015231","942","1157","1255","979","1100","1148","989","1110","1157","1016","1098","1128","965","909","891","DualSpot on"
"MA200-0420","43245","72","1","1.10","1.6","2023-07-16T01:50:00","120","2023/07/16","01:50:00","-15.795561015605927","35.0028159993235","0.6","14","300","64","98","876","-26916","264","15","150","149.74","117.57","32.17","17.46","60.9","9.83","90680","17.44","DUALSPOT-UV-BLUE-GREEN-RED-IR","639912","663562","909211","20.525128","6.410568","0.016067","778135","865198","836905","13.032029","3.724092","0.022734","779493","848880","832153","10.965529","3.058904","0.025966","812092","855330","886851","8.687665","2.337373","0.018596","740095","890374","965406","5.540846","1.354520","0.025560","470","629","702","466","606","662","452","582","633","462","528","552","460","518","536","DualSpot on"
"MA200-0420","43246","72","1","1.10","1.6","2023-07-16T01:55:00","120","2023/07/16","01:55:00","-15.79558265209198","35.00277749961242","0.1","12","300","64","98","936","-26768","344","15","150","150.15","118.26","31.89","17.41","61.0","9.81","90676","17.38","DUALSPOT-UV-BLUE-GREEN-RED-IR","637681","661571","906651","20.590470","6.430418","0.007556","775921","863042","834891","13.081029","3.737247","-0.000459","777372","846862","830239","11.009048","3.070676","0.000410","816903","860641","892381","8.721582","2.344988","-0.034028","738967","889158","964102","5.559961","1.358334","-0.094352","324","365","384","307","305","305","305","306","306","287","239","221","225","167","148","DualSpot on"
"MA200-0420","43247","72","1","1.10","1.6","2023-07-16T02:00:00","120","2023/07/16","02:00:00","-15.795715749263763","35.00282366620377","0.1","12","300","64","98","816","-26947","444","15","150","149.95","117.57","32.38","17.38","61.1","9.80","90676","17.31","DUALSPOT-UV-BLUE-GREEN-RED-IR","637031","661164","906336","20.658916","6.455139","0.015095","775335","862664","834682","13.131579","3.754592","0.019512","781426","851533","834967","11.054537","3.084916","0.014423","816369","860268","892121","8.757530","2.356459","0.020382","738120","888277","963231","5.582649","1.364564","-0.000698","341","448","496","318","397","428","321","365","382","306","355","373","269","268","268","DualSpot on"
"MA200-0420","43248","72","1","1.10","1.6","2023-07-16T02:05:00","120","2023/07/16","02:05:00","-15.795563995838165","35.002793833147734","0.1","12","300","64","98","866","-26920","458","15","150","150.22","118.11","32.11","17.38","60.9","9.76","90672","17.38","DUALSPOT-UV-BLUE-GREEN-RED-IR","636692","661109","906567","20.736030","6.487634","0.021439","775102","862699","834897","13.186047","3.774816","0.025694","781186","851513","835106","11.100758","3.103268","0.035125","815655","859741","891727","8.797361","2.371233","0.037824","738112","888401","963474","5.609991","1.376457","0.078947","383","594","690","341","466","517","324","474","532","338","461","507","323","517","580","DualSpot on"
"MA200-0420","43249","72","1","1.10","1.6","2023-07-16T02:10:00","120","2023/07/16","02:10:00","-15.795641124248505","35.00266466639005","0.3","12","300","64","98","888","-26916","524","15","150","150.21","117.85","32.36","17.38","61.0","9.77","90668","17.31","DUALSPOT-UV-BLUE-GREEN-RED-IR","635537","660266","905628","20.813618","6.513447","0.011311","779684","868186","840333","13.242765","3.792220","0.010674","780209","850730","834466","11.148963","3.116363","-0.001355","814350","858580","890629","8.836946","2.382509","0.005504","737327","887646","962707","5.635900","1.382288","-0.055699","386","468","505","356","398","415","339","335","334","336","349","354","307","251","233","DualSpot on"
"MA200-0420","43250","72","1","1.10","1.6","2023-07-16T02:15:00","120","2023/07/16","02:15:00","-15.795553624629974","35.00281049963087","0.4","12","300","64","98","855","-26875","768","15","150","150.08","118.03","32.05","17.33","61.2","9.78","90668","17.25","DUALSPOT-UV-BLUE-GREEN-RED-IR","633688","658763","903817","20.904728","6.540918","0.006615","777955","866665","839026","13.309171","3.810823","0.003178","778715","849482","833338","11.205945","3.131353","-0.004052","812875","857331","889440","8.881517","2.392921","-0.026639","740806","892044","967525","5.662531","1.387744","-0.085157","453","503","526","417","430","435","400","388","383","378","325","306","315","237","212","DualSpot on"
