"Serial number","Datum ID","Session ID","Data format version","Firmware version","App version","Date / time local","Timezone offset (mins)","Date local (yyyy/MM/dd)","Time local (hh:mm:ss)","GPS lat (ddmm.mmmmm)","GPS long (dddmm.mmmmm)","GPS speed (km/h)","GPS sat count","Timebase (s)","Status","Battery remaining (%)","Accel X","Accel Y","Accel Z","Tape position","Flow setpoint (mL/min)","Flow total (mL/min)","Flow1 (mL/min)","Flow2 (mL/min)","Sample temp (C)","Sample RH (%)","Sample dewpoint (C)","Internal pressure (Pa)","Internal temp (C)","Optical config","UV Sen1","UV Sen2","UV Ref","UV ATN1","UV ATN2","UV K","Blue Sen1","Blue Sen2","Blue Ref","Blue ATN1","Blue ATN2","Blue K","Green Sen1","Green Sen2","Green Ref","Green ATN1","Green ATN2","Green K","Red Sen1","Red Sen2","Red Ref","Red ATN1","Red ATN2","Red K","IR Sen1","IR Sen2","IR Ref","IR ATN1","IR ATN2","IR K","UV BC1","UV BC2","UV BCc","Blue BC1","Blue BC2","Blue BCc","Green BC1","Green BC2","Green BCc","Red BC1","Red BC2","Red BCc","IR BC1","IR BC2","IR BCc","Readable status"
"MA200-0420","44950","74","1","1.10","1.6","2023-07-24T09:05:00","120","2023/07/24","09:05:00","-15.795640170574188","35.00273183290847","0.3","12","300","66","98","-724","-26991","-244","1","150","149.52","115.58","33.95","25.60","56.1","16.19","90708","26.25","DUALSPOT-UV-BLUE-GREEN-RED-IR","814989","716366","908680","0.000000","0.000000","0.000000","905085","902500","835172","0.000000","0.000000","0.000000","888355","882228","833692","0.000000","0.000000","0.000000","904613","884825","892218","0.000000","0.000000","0.000000","782215","896966","962547","0.000000","0.000000","0.000000","","","","","","","","","","","","","","","","Start up-DualSpot on"
"MA200-0420","44951","74","1","1.10","1.6","2023-07-24T09:10:00","120","2023/07/24","09:10:00","-15.795572459697723","35.00269266613759","0.2","12","300","66","98","-876","-27003","-252","1","150","149.89","116.15","33.73","25.76","55.6","16.21","90708","26.38","DUALSPOT-UV-BLUE-GREEN-RED-IR","802085","710688","904986","0.000000","0.000000","0.000000","902061","903531","838345","0.000000","0.000000","0.000000","879880","877068","830615","0.000000","0.000000","0.000000","896596","879447","888319","0.000000","0.000000","0.000000","782098","898681","965221","0.000000","0.000000","0.000000","","","","","","","","","","","","","","","","Start up-DualSpot on"
"MA200-0420","44952","74","1","1.10","1.6","2023-07-24T09:15:00","120","2023/07/24","09:15:00","-15.795683681964874","35.00274416641332","0.0","11","300","64","98","-716","-27137","470","1","150","150.21","116.27","33.94","25.95","53.5","15.79","90704","26.56","DUALSPOT-UV-BLUE-GREEN-RED-IR","795888","710727","908254","0.000000","0.000000","0.000000","892258","897982","834934","0.000000","0.000000","0.000000","877451","878041","833017","0.000000","0.000000","0.000000","888745","874406","884444","0.000000","0.000000","0.000000","777083","894681","961740","0.000000","0.000000","0.000000","","","","","","","","","","","","","","","","DualSpot on"
"MA200-0420","44953","74","1","1.10","1.6","2023-07-24T09:20:00","120","2023/07/24","09:20:00","-15.79567688703537","35.00269249943085","0.2","11","300","64","97","-700","-27087","-50","1","150","149.82","116.07","33.75","26.09","52.3","15.55","90700","26.75","DUALSPOT-UV-BLUE-GREEN-RED-IR","789074","709845","910044","1.059663","0.324396","0.000000","887397","897111","835702","0.638264","0.190746","0.000000","873906","877773","833986","0.524383","0.153308","0.000000","886759","874963","886027","0.405687","0.118806","0.000000","780053","899770","967893","0.258287","0.071065","0.000000","5362","5645","5362","4076","4190","4076","3750","3771","3750","3506","3531","3506","3108","2941","3108","DualSpot on"
"MA200-0420","44954","74","1","1.10","1.6","2023-07-24T09:25:00","120","2023/07/24","09:25:00","-15.795653522014618","35.00270066643134","0.2","11","300","64","97","-656","-27163","400","1","150","149.69","115.68","34.01","26.27","51.4","15.45","90700","26.88","DUALSPOT-UV-BLUE-GREEN-RED-IR","780541","707011","909258","2.058354","0.635538","0.000000","882254","895688","835902","1.244008","0.373530","0.000000","868120","875013","832607","1.021683","0.301235","0.000000","888310","878863","890997","0.791438","0.232496","0.000000","776323","897124","965656","0.507673","0.138296","0.000000","5070","5373","5070","3881","3983","3881","3569","3610","3569","3345","3353","3345","3011","2761","3011","DualSpot on"
"MA200-0420","44955","74","1","1.10","1.6","2023-07-24T09:30:00","120","2023/07/24","09:30:00","-15.79564356803894","35.00270383292809","0.1","11","300","64","98","-716","-27008","239","1","150","150.21","115.48","34.73","26.42","50.4","15.29","90700","27.06","DUALSPOT-UV-BLUE-GREEN-RED-IR","771939","703647","907555","2.983623","0.926578","0.000000","882734","899742","841129","1.815420","0.545716","0.000000","862762","872496","831356","1.492864","0.440752","0.000000","882784","875664","888696","1.157842","0.340436","0.000000","772291","894004","962973","0.746536","0.202693","0.000000","4706","4922","4706","3668","3675","3668","3387","3335","3387","3183","3118","3183","2889","2590","2889","DualSpot on"
"MA200-0420","44956","74","1","1.10","1.6","2023-07-24T09:35:00","120","2023/07/24","09:35:00","-15.795757949352264","35.002746833022684","0.0","11","300","64","98","-744","-27024","128","1","150","149.95","115.88","34.08","26.61","49.9","15.29","90696","27.25","DUALSPOT-UV-BLUE-GREEN-RED-IR","764090","700784","906405","3.879882","1.209041","0.024320","876464","896843","839784","2.366852","0.706994","0.000000","862450","875018","834858","1.947599","0.569355","0.000000","877936","873068","886961","1.512189","0.440269","0.000000","773284","896685","966404","0.976751","0.260980","0.000000","4543","4868","5016","3527","3508","3527","3258","3133","3258","3068","2939","3068","2775","2389","2775","DualSpot on"
"MA200-0420","44957","74","1","1.10","1.6","2023-07-24T09:40:00","120","2023/07/24","09:40:00","-15.795695662498474","35.00273699965328","0.1","10","300","64","97","-676","-27068","136","1","150","149.56","115.60","33.96","26.62","48.7","14.91","90704","27.00","DUALSPOT-UV-BLUE-GREEN-RED-IR","760188","701350","909660","4.748945","1.483926","0.021123","867453","890877","835581","2.901661","0.873112","0.000000","855255","870378","831517","2.385467","0.701856","0.000000","877685","874899","889689","1.848365","0.539803","0.000000","768610","892663","962610","1.190534","0.319724","0.000000","4415","4754","4908","3429","3626","3429","3144","3239","3144","2917","2940","2917","2583","2416","2583","DualSpot on"
"MA200-0420","44958","74","1","1.10","1.6","2023-07-24T09:45:00","120","2023/07/24","09:45:00","-15.795659720897675","35.00270799943246","0.1","10","300","64","98","-662","-27087","104","1","150","149.52","116.10","33.42","26.60","47.9","14.66","90696","27.00","DUALSPOT-UV-BLUE-GREEN-RED-IR","752816","697996","907509","5.490366","1.728147","0.031693","862975","889123","835165","3.369963","1.021498","0.037499","851455","868833","831027","2.774161","0.821960","0.000000","874366","873400","888978","2.149892","0.631463","0.000000","771774","897518","968412","1.377475","0.374359","0.000000","3750","4292","4540","2990","3291","3422","2779","2983","2779","2605","2751","2605","2249","2283","2249","DualSpot on"
"MA200-0420","44959","74","1","1.10","1.6","2023-07-24T09:50:00","120","2023/07/24","09:50:00","-15.795549929141998","35.00271966611035","0.1","9","300","64","97","-692","-27056","320","1","150","149.56","115.64","33.92","26.60","47.5","14.53","90688","27.00","DUALSPOT-UV-BLUE-GREEN-RED-IR","747474","696573","907939","6.245645","1.980129","0.026807","858356","887307","834745","3.853506","1.174741","0.026897","848159","867858","831140","3.175139","0.947361","0.027130","872013","872956","889385","2.463308","0.726439","0.000000","765741","891700","962642","1.570011","0.429811","0.000000","3836","4363","4607","3099","3349","3458","2878","3069","3150","2719","2809","2719","2325","2283","2325","DualSpot on"
"MA200-0420","44960","74","1","1.10","1.6","2023-07-24T09:55:00","120","2023/07/24","09:55:00","-15.795561015605927","35.00269416626543","0.2","9","300","64","98","-736","-27032","152","1","150","149.50","115.61","33.89","26.62","47.2","14.45","90684","27.13","DUALSPOT-UV-BLUE-GREEN-RED-IR","740537","693832","906856","7.059513","2.251793","0.023955","852603","884515","833493","4.373694","1.337522","0.020242","843837","866031","830502","3.607660","1.078832","0.013845","868011","871039","888331","2.802117","0.827011","0.000000","763267","890176","961612","1.784528","0.492336","0.000000","4134","4707","4976","3335","3560","3659","3106","3220","3269","2940","2977","2940","2592","2577","2592","DualSpot on"
"MA200-0420","44961","74","1","1.10","1.6","2023-07-24T10:00:00","120","2023/07/24","10:00:00","-15.795621156692505","35.002702499506995","0.3","9","300","64","98","-664","-27000","68","1","150","150.35","115.71","34.64","26.76","47.4","14.63","90680","27.44","DUALSPOT-UV-BLUE-GREEN-RED-IR","735519","692717","907817","7.843820","2.517980","0.020960","849190","884013","834263","4.871482","1.489651","0.005959","840612","865254","830776","4.020369","1.200944","-0.004237","865708","870715","888825","3.126815","0.920079","-0.020563","761463","889435","961368","1.994587","0.548820","0.000000","3981","4513","4764","3189","3255","3284","2961","2926","2911","2815","2695","2645","2536","2277","2536","DualSpot on"
"MA200-0420","44962","74","1","1.10","1.6","2023-07-24T10:05:00","120","2023/07/24","10:05:00","-15.795640170574188","35.00275699957274","0.2","10","300","64","98","-712","-27004","166","1","150","150.02","115.54","34.48","26.99","47.4","14.84","90680","27.75","DUALSPOT-UV-BLUE-GREEN-RED-IR","726674","688545","905202","8.761927","2.834129","0.021131","847987","886201","837783","5.428451","1.659023","0.004871","839427","866880","833454","4.481041","1.335925","-0.005971","866369","873607","892693","3.485114","1.022868","-0.016683","761626","891237","963898","2.231571","0.609036","0.000000","4667","5384","5727","3573","3641","3670","3310","3249","3224","3111","2990","2940","2865","2439","2865","DualSpot on"
"MA200-0420","44963","74","1","1.10","1.6","2023-07-24T10:10:00","120","2023/07/24","10:10:00","-15.79568737745285","35.002722332952544","0.6","11","300","64","97","-736","-27116","24","1","150","149.81","115.67","34.14","27.25","47.4","15.08","90668","28.00","DUALSPOT-UV-BLUE-GREEN-RED-IR","719308","685989","905021","9.768536","3.189594","0.023120","842767","884399","837659","6.034654","1.852035","0.016913","834735","864967","832823","4.978060","1.487654","0.009380","855554","865023","884944","3.868112","1.137689","0.005648","758385","889019","962166","2.484029","0.679711","0.000000","5111","6115","6602","3885","4191","4326","3567","3690","3742","3322","3374","3396","3049","2892","3049","DualSpot on"
"MA200-0420","44964","74","1","1.10","1.6","2023-07-24T10:15:00","120","2023/07/24","10:15:00","-15.79564517736435","35.00271533289924","0.2","13","300","64","97","-704","-27163","208","1","150","149.56","115.95","33.61","27.49","46.6","15.03","90664","28.25","DUALSPOT-UV-BLUE-GREEN-RED-IR","716727","686745","908369","10.495371","3.446947","0.023649","836674","880721","835424","6.494284","2.000087","0.021356","833072","865524","834357","5.356781","1.602334","0.011222","854825","866118","886848","4.167997","1.226970","0.008927","757346","889156","962823","2.685667","0.732272","0.000000","3681","4498","4897","2938","3265","3411","2711","2833","2885","2594","2665","2694","2429","2184","2429","DualSpot on"
"MA200-0420","44965","74","1","1.10","1.6","2023-07-24T10:20:00","120","2023/07/24","10:20:00","-15.79562920331955","35.00273933284916","0.2","13","300","64","98","-704","-27050","212","1","150","150.34","116.35","33.99","27.66","45.9","14.96","90660","28.31","DUALSPOT-UV-BLUE-GREEN-RED-IR","707331","680900","902975","11.220900","3.706482","0.022369","833891","880547","836533","6.959023","2.150124","0.018960","826115","860609","830618","5.742970","1.723462","0.016564","854245","867347","888927","4.469577","1.317077","0.006969","756285","889223","963385","2.886722","0.785339","0.000000","3662","4484","4890","2961","3272","3411","2755","2958","3045","2600","2659","2684","2413","2180","2413","DualSpot on"
"MA200-0420","44966","74","1","1.10","1.6","2023-07-24T10:25:00","120","2023/07/24","10:25:00","-15.795632362365723","35.00277949962765","0.1","13","300","64","97","-716","-26891","733","1","150","150.15","115.72","34.43","27.69","45.2","14.74","90648","28.13","DUALSPOT-UV-BLUE-GREEN-RED-IR","707556","684028","909336","11.885958","3.945089","0.019819","829934","878928","836130","7.394464","2.295255","0.020080","827563","864237","835107","6.104586","1.837563","0.013055","851005","865743","888038","4.754230","1.404978","0.010741","758964","893549","968588","3.069351","0.837337","-0.020489","3375","4070","4415","2789","3125","3276","2594","2751","2819","2467","2561","2600","2204","2109","2074","DualSpot on"
"MA200-0420","44967","74","1","1.10","1.6","2023-07-24T10:30:00","120","2023/07/24","10:30:00","-15.795583546161652","35.00274116615765","0.2","12","300","64","97","-804","-26995","200","1","150","149.41","116.10","33.30","27.80","45.0","14.76","90652","28.44","DUALSPOT-UV-BLUE-GREEN-RED-IR","702077","681579","908198","12.545254","4.186237","0.023296","831619","883284","841490","7.824862","2.436614","0.022230","823469","862024","833899","6.463677","1.952475","0.021987","846796","863181","886184","5.037127","1.492552","0.020083","755807","890971","966291","3.251760","0.889452","-0.001688","3335","4252","4712","2748","3146","3326","2567","2864","2993","2444","2638","2719","2194","2186","2182","DualSpot on"
"MA200-0420","44968","74","1","1.10","1.6","2023-07-24T10:35:00","120","2023/07/24","10:35:00","-15.795566320419312","35.00276349973865","0.0","12","300","64","97","-720","-27096","180","1","150","149.95","115.72","34.23","27.96","45.1","14.96","90660","28.69","DUALSPOT-UV-BLUE-GREEN-RED-IR","696430","678842","906682","13.182760","4.418195","0.019492","826811","880656","840129","8.242270","2.570396","0.013116","819454","859897","832735","6.810263","2.058649","0.007114","850287","868392","892265","5.309841","1.573295","0.000216","753201","889072","964705","3.433073","0.937893","-0.044807","3235","3979","4354","2674","2897","2998","2486","2574","2613","2364","2366","2367","2188","1976","1897","DualSpot on"
"MA200-0420","44969","74","1","1.10","1.6","2023-07-24T10:40:00","120","2023/07/24","10:40:00","-15.795607328414917","35.002728833118454","0.0","11","300","64","98","-784","-27116","475","1","150","150.21","116.18","34.03","28.15","44.8","15.04","90660","28.81","DUALSPOT-UV-BLUE-GREEN-RED-IR","691276","676590","905844","13.834293","4.658863","0.020420","822506","878525","839261","8.660977","2.709573","0.018941","816038","858344","832173","7.158590","2.169901","0.016047","847229","866906","891497","5.583541","1.657376","0.011630","750442","887059","962978","3.617771","0.986398","-0.045801","3293","4154","4590","2671","3032","3196","2489","2714","2812","2363","2478","2527","2220","1991","1905","DualSpot on"
"MA200-0420","44970","74","1","1.10","1.6","2023-07-24T10:45:00","120","2023/07/24","10:45:00","-15.795599400997162","35.002775999717414","0.2","11","300","64","98","-641","-27091","75","1","150","149.77","116.29","33.48","28.16","44.0","14.76","90652","28.56","DUALSPOT-UV-BLUE-GREEN-RED-IR","690144","678095","909985","14.455196","4.891899","0.021765","816885","874812","836869","9.061452","2.847057","0.024185","811238","855192","830024","7.489655","2.279079","0.023094","841696","862767","887961","5.841932","1.739553","0.022210","751842","889781","966370","3.783578","1.033256","-0.006850","3135","4088","4575","2552","3044","3269","2363","2707","2857","2229","2462","2561","1991","1955","1941","DualSpot on"
"MA200-0420","44971","74","1","1.10","1.6","2023-07-24T10:50:00","120","2023/07/24","10:50:00","-15.795593857765198","35.002778333146125","0.3","11","300","64","97","-656","-27184","276","1","150","149.69","116.19","33.50","28.00","43.3","14.35","90640","28.38","DUALSPOT-UV-BLUE-GREEN-RED-IR","684093","674734","907533","15.071190","5.123485","0.020924","811039","870846","834262","9.465597","2.989661","0.026048","811749","857619","833312","7.824035","2.394003","0.027709","844293","866958","893032","6.102442","1.824339","0.025447","749719","888186","965148","3.940672","1.082558","0.027615","3113","4060","4548","2578","3155","3422","2389","2848","3050","2249","2539","2662","1888","2055","2119","DualSpot on"
"MA200-0420","44972","74","1","1.10","1.6","2023-07-24T10:55:00","120","2023/07/24","10:55:00","-15.795589625835419","35.00276583293453","0.2","11","300","64","98","-737","-27033","141","1","150","150.02","116.33","33.69","28.03","43.7","14.53","90644","28.56","DUALSPOT-UV-BLUE-GREEN-RED-IR","678081","671171","904703","15.637056","5.338327","0.020510","811833","873837","838198","9.843121","3.117984","0.020589","807093","854548","831193","8.142901","2.498633","0.019770","839496","863510","890161","6.354493","1.903187","0.016157","751253","890968","968622","4.100290","1.130889","0.014413","2857","3745","4205","2405","2823","3017","2275","2578","2712","2173","2347","2422","1916","2003","2037","DualSpot on"
"MA200-0420","44973","74","1","1.10","1.6","2023-07-24T11:00:00","120","2023/07/24","11:00:00","-15.795605957508087","35.00275483285077","0.1","11","300","64","98","-683","-27045","250","1","150","150.21","116.63","33.59","28.10","43.2","14.42","90640","28.63","DUALSPOT-UV-BLUE-GREEN-RED-IR","676805","672161","907979","16.187660","5.553663","0.021793","811926","875997","841353","10.206657","3.247213","0.025065","807080","856230","833691","8.446803","2.600533","0.022718","834026","859263","886488","6.595917","1.981472","0.023138","747419","887423","965237","4.257974","1.177983","0.011461","2772","3765","4284","2310","2852","3105","2163","2518","2677","2076","2338","2450","1888","1958","1985","DualSpot on"
"MA200-0420","44974","74","1","1.10","1.6","2023-07-24T11:05:00","120","2023/07/24","11:05:00","-15.795581102371216","35.00279583316296","0.2","11","300","64","98","-672","-27075","252","1","150","150.03","116.13","33.89","28.25","43.1","14.49","90624","29.06","DUALSPOT-UV-BLUE-GREEN-RED-IR","673963","671359","908703","16.690876","5.749748","0.020267","803895","869306","835895","10.548537","3.362423","0.017537","805336","856015","834285","8.735218","2.695346","0.017688","832847","859448","887312","6.826901","2.054733","0.016167","746168","886906","965116","4.411421","1.223451","0.004687","2545","3397","3846","2182","2519","2677","2061","2322","2438","1995","2168","2243","1845","1873","1884","DualSpot on"
"MA200-0420","44975","74","1","1.10","1.6","2023-07-24T11:10:00","120","2023/07/24","11:10:00","-15.795624673366547","35.002711166162044","0.1","11","300","64","97","-666","-27041","212","1","150","149.87","115.96","33.92","28.49","43.3","14.80","90628","29.19","DUALSPOT-UV-BLUE-GREEN-RED-IR","667975","667340","905005","17.172102","5.943147","0.021188","803275","870460","837938","10.869032","3.473591","0.019741","799402","851279","830376","9.006907","2.784371","0.016462","831797","859647","888143","7.043717","2.123332","0.014864","744765","886227","964776","4.565132","1.265125","-0.024641","2437","3349","3831","2048","2429","2608","1945","2179","2283","1875","2029","2095","1851","1716","1664","DualSpot on"
"MA200-0420","44976","74","1","1.10","1.6","2023-07-24T11:15:00","120","2023/07/24","11:15:00","-15.795591652393341","35.00278016645461","0.1","11","300","64","98","-825","-27329","583","1","150","150.40","116.37","34.03","28.71","43.4","15.02","90620","29.50","DUALSPOT-UV-BLUE-GREEN-RED-IR","669333","670472","910794","17.609436","6.113189","0.019056","800077","868665","837035","11.162407","3.570992","0.014875","801562","855034","834704","9.254197","2.861619","0.009722","829264","858176","887152","7.241417","2.184288","0.009987","742271","884125","962841","4.701824","1.301729","-0.028030","2207","2935","3322","1868","2122","2241","1764","1884","1938","1704","1797","1837","1640","1502","1449","DualSpot on"
"MA200-0420","44977","74","1","1.10","1.6","2023-07-24T11:20:00","120","2023/07/24","11:20:00","-15.795611321926117","35.0028061659541","0.2","11","300","64","97","-648","-27208","976","1","150","150.09","115.81","34.28","28.99","42.4","14.91","90600","29.69","DUALSPOT-UV-BLUE-GREEN-RED-IR","664517","667338","908116","18.039192","6.289434","0.020609","801173","871444","840580","11.447863","3.675741","0.022791","797040","851538","831969","9.494223","2.945399","0.021718","830826","860882","890517","7.433783","2.248425","0.020632","742798","885647","964867","4.843715","1.341591","-0.015641","2179","3019","3469","1827","2265","2472","1720","2029","2167","1666","1877","1968","1711","1624","1591","DualSpot on"
"MA200-0420","44978","74","1","1.10","1.6","2023-07-24T11:25:00","120","2023/07/24","11:25:00","-15.795598268508911","35.00281549943611","0.1","11","300","64","97","-791","-26404","-520","1","150","150.08","115.84","34.24","28.97","41.7","14.64","90608","29.38","DUALSPOT-UV-BLUE-GREEN-RED-IR","662023","666327","908037","18.405534","6.430811","0.017358","798382","869823","839769","11.700078","3.765571","0.019825","795568","851163","832189","9.704720","3.016740","0.018060","830394","861428","891569","7.599589","2.300957","0.012276","742174","885603","965090","4.949314","1.370374","-0.024420","1857","2424","2729","1614","1944","2101","1508","1729","1829","1436","1539","1583","1273","1174","1136","DualSpot on"
"MA200-0420","44979","74","1","1.10","1.6","2023-07-24T11:30:00","120","2023/07/24","11:30:00","-15.7956383228302","35.0027721663937","0.3","12","300","64","97","-652","-26980","88","1","150","150.08","116.31","33.77","28.79","40.8","14.17","90608","29.06","DUALSPOT-UV-BLUE-GREEN-RED-IR","655939","661592","902868","18.760090","6.573278","0.019800","792850","865109","836031","11.951071","3.861815","0.026897","796012","852749","834416","9.918511","3.097826","0.031067","825078","856810","887335","7.768592","2.362515","0.034468","739620","883148","962780","5.051973","1.406093","0.042670","1790","2477","2848","1599","2112","2357","1526","1993","2205","1457","1828","1990","1232","1477","1571","DualSpot on"
"MA200-0420","44980","74","1","1.10","1.6","2023-07-24T11:35:00","120","2023/07/24","11:35:00","-15.795670807361603","35.0027909995988","0.2","12","300","64","97","-691","-27041","325","1","150","150.28","116.11","34.16","28.64","40.7","14.00","90604","28.88","DUALSPOT-UV-BLUE-GREEN-RED-IR","655724","662733","905620","19.095196","6.707514","0.018738","793950","867657","839244","12.190372","3.951096","0.023294","791529","849041","831427","10.121902","3.171801","0.025282","826538","859257","890352","7.929959","2.418330","0.025432","741401","885815","965996","5.145231","1.437912","0.035242","1695","2307","2639","1527","1937","2133","1454","1797","1954","1394","1639","1746","1121","1301","1370","DualSpot on"
"MA200-0420","44981","74","1","1.10","1.6","2023-07-24T11:40:00","120","2023/07/24","11:40:00","-15.795699000358582","35.00271549937315","0.0","12","300","64","98","-568","-26560","600","1","150","149.60","116.12","33.48","28.55","41.2","14.09","90604","28.88","DUALSPOT-UV-BLUE-GREEN-RED-IR","650152","659841","904361","19.806492","7.001945","0.020329","789062","864894","838067","12.668429","4.130131","0.024257","787164","846512","830135","10.518404","3.315097","0.025687","822541","856851","888831","8.239938","2.525664","0.027275","739529","884639","965309","5.329183","1.500721","0.038313","3597","5165","6022","3051","3964","4405","2834","3553","3884","2678","3216","3454","2212","2620","2780","DualSpot on"
"MA200-0420","44982","74","1","1.10","1.6","2023-07-24T11:45:00","120","2023/07/24","11:45:00","-15.795613288879395","35.00280216615647","0.1","12","300","64","97","-632","-27328","824","1","150","150.02","115.99","34.02","28.53","41.4","14.14","90600","28.94","DUALSPOT-UV-BLUE-GREEN-RED-IR","647668","658892","904562","20.214478","7.170713","0.019230","787174","864377","838446","12.956167","4.235619","0.020899","785483","846032","830367","10.764146","3.401029","0.020378","821605","856939","889505","8.435411","2.590974","0.019824","738269","883896","964863","5.451420","1.538710","0.014065","2065","2913","3379","1838","2298","2521","1758","2096","2253","1690","1925","2030","1472","1559","1594","DualSpot on"
"MA200-0420","44983","74","1","1.10","1.6","2023-07-24T11:50:00","120","2023/07/24","11:50:00","-15.795602679252625","35.0027826661244","0.1","12","300","64","97","-620","-27184","188","1","150","149.89","115.88","34.01","28.53","41.3","14.11","90588","29.00","DUALSPOT-UV-BLUE-GREEN-RED-IR","645986","658529","905352","20.561500","7.313225","0.018605","785870","864307","839152","13.209623","4.329473","0.021208","784447","846133","831127","10.984157","3.480076","0.022490","820487","856807","889889","8.612931","2.650940","0.020781","738392","884725","966128","5.565725","1.577208","0.030670","1759","2461","2848","1621","2045","2252","1576","1929","2093","1537","1768","1872","1378","1581","1661","DualSpot on"
"MA200-0420","44984","74","1","1.10","1.6","2023-07-24T11:55:00","120","2023/07/24","11:55:00","-15.795723617076874","35.002708832966164","0.2","12","300","72","97","-660","-26691","867","1","150","150.02","115.95","34.06","28.58","41.1","14.08","90584","29.00","DUALSPOT-UV-BLUE-GREEN-RED-IR","644711","659053","907785","21.026214","7.499824","0.017275","785247","865395","841194","13.528189","4.447061","0.020441","679250","733905","721569","11.249293","3.575790","0.022337","820772","858259","892045","8.818268","2.722168","0.023518","738507","885636","967536","5.698732","1.618914","0.015111","2353","3217","3696","2036","2559","2815","1898","2332","2535","1776","2097","2241","1602","1710","1753","DualSpot on"
"MA200-0420","44985","74","1","1.10","1.6","2023-07-24T12:00:00","120","2023/07/24","12:00:00","-15.795675694942474","35.002753999549896","0.0","12","300","64","97","-691","-27016","141","1","150","149.69","115.48","34.21","28.56","40.6","13.85","90576","29.00","DUALSPOT-UV-BLUE-GREEN-RED-IR","641273","657126","906679","21.438748","7.671886","0.018121","782088","863451","840239","13.818262","4.557008","0.021297","780960","845113","831672","11.498008","3.665918","0.021470","817817","856289","890574","9.014148","2.788040","0.018161","736854","884442","966622","5.823505","1.659373","0.020062","2098","2954","3431","1862","2382","2638","1788","2187","2374","1701","1931","2034","1509","1652","1709","DualSpot on"
"MA200-0420","44986","74","1","1.10","1.6","2023-07-24T12:05:00","120","2023/07/24","12:05:00","-15.795658230781555","35.00272516626865","0.1","11","300","64","97","-758","-27904","250","1","150","150.33","116.07","34.27","28.56","40.4","13.78","90568","29.00","DUALSPOT-UV-BLUE-GREEN-RED-IR","638374","655707","906211","21.840394","7.839454","0.017943","779245","861820","839530","14.101292","4.662949","0.020268","779224","844517","831790","11.736400","3.751796","0.020833","816496","855933","890818","9.204886","2.854699","0.022847","736064","884203","966747","5.945505","1.699052","0.020953","2032","2872","3342","1807","2291","2531","1705","2080","2257","1648","1951","2087","1468","1617","1677","DualSpot on"
"MA200-0420","44987","74","1","1.10","1.6","2023-07-24T12:10:00","120","2023/07/24","12:10:00","-15.795706927776337","35.00268599926494","0.1","11","300","64","97","-729","-26845","220","1","150","149.89","115.44","34.44","28.61","40.3","13.78","90564","29.06","DUALSPOT-UV-BLUE-GREEN-RED-IR","637407","656193","908456","22.240730","8.008312","0.017652","772245","855587","834353","14.379730","4.768824","0.020241","778675","845248","833217","11.974416","3.837669","0.019657","810179","850383","885593","9.394593","2.920435","0.020194","731705","879715","962197","6.068386","1.738056","0.013524","2036","2879","3353","1788","2278","2522","1711","2069","2238","1648","1914","2034","1486","1581","1619","DualSpot on"
"MA200-0420","44988","74","1","1.10","1.6","2023-07-24T12:15:00","120","2023/07/24","12:15:00","-15.795604646205902","35.002816666383296","0.3","11","300","64","97","-704","-27024","300","1","150","149.84","115.46","34.37","28.64","39.7","13.59","90560","29.13","DUALSPOT-UV-BLUE-GREEN-RED-IR","635235","655588","909238","22.668202","8.189247","0.017545","771778","856595","836272","14.674948","4.881901","0.020474","777529","845315","834087","12.225634","3.930604","0.021548","809446","850723","886564","9.594349","2.990078","0.020752","731482","880160","963105","6.196655","1.779203","0.015835","2174","3091","3610","1895","2438","2709","1806","2244","2452","1735","2032","2167","1551","1672","1720","DualSpot on"
"MA200-0420","44989","74","1","1.10","1.6","2023-07-24T12:20:00","120","2023/07/24","12:20:00","-15.795631170272827","35.00280633266084","0.3","11","300","64","98","-845","-27295","220","1","150","149.87","115.54","34.33","28.60","39.7","13.55","90548","29.06","DUALSPOT-UV-BLUE-GREEN-RED-IR","632622","654179","908629","23.009994","8.333515","0.017270","768684","854486","834960","14.920165","4.973578","0.018715","774900","843610","833019","12.435481","4.006916","0.019969","813638","856084","892653","9.762354","3.047625","0.018621","734431","884386","968053","6.303203","1.814482","0.021956","1737","2468","2883","1573","1979","2182","1507","1845","2005","1458","1681","1782","1288","1435","1495","DualSpot on"
"MA200-0420","44990","74","1","1.10","1.6","2023-07-24T12:25:00","120","2023/07/24","12:25:00","-15.795664846897125","35.00275433296338","0.1","11","300","64","97","-641","-27350","250","1","150","149.85","115.66","34.19","28.67","40.1","13.76","90544","29.19","DUALSPOT-UV-BLUE-GREEN-RED-IR","631160","653870","909441","23.338836","8.475178","0.017912","767261","854153","835407","15.154836","5.061918","0.019215","773431","843060","833103","12.634677","4.078692","0.019348","806194","849129","885902","9.922898","3.103140","0.019976","729223","878704","962179","6.408090","1.847865","0.015202","1669","2433","2869","1504","1915","2122","1429","1743","1892","1392","1629","1736","1266","1364","1403","DualSpot on"
"MA200-0420","44991","74","1","1.10","1.6","2023-07-24T12:30:00","120","2023/07/24","12:30:00","-15.795637369155884","35.00276783318259","0.2","10","300","64","97","-700","-27265","54","1","150","150.34","115.95","34.39","28.68","39.6","13.59","90544","29.06","DUALSPOT-UV-BLUE-GREEN-RED-IR","630171","653964","910811","23.639004","8.606884","0.018187","766187","854091","836054","15.370064","5.146038","0.021041","773778","844416","835014","12.819822","4.147941","0.021731","806260","850013","887314","10.071894","3.156594","0.023237","729367","879517","963368","6.509960","1.880751","0.017019","1520","2249","2667","1376","1813","2033","1325","1671","1837","1289","1559","1683","1227","1335","1380","DualSpot on"
"MA200-0420","44992","74","1","1.10","1.6","2023-07-24T12:35:00","120","2023/07/24","12:35:00","-15.795684039592743","35.002697999589145","0.1","10","300","64","97","-848","-26656","-464","1","150","149.56","115.76","33.79","28.69","39.2","13.46","90536","29.06","DUALSPOT-UV-BLUE-GREEN-RED-IR","626459","651404","908651","23.991050","8.759884","0.018130","762450","851183","833992","15.614306","5.242652","0.022306","770654","842130","833375","13.029904","4.227418","0.023377","803245","847762","885464","10.239339","3.215283","0.022099","727871","878354","962420","6.616840","1.915516","0.020929","1786","2659","3161","1564","2119","2400","1506","1952","2166","1451","1742","1875","1289","1437","1497","DualSpot on"
"MA200-0420","44993","74","1","1.10","1.6","2023-07-24T12:40:00","120","2023/07/24","12:40:00","-15.795585334300995","35.002820999361575","0.1","10","300","64","98","-668","-27056","248","1","150","150.35","116.00","34.35","28.65","38.8","13.26","90524","29.06","DUALSPOT-UV-BLUE-GREEN-RED-IR","625073","651090","909460","24.304146","8.896896","0.017680","760943","850640","834253","15.844105","5.334759","0.021939","769589","842010","833901","13.228737","4.304177","0.023458","803262","848611","886875","10.399361","3.274081","0.024998","727492","878457","962888","6.719629","1.953311","0.037804","1585","2342","2779","1468","1987","2251","1423","1855","2063","1384","1717","1870","1237","1536","1659","DualSpot on"
"MA200-0420","44994","74","1","1.10","1.6","2023-07-24T12:45:00","120","2023/07/24","12:45:00","-15.795609474182129","35.00273216608912","0.3","12","300","64","97","-928","-26680","-356","1","150","150.08","115.48","34.60","28.67","38.9","13.32","90516","29.06","DUALSPOT-UV-BLUE-GREEN-RED-IR","623225","650338","909646","24.623078","9.035854","0.016965","760613","851487","835778","16.073318","5.421275","0.017519","768527","841835","834353","13.422740","4.375791","0.019080","802579","848774","887534","10.555804","3.329372","0.019686","727177","878651","963445","6.818702","1.986009","0.018379","1622","2358","2785","1471","1853","2048","1394","1718","1874","1359","1603","1715","1198","1320","1370","DualSpot on"
"MA200-0420","44995","74","1","1.10","1.6","2023-07-24T12:50:00","120","2023/07/24","12:50:00","-15.795705139636993","35.00269666640088","0.2","12","300","64","98","-932","-25932","-1716","1","150","150.15","115.76","34.38","28.67","38.7","13.23","90508","29.06","DUALSPOT-UV-BLUE-GREEN-RED-IR","619564","647764","907426","24.968944","9.189907","0.017684","756726","848351","833553","16.319813","5.521232","0.021798","765527","839678","832870","13.633574","4.456973","0.022428","799286","846183","885402","10.725856","3.393001","0.025676","724746","876363","961282","6.930065","2.022852","0.019996","1754","2631","3142","1578","2155","2450","1512","1960","2178","1473","1856","2033","1343","1496","1560","DualSpot on"
"MA200-0420","44996","74","1","1.10","1.6","2023-07-24T12:55:00","120","2023/07/24","12:55:00","-15.795696496963501","35.00276433303952","0.4","12","300","64","98","-688","-26884","488","1","150","149.84","115.46","34.37","28.71","38.8","13.31","90496","29.19","DUALSPOT-UV-BLUE-GREEN-RED-IR","615221","644610","904457","25.345704","9.353207","0.016550","757927","851100","837095","16.580990","5.620432","0.017757","761378","836265","830191","13.858021","4.538822","0.018088","801691","849699","889654","10.902427","3.452939","0.015623","726521","879183","964769","7.045112","2.060558","0.017721","1916","2790","3301","1676","2139","2376","1613","1976","2153","1534","1749","1849","1391","1532","1590","DualSpot on"
"MA200-0420","44997","74","1","1.10","1.6","2023-07-24T13:00:00","120","2023/07/24","13:00:00","-15.795694351196289","35.00277716643177","0.2","12","300","72","98","-741","-26912","287","1","150","150.02","115.64","34.38","28.78","38.8","13.37","90488","29.38","DUALSPOT-UV-BLUE-GREEN-RED-IR","616804","647267","909369","25.632122","9.483131","0.017749","754722","848563","835290","16.789564","5.704784","0.021032","762934","838923","833395","14.038546","4.608768","0.022161","690689","732768","767607","11.050055","3.507169","0.023225","727599","881097","967181","7.146087","2.093932","0.019107","1454","2219","2669","1337","1819","2067","1296","1689","1881","1280","1582","1723","1219","1356","1412","DualSpot on"
"MA200-0420","44998","74","1","1.10","1.6","2023-07-24T13:05:00","120","2023/07/24","13:05:00","-15.79559600353241","35.00274599972181","0.1","12","300","64","98","-684","-26956","148","1","150","150.02","115.36","34.65","29.01","38.7","13.52","90488","29.88","DUALSPOT-UV-BLUE-GREEN-RED-IR","612307","643707","905684","25.952580","9.624611","0.016471","755329","850477","837905","17.023972","5.794072","0.016972","758901","835579","830676","14.240507","4.680526","0.015030","799096","848673","889522","11.216305","3.565250","0.017198","724038","877459","963525","7.264543","2.131886","0.011865","1631","2397","2849","1506","1910","2118","1453","1719","1849","1445","1681","1791","1434","1530","1569","DualSpot on"
"MA200-0420","44999","74","1","1.10","1.6","2023-07-24T13:10:00","120","2023/07/24","13:10:00","-15.795633018016815","35.0027526661288","0.3","13","300","64","98","-700","-27120","308","1","150","149.56","115.32","34.24","29.46","38.7","13.93","90492","30.56","DUALSPOT-UV-BLUE-GREEN-RED-IR","609537","641876","904348","26.259640","9.762672","0.017145","752809","848826","836961","17.244220","5.874574","0.015053","760428","838331","833932","14.430234","4.744261","0.011354","795763","846014","887226","11.372519","3.617478","0.013727","724587","878971","965515","7.389982","2.164657","-0.027664","1563","2368","2844","1415","1743","1912","1365","1545","1633","1359","1530","1610","1519","1337","1261","DualSpot on"
"MA200-0420","45000","74","1","1.10","1.6","2023-07-24T13:15:00","120","2023/07/24","13:15:00","-15.795744001865387","35.00272833299823","0.1","13","300","64","98","-708","-27070","325","1","150","150.15","114.18","35.97","29.86","37.6","13.85","90488","30.81","DUALSPOT-UV-BLUE-GREEN-RED-IR","610916","644196","908699","26.514290","9.880074","0.016024","748827","845225","834011","17.423098","5.944937","0.015728","757006","835376","831479","14.587728","4.803318","0.015151","797148","848212","889935","11.504605","3.664219","0.013315","724385","879449","966353","7.503614","2.197778","-0.015753","1309","1917","2277","1161","1450","1599","1145","1363","1470","1160","1303","1370","1390","1286","1243","DualSpot on"
"MA200-0420","45001","74","1","1.10","1.6","2023-07-24T13:20:00","120","2023/07/24","13:20:00","-15.795646965503693","35.00283716642298","0.1","13","300","64","97","-712","-27041","304","1","150","150.15","114.80","35.35","30.25","37.0","13.94","90488","31.31","DUALSPOT-UV-BLUE-GREEN-RED-IR","611054","645153","911080","26.755138","9.996227","0.017746","748023","845167","834572","17.598134","6.019592","0.020982","757315","836474","833076","14.739529","4.862589","0.019385","798226","850030","892289","11.630672","3.713082","0.023682","723557","879091","966267","7.609678","2.229143","-0.007803","1232","1930","2346","1130","1565","1792","1097","1392","1536","1101","1386","1520","1290","1239","1218","DualSpot on"
"MA200-0420","45002","74","1","1.10","1.6","2023-07-24T13:25:00","120","2023/07/24","13:25:00","-15.795659899711609","35.00276916613802","0.1","13","300","64","97","-645","-27095","291","1","150","149.44","114.18","35.26","30.55","35.9","13.75","90484","31.19","DUALSPOT-UV-BLUE-GREEN-RED-IR","607164","641954","907737","27.025234","10.126629","0.017538","750131","848398","838556","17.790914","6.114721","0.026796","757630","837566","834834","14.907045","4.942572","0.030164","793477","845594","888210","11.772335","3.779848","0.037090","719020","874217","961372","7.733322","2.278251","0.037318","1389","2172","2641","1251","2000","2392","1218","1883","2213","1244","1899","2209","1512","1945","2126","DualSpot on"
"MA200-0420","45003","74","1","1.10","1.6","2023-07-24T13:30:00","120","2023/07/24","13:30:00","-15.795692205429077","35.002825333038345","0.1","13","300","64","97","-658","-26962","204","1","150","149.96","114.71","35.25","30.57","35.5","13.57","90480","31.06","DUALSPOT-UV-BLUE-GREEN-RED-IR","603058","638777","904583","27.357234","10.272861","0.014971","745996","844976","836056","18.043222","6.220359","0.019734","753926","834586","832622","15.131725","5.032956","0.020912","794825","847966","891335","11.955484","3.853212","0.025865","720064","876216","964085","7.865951","2.326256","0.025616","1700","2436","2879","1630","2221","2532","1626","2128","2378","1601","2087","2318","1615","1902","2022","DualSpot on"
"MA200-0420","45004","74","1","1.10","1.6","2023-07-24T13:35:00","120","2023/07/24","13:35:00","-15.795688211917877","35.00277583301067","0.2","13","300","64","97","-636","-27024","400","1","150","149.33","114.97","34.35","30.42","35.4","13.41","90464","30.69","DUALSPOT-UV-BLUE-GREEN-RED-IR","603781","640860","909030","27.721928","10.436340","0.016059","748254","848901","840885","18.318336","6.335908","0.020899","750647","832059","830917","15.365726","5.130726","0.024358","791619","845556","889464","12.147193","3.928448","0.026067","718472","874960","963082","7.986433","2.370478","0.030707","1863","2795","3358","1773","2493","2874","1689","2362","2700","1672","2197","2448","1463","1798","1939","DualSpot on"
"MA200-0420","45005","74","1","1.10","1.6","2023-07-24T13:40:00","120","2023/07/24","13:40:00","-15.79568499326706","35.00275866640732","0.1","13","300","64","97","-628","-27047","192","1","150","149.63","114.77","34.86","30.13","35.3","13.10","90472","30.31","DUALSPOT-UV-BLUE-GREEN-RED-IR","602479","640620","910060","28.050698","10.585754","0.015815","747175","848822","841689","18.559622","6.438756","0.020577","750002","832399","831970","15.573746","5.216533","0.022479","791132","845872","890411","12.314204","3.993815","0.024314","719252","876416","965053","8.083296","2.408407","0.036106","1682","2517","3024","1558","2187","2521","1504","2043","2315","1459","1881","2083","1178","1520","1664","DualSpot on"
"MA200-0420","45006","74","1","1.10","1.6","2023-07-24T13:45:00","120","2023/07/24","13:45:00","-15.795671164989471","35.002746833022684","0.1","12","300","64","98","-764","-26968","-56","1","150","149.77","115.16","34.61","29.82","35.2","12.81","90464","29.94","DUALSPOT-UV-BLUE-GREEN-RED-IR","597981","636848","905880","28.343368","10.720028","0.016176","741729","843689","837424","18.780848","6.534594","0.021492","750780","834201","834422","15.767931","5.299786","0.024804","787206","842453","887352","12.466030","4.055131","0.027071","717964","875273","964141","8.166164","2.445366","0.050028","1492","2278","2756","1424","2052","2388","1399","1996","2299","1322","1777","1996","1005","1491","1699","DualSpot on"
"MA200-0420","45007","74","1","1.10","1.6","2023-07-24T13:50:00","120","2023/07/24","13:50:00","-15.795633673667908","35.002693832851946","0.2","13","300","64","98","-670","-27050","175","1","150","150.15","114.97","35.18","29.52","35.5","12.66","90448","29.75","DUALSPOT-UV-BLUE-GREEN-RED-IR","597027","637837","909780","28.923596","10.990246","0.015803","742713","846779","841811","19.168832","6.694239","0.018065","747023","831636","832965","16.095116","5.431267","0.019947","789977","846821","892820","12.727807","4.153227","0.019648","716687","874532","963865","8.314636","2.502858","0.033105","2964","4511","5459","2501","3364","3827","2362","3102","3479","2284","2797","3046","1804","2282","2489","DualSpot on"
"MA200-0420","45008","74","1","1.10","1.6","2023-07-24T13:55:00","120","2023/07/24","13:55:00","-15.795677721500397","35.00277349981479","0.0","13","300","64","97","-704","-27003","-36","1","150","149.71","115.20","34.51","29.49","35.9","12.80","90448","30.00","DUALSPOT-UV-BLUE-GREEN-RED-IR","592684","634647","907059","29.363616","11.195385","0.016120","738752","843749","839875","19.477350","6.821346","0.018792","743102","828603","830799","16.362099","5.537351","0.020186","785789","843448","889978","12.944546","4.233645","0.020212","718753","877802","967948","8.452593","2.552930","0.027512","2243","3491","4259","1985","2730","3131","1924","2551","2873","1887","2337","2556","1672","2026","2179","DualSpot on"
"MA200-0420","45009","74","1","1.10","1.6","2023-07-24T14:00:00","120","2023/07/24","14:00:00","-15.795628547668457","35.002795999636874","0.2","13","300","64","98","-645","-27100","216","1","150","150.47","114.81","35.66","29.62","36.3","13.09","90452","30.25","DUALSPOT-UV-BLUE-GREEN-RED-IR","590931","633856","907361","29.691746","11.351776","0.015622","736390","842278","839193","19.717186","6.918931","0.016389","741446","827784","830652","16.567610","5.615493","0.015281","784373","842789","889859","13.112695","4.295713","0.016687","712684","871033","960883","8.566687","2.592572","0.016960","1678","2575","3131","1548","2028","2287","1486","1819","1989","1469","1746","1880","1388","1552","1624","DualSpot on"
"MA200-0420","45010","74","1","1.10","1.6","2023-07-24T14:05:00","120","2023/07/24","14:05:00","-15.795554339885712","35.00286649935879","0.1","13","300","64","97","-660","-27008","332","1","150","149.52","114.74","34.78","29.82","35.9","13.11","90448","30.31","DUALSPOT-UV-BLUE-GREEN-RED-IR","589448","633230","907727","29.981658","11.488728","0.015849","735100","841802","839490","19.926370","7.006252","0.018457","740294","827432","830890","16.750341","5.687842","0.018913","783408","842549","890066","13.262284","4.351534","0.019299","715971","875715","966394","8.675472","2.626505","0.004621","1484","2312","2827","1351","1861","2137","1322","1727","1935","1307","1610","1757","1324","1362","1379","DualSpot on"
"MA200-0420","45011","74","1","1.10","1.6","2023-07-24T14:10:00","120","2023/07/24","14:10:00","-15.795644402503967","35.00277866655961","0.1","13","300","64","97","-760","-26960","32","1","150","150.28","114.96","35.32","29.80","35.4","12.85","90444","30.25","DUALSPOT-UV-BLUE-GREEN-RED-IR","585252","629654","903730","30.256248","11.617188","0.015172","731301","838431","836849","20.130246","7.091188","0.017621","741029","829165","833208","16.926532","5.757680","0.018046","778867","838439","886205","13.404816","4.403545","0.016302","712979","872568","963228","8.769432","2.658358","0.014741","1402","2136","2593","1314","1782","2037","1272","1641","1831","1243","1477","1591","1141","1259","1311","DualSpot on"
"MA200-0420","45012","74","1","1.10","1.6","2023-07-24T14:15:00","120","2023/07/24","14:15:00","-15.795656323432922","35.00272366637364","0.4","14","300","64","97","-668","-27005","202","1","150","149.52","114.78","34.74","29.80","35.4","12.85","90436","30.25","DUALSPOT-UV-BLUE-GREEN-RED-IR","584869","630083","905490","30.520572","11.744873","0.016123","730625","838589","837720","20.328522","7.177531","0.019879","740351","829207","833860","17.101232","5.830587","0.021342","778461","838722","887012","13.546895","4.460789","0.024398","712633","872670","963664","8.863094","2.694737","0.032635","1352","2158","2662","1280","1842","2149","1263","1742","1989","1241","1653","1854","1139","1462","1603","DualSpot on"
"MA200-0420","45013","74","1","1.10","1.6","2023-07-24T14:20:00","120","2023/07/24","14:20:00","-15.795557677745819","35.00279583316296","0.0","14","300","64","97","-691","-27079","229","1","150","150.21","114.89","35.32","29.88","35.5","12.96","90424","30.38","DUALSPOT-UV-BLUE-GREEN-RED-IR","584234","630388","907143","30.805470","11.877937","0.014866","730299","839314","839145","20.541838","7.263893","0.016011","735694","824914","830133","17.284244","5.900777","0.015799","777970","839000","887798","13.697080","4.515165","0.015291","712638","873251","964657","8.964041","2.727772","0.009452","1456","2212","2687","1376","1812","2051","1322","1649","1819","1311","1544","1658","1227","1306","1341","DualSpot on"
"MA200-0420","45014","74","1","1.10","1.6","2023-07-24T14:25:00","120","2023/07/24","14:25:00","-15.795555472373962","35.00280716619454","0.0","14","300","64","98","-675","-27100","250","1","150","150.21","115.38","34.84","29.82","35.0","12.69","90432","30.19","DUALSPOT-UV-BLUE-GREEN-RED-IR","580025","626938","903632","31.143970","12.039913","0.015671","725406","834847","835570","20.782256","7.366631","0.018837","737212","827652","833592","17.492146","5.987175","0.020806","781408","843567","893208","13.864007","4.580007","0.021613","710894","871736","963319","9.071386","2.765929","0.022397","1723","2730","3366","1544","2186","2538","1496","2059","2352","1451","1867","2072","1299","1530","1631","DualSpot on"
"MA200-0420","45015","74","1","1.10","1.6","2023-07-24T14:30:00","120","2023/07/24","14:30:00","-15.795615434646606","35.00273183290847","0.0","13","300","64","97","-584","-26968","140","1","150","150.71","114.67","36.04","29.90","35.3","12.92","90416","30.50","DUALSPOT-UV-BLUE-GREEN-RED-IR","581675","630012","909907","31.551074","12.239014","0.015088","723196","833617","835278","21.059688","7.483299","0.016335","734097","825317","832044","17.726824","6.080269","0.016092","779041","841961","892133","14.049188","4.650525","0.017108","713168","875228","967604","9.191820","2.807448","0.013324","2085","3244","3979","1793","2399","2734","1699","2144","2377","1620","1963","2132","1467","1609","1671","DualSpot on"
"MA200-0420","45016","74","1","1.10","1.6","2023-07-24T14:35:00","120","2023/07/24","14:35:00","-15.795639455318451","35.00274183298461","0.1","13","300","64","98","-672","-27008","408","1","150","149.50","114.41","35.08","29.98","35.2","12.93","90416","30.50","DUALSPOT-UV-BLUE-GREEN-RED-IR","575714","624876","904315","31.964050","12.441578","0.015499","722005","833573","836249","21.336102","7.601443","0.017792","733324","825582","833087","17.960090","6.174148","0.017962","778351","842174","892960","14.231553","4.719627","0.018322","708385","870021","962235","9.310827","2.847730","0.013982","2120","3391","4201","1790","2496","2886","1692","2221","2498","1599","1976","2163","1453","1603","1670","DualSpot on"
"MA200-0420","45017","74","1","1.10","1.6","2023-07-24T14:40:00","120","2023/07/24","14:40:00","-15.795677483081818","35.00269283284433","0.1","13","300","64","98","-704","-27158","437","1","150","150.21","114.71","35.50","30.04","35.1","12.93","90416","30.50","DUALSPOT-UV-BLUE-GREEN-RED-IR","573622","623777","904253","32.321698","12.613514","0.014718","720313","832803","836338","21.584652","7.707095","0.017022","731560","824665","832877","18.172186","6.260591","0.017932","770660","834736","885681","14.403606","4.784982","0.017630","707088","869068","961588","9.423344","2.886974","0.016412","1831","2844","3493","1606","2206","2539","1535","2021","2277","1504","1846","2017","1370","1544","1620","DualSpot on"
"MA200-0420","45018","74","1","1.10","1.6","2023-07-24T14:45:00","120","2023/07/24","14:45:00","-15.795611143112183","35.00274349981919","0.1","12","300","64","98","-680","-27057","314","1","150","149.59","114.71","34.88","30.07","34.8","12.83","90404","30.50","DUALSPOT-UV-BLUE-GREEN-RED-IR","571958","622914","904333","32.624156","12.760147","0.015141","718415","831645","835992","21.806532","7.802601","0.018017","729959","823750","832612","18.361752","6.338456","0.019000","769255","833992","885430","14.557103","4.845077","0.020689","706206","868540","961319","9.527111","2.923187","0.018436","1548","2469","3060","1433","2029","2361","1372","1853","2107","1342","1728","1921","1263","1450","1532","DualSpot on"
"MA200-0420","45019","74","1","1.10","1.6","2023-07-24T14:50:00","120","2023/07/24","14:50:00","-15.795588195323944","35.00283350003883","0.3","13","300","64","97","-633","-27150","233","1","150","150.15","114.61","35.53","30.08","34.6","12.75","90408","30.50","DUALSPOT-UV-BLUE-GREEN-RED-IR","570555","622213","904462","32.881066","12.886765","0.014972","717626","831638","836682","21.998420","7.886757","0.017844","729301","823803","833248","18.529434","6.409413","0.019325","767931","833274","885120","14.694692","4.899142","0.019484","705986","868808","961943","9.618387","2.955926","0.019198","1316","2092","2593","1241","1755","2043","1214","1657","1892","1204","1526","1687","1112","1287","1364","DualSpot on"
"MA200-0420","45020","74","1","1.10","1.6","2023-07-24T14:55:00","120","2023/07/24","14:55:00","-15.795612633228302","35.00271949940361","0.1","13","300","64","98","-750","-26908","329","1","150","150.07","114.96","35.12","30.08","34.4","12.68","90404","30.50","DUALSPOT-UV-BLUE-GREEN-RED-IR","569644","622054","905405","33.145588","13.017212","0.015174","716604","831385","837150","22.195780","7.973708","0.018400","728799","824095","834124","18.703604","6.481241","0.018652","768940","835052","887532","14.835619","4.954732","0.020514","706071","869424","962948","9.712976","2.989932","0.020963","1351","2181","2718","1272","1835","2151","1257","1698","1931","1229","1588","1767","1149","1352","1443","DualSpot on"
"MA200-0420","45021","74","1","1.10","1.6","2023-07-24T15:00:00","120","2023/07/24","15:00:00","-15.795595288276672","35.002755999565125","0.1","13","300","64","97","-620","-27087","216","1","150","150.27","114.82","35.45","30.03","34.4","12.62","90400","30.38","DUALSPOT-UV-BLUE-GREEN-RED-IR","570539","623814","909036","33.387886","13.135685","0.014687","718193","834116","840599","22.386048","8.055293","0.016878","725213","820815","831401","18.869072","6.550536","0.018714","771186","838216","891352","14.970366","5.007982","0.019779","707995","872295","966439","9.801355","3.023196","0.024541","1239","1962","2432","1228","1706","1974","1196","1622","1849","1177","1506","1672","1075","1310","1415","DualSpot on"
"MA200-0420","45022","74","1","1.10","1.6","2023-07-24T15:05:00","120","2023/07/24","15:05:00","-15.795602679252625","35.00275049987249","0.0","13","300","64","98","-675","-27112","516","1","150","150.08","114.69","35.39","30.01","34.3","12.58","90392","30.31","DUALSPOT-UV-BLUE-GREEN-RED-IR","568296","622264","907988","33.665912","13.268734","0.014145","715914","832481","839725","22.595872","8.148186","0.017912","723261","819470","830708","19.050944","6.627347","0.018958","768417","835903","889424","15.119299","5.068440","0.021289","706397","870845","965164","9.899004","3.060066","0.024704","1423","2208","2718","1356","1945","2278","1316","1801","2060","1302","1713","1921","1189","1455","1574","DualSpot on"
"MA200-0420","45023","74","1","1.10","1.6","2023-07-24T15:10:00","120","2023/07/24","15:10:00","-15.795645833015442","35.002718166215345","0.3","12","300","64","98","-720","-27060","248","1","150","149.92","114.84","35.08","29.85","33.9","12.24","90404","29.94","DUALSPOT-UV-BLUE-GREEN-RED-IR","566197","620741","906869","33.916956","13.392448","0.014840","714095","831216","839222","22.790740","8.238844","0.019757","725826","823148","835055","19.221664","6.704858","0.022242","766970","834999","889002","15.258477","5.126547","0.023319","706033","870852","965536","9.987450","3.094463","0.028391","1284","2071","2585","1257","1915","2288","1234","1834","2155","1215","1661","1887","1075","1369","1501","DualSpot on"
"MA200-0420","45024","74","1","1.10","1.6","2023-07-24T15:15:00","120","2023/07/24","15:15:00","-15.795626878738403","35.0027721663937","0.2","12","300","64","97","-662","-27179","-12","1","150","150.21","114.48","35.73","29.70","34.3","12.28","90400","29.94","DUALSPOT-UV-BLUE-GREEN-RED-IR","565095","620779","908786","34.318968","13.595375","0.014731","707375","824675","833632","23.072226","8.360643","0.016355","720696","818485","831188","19.465074","6.806044","0.017361","766315","835336","890042","15.458571","5.203879","0.017098","706348","871880","967150","10.111750","3.142716","0.025845","2062","3335","4171","1822","2527","2927","1765","2351","2666","1753","2171","2383","1516","1886","2053","DualSpot on"
"MA200-0420","45025","74","1","1.10","1.6","2023-07-24T15:20:00","120","2023/07/24","15:20:00","-15.795698463916779","35.00269233295694","0.1","12","300","64","97","-708","-27108","229","1","150","149.32","114.81","34.51","29.75","34.4","12.39","90400","30.13","DUALSPOT-UV-BLUE-GREEN-RED-IR","563293","619657","908533","34.612808","13.744770","0.015436","710917","829842","839647","23.289874","8.458815","0.018901","719399","817923","831263","19.655082","6.887764","0.020293","765593","835292","890585","15.613570","5.268368","0.023513","701067","865975","960963","10.217251","3.182393","0.026170","1503","2542","3227","1405","2109","2510","1374","1966","2285","1354","1875","2140","1283","1606","1752","DualSpot on"
"MA200-0420","45026","74","1","1.10","1.6","2023-07-24T15:25:00","120","2023/07/24","15:25:00","-15.79562783241272","35.00273449975066","0.0","13","300","64","97","-754","-26937","150","1","150","150.02","114.29","35.73","29.70","34.2","12.24","90408","30.00","DUALSPOT-UV-BLUE-GREEN-RED-IR","559470","616200","904481","34.845744","13.861164","0.014302","707390","826528","836976","23.472716","8.539734","0.016834","720637","820057","833997","19.815718","6.955766","0.017814","761660","831675","887144","15.744289","5.319639","0.017640","703550","869455","965170","10.301811","3.215893","0.027161","1197","1913","2386","1185","1678","1960","1166","1580","1803","1147","1439","1588","1033","1309","1435","DualSpot on"
"MA200-0420","45027","74","1","1.10","1.6","2023-07-24T15:30:00","120","2023/07/24","15:30:00","-15.795641601085663","35.002784833079204","0.3","13","300","64","97","-752","-27024","260","1","150","150.02","114.56","35.47","29.76","34.4","12.41","90396","30.25","DUALSPOT-UV-BLUE-GREEN-RED-IR","559790","617292","907226","35.095060","13.987278","0.014621","702289","821460","832589","23.670548","8.626191","0.016605","716465","816119","830597","19.989992","7.028351","0.017383","762979","833847","889980","15.890446","5.378426","0.019596","703528","870027","966135","10.401535","3.250914","0.015712","1278","2088","2625","1280","1807","2109","1263","1699","1935","1280","1662","1858","1216","1379","1453","DualSpot on"
"MA200-0420","45028","74","1","1.10","1.6","2023-07-24T15:35:00","120","2023/07/24","15:35:00","-15.795648336410522","35.002731333021075","0.4","13","300","64","98","-720","-27047","364","1","150","150.27","115.16","35.11","29.90","34.3","12.47","90396","30.31","DUALSPOT-UV-BLUE-GREEN-RED-IR","558848","617120","908248","35.376716","14.129768","0.014792","707205","828273","840267","23.887846","8.722048","0.017293","715135","815545","830693","20.183468","7.109136","0.017996","761410","832949","889614","16.053457","5.443016","0.019429","702385","869250","965661","10.520716","3.292861","0.017439","1436","2383","3013","1398","2023","2383","1394","1910","2190","1420","1845","2063","1445","1668","1770","DualSpot on"
"MA200-0420","45029","74","1","1.10","1.6","2023-07-24T15:40:00","120","2023/07/24","15:40:00","-15.79567688703537","35.0027909995988","0.1","13","300","64","97","-708","-26891","-200","1","150","150.46","114.85","35.61","29.89","33.8","12.22","90408","30.19","DUALSPOT-UV-BLUE-GREEN-RED-IR","555513","614196","905076","35.620348","14.251022","0.014098","703118","824336","837021","24.077872","8.808022","0.017442","716117","817443","833252","20.349700","7.181542","0.018911","757543","829400","886319","16.191473","5.498884","0.019536","699784","866565","963018","10.614845","3.328079","0.021801","1245","1999","2502","1226","1789","2114","1201","1688","1953","1205","1573","1763","1144","1381","1489","DualSpot on"
"MA200-0420","45030","74","1","1.10","1.6","2023-07-24T15:45:00","120","2023/07/24","15:45:00","-15.79561460018158","35.00270316610113","0.0","13","300","64","97","-716","-26966","266","1","150","150.06","114.79","35.27","29.88","33.8","12.23","90404","30.19","DUALSPOT-UV-BLUE-GREEN-RED-IR","552553","611975","903371","35.966996","14.425240","0.014315","699851","821699","835348","24.345150","8.927706","0.017224","713991","816115","832698","20.586014","7.282579","0.018326","760565","833678","891581","16.385252","5.576414","0.019171","698130","865223","961980","10.743896","3.374643","0.018859","1773","2901","3656","1726","2515","2972","1709","2378","2744","1693","2205","2469","1570","1844","1969","DualSpot on"
"MA200-0420","45031","74","1","1.10","1.6","2023-07-24T15:50:00","120","2023/07/24","15:50:00","-15.795635759830475","35.0027324995026","0.1","13","300","64","97","-820","-26996","424","1","150","150.27","114.48","35.79","29.70","33.4","11.88","90396","29.81","DUALSPOT-UV-BLUE-GREEN-RED-IR","554388","614884","908985","36.252456","14.566891","0.013664","702813","826153","840705","24.560356","9.028158","0.017836","712005","814696","831954","20.772762","7.367587","0.019932","759381","833107","891508","16.535973","5.639334","0.020393","697633","865081","962222","10.837612","3.414506","0.031820","1464","2324","2902","1393","2080","2479","1354","1971","2311","1320","1763","1992","1143","1555","1745","DualSpot on"
"MA200-0420","45032","74","1","1.10","1.6","2023-07-24T15:55:00","120","2023/07/24","15:55:00","-15.795590996742249","35.002776166191325","0.2","13","300","64","97","-596","-27144","260","1","150","149.87","114.92","34.95","29.58","33.4","11.80","90404","29.81","DUALSPOT-UV-BLUE-GREEN-RED-IR","550501","611585","905628","36.592596","14.741493","0.014629","698605","822342","837852","24.824154","9.149442","0.018033","712543","816389","834535","21.004036","7.469324","0.019485","755392","829584","888470","16.725407","5.720547","0.022942","699779","868362","966316","10.957314","3.463430","0.030537","1738","2934","3740","1701","2572","3080","1670","2416","2828","1653","2331","2683","1455","1955","2186","DualSpot on"
"MA200-0420","45033","74","1","1.10","1.6","2023-07-24T16:00:00","120","2023/07/24","16:00:00","-15.795628666877747","35.00277449958958","0.3","13","300","64","97","-696","-27052","208","1","150","149.41","114.51","34.90","29.49","33.6","11.81","90408","29.69","DUALSPOT-UV-BLUE-GREEN-RED-IR","551029","613187","909587","36.929400","14.909859","0.014022","694134","818255","834680","25.088090","9.269084","0.017379","709169","813540","832492","21.237428","7.571140","0.018900","757339","832731","892558","16.917974","5.798902","0.019963","697104","865672","963806","11.082909","3.512485","0.026342","1727","2833","3582","1708","2541","3029","1692","2422","2826","1687","2252","2547","1532","1963","2163","DualSpot on"
"MA200-0420","45034","74","1","1.10","1.6","2023-07-24T16:05:00","120","2023/07/24","16:05:00","-15.795617043972015","35.002695832867175","0.2","13","300","64","98","-745","-27000","279","1","150","150.27","115.27","35.00","29.35","34.0","11.85","90412","29.56","DUALSPOT-UV-BLUE-GREEN-RED-IR","545647","608685","904967","37.399096","15.140335","0.013601","693138","818885","836771","25.476834","9.441381","0.016570","708182","814097","834317","21.587208","7.721023","0.018085","751261","827491","887975","17.210098","5.917413","0.019686","697726","867480","966567","11.275055","3.588086","0.026845","2393","3868","4871","2500","3649","4326","2519","3555","4132","2542","3397","3845","2328","3017","3339","DualSpot on"
"MA200-0420","45035","74","1","1.10","1.6","2023-07-24T16:10:00","120","2023/07/24","16:10:00","-15.795623362064362","35.00269766617566","0.1","13","300","64","97","-640","-27136","232","1","150","153.01","114.47","38.54","29.19","33.5","11.47","90408","29.31","DUALSPOT-UV-BLUE-GREEN-RED-IR","542577","606599","903908","37.841280","15.362896","0.012008","690278","816955","836018","25.800938","9.589209","0.013981","705813","812648","833856","21.870442","7.845111","0.014608","748937","826071","887269","17.443524","6.010885","0.012842","696944","867339","966960","11.429924","3.647995","0.015692","2268","3391","4158","2099","2843","3283","2054","2672","3018","2045","2433","2636","1890","2171","2303","DualSpot on"
"MA200-0420","45036","74","1","1.10","1.6","2023-07-24T16:15:00","120","2023/07/24","16:15:00","-15.79560935497284","35.002720332937315","0.1","13","300","64","98","-675","-27000","225","1","150","149.69","114.41","35.28","29.05","33.4","11.35","90404","29.25","DUALSPOT-UV-BLUE-GREEN-RED-IR","542041","607382","907372","38.326112","15.615108","0.014011","691247","819556","839886","26.121304","9.733333","0.016177","702256","809774","831906","22.144720","7.963597","0.017392","751067","829540","891778","17.663944","6.097823","0.016926","694625","865177","965067","11.568798","3.702034","0.024047","2488","4199","5375","2075","3028","3594","1990","2788","3236","1932","2472","2757","1695","2139","2349","DualSpot on"
"MA200-0420","45037","74","1","1.10","1.6","2023-07-24T16:20:00","120","2023/07/24","16:20:00","-15.795598149299622","35.0026998326648","0.1","14","300","64","97","-716","-27032","280","1","150","150.21","114.82","35.39","28.94","33.5","11.27","90404","29.31","DUALSPOT-UV-BLUE-GREEN-RED-IR","539478","606642","909740","39.052104","15.992558","0.013769","684607","813709","835529","26.569216","9.928450","0.014964","700372","809451","832847","22.522722","8.118780","0.015172","750178","830137","893466","17.969814","6.214365","0.014763","694492","866156","966869","11.770363","3.773891","0.015921","3713","6264","8033","2891","4087","4800","2733","3640","4152","2672","3303","3637","2452","2836","3017","DualSpot on"
"MA200-0420","45038","74","1","1.10","1.6","2023-07-24T16:25:00","120","2023/07/24","16:25:00","-15.795583367347717","35.00283699971624","0.1","13","300","64","98","-647","-27173","785","1","150","150.52","114.78","35.74","28.86","33.6","11.24","90400","29.00","DUALSPOT-UV-BLUE-GREEN-RED-IR","532752","602671","909959","40.336236","16.680122","0.013660","679343","810814","835265","27.306650","10.251715","0.014468","696351","807745","833182","23.141442","8.370326","0.013996","740355","821818","886138","18.464730","6.398091","0.012313","688102","860128","961254","12.110733","3.885161","0.005657","6571","11300","14634","4762","6705","7873","4475","5843","6619","4325","5157","5598","4142","4349","4447","DualSpot on"
"MA200-0420","45039","74","1","1.10","1.6","2023-07-24T16:30:00","120","2023/07/24","16:30:00","-15.795603632926941","35.00286283297464","0.1","14","300","64","98","-740","-26903","220","1","150","149.89","114.38","35.51","28.65","33.5","11.04","90416","28.69","DUALSPOT-UV-BLUE-GREEN-RED-IR","528828","599618","907683","40.828236","16.940090","0.013358","675595","807896","833636","27.666542","10.419306","0.016085","693739","806101","832669","23.456970","8.511869","0.017528","743159","826190","891805","18.725416","6.503892","0.017091","686977","859616","961273","12.280308","3.951831","0.022961","2526","4299","5557","2332","3498","4203","2290","3309","3889","2286","2989","3363","2071","2622","2884","DualSpot on"
"MA200-0420","45040","74","1","1.10","1.6","2023-07-24T16:35:00","120","2023/07/24","16:35:00","-15.7955761551857","35.00282266619615","0.5","14","300","64","97","-720","-27047","76","1","150","149.56","114.53","35.03","28.45","33.7","10.94","90428","28.56","DUALSPOT-UV-BLUE-GREEN-RED-IR","527206","598949","908835","41.256524","17.172050","0.013794","674492","807871","834865","27.975274","10.565445","0.016734","692642","806022","833599","23.725400","8.631532","0.017634","742931","826993","893481","18.941266","6.594260","0.019082","687671","861208","963591","12.417015","4.008782","0.028064","2196","3889","5096","1998","3092","3757","1945","2836","3345","1890","2588","2960","1667","2271","2559","DualSpot on"
"MA200-0420","45041","74","1","1.10","1.6","2023-07-24T16:40:00","120","2023/07/24","16:40:00","-15.795662999153137","35.002789832884446","0.5","14","300","64","98","-736","-27040","368","1","150","149.89","114.73","35.16","28.28","34.3","11.06","90428","28.38","DUALSPOT-UV-BLUE-GREEN-RED-IR","523564","597307","910564","42.132844","17.635552","0.013181","671902","807258","836369","28.535896","10.821284","0.015447","686245","800746","829886","24.205942","8.840073","0.016362","735860","821001","888381","19.321584","6.747079","0.016748","687794","862648","966112","12.660992","4.101141","0.020400","4486","7743","10089","3622","5394","6477","3477","4924","5757","3325","4361","4916","2970","3670","4005","DualSpot on"
"MA200-0420","45042","74","1","1.10","1.6","2023-07-24T16:45:00","120","2023/07/24","16:45:00","-15.79555869102478","35.00273683294654","0.4","14","300","72","98","-708","-26947","-8","1","150","150.15","114.74","35.40","28.13","34.7","11.08","90436","28.25","DUALSPOT-UV-BLUE-GREEN-RED-IR","447152","512223","784353","42.997200","18.086968","0.012665","669195","806546","837835","29.116710","11.086089","0.014957","683990","800352","831293","24.700784","9.056405","0.016072","734830","821767","890642","19.718368","6.907326","0.016346","683507","858621","962560","12.919453","4.198941","0.019444","4424","7489","9714","3752","5545","6647","3580","5073","5937","3469","4541","5119","3146","3859","4202","DualSpot on"
"MA200-0420","45043","74","1","1.10","1.6","2023-07-24T16:50:00","120","2023/07/24","16:50:00","-15.795585989952087","35.00282016629353","0.1","13","300","64","98","-688","-26903","12","1","150","150.54","115.09","35.45","27.96","34.9","11.03","90436","28.06","DUALSPOT-UV-BLUE-GREEN-RED-IR","511086","588128","905110","43.949540","18.586834","0.012503","665395","804644","838159","29.723762","11.361753","0.014610","680393","798482","831192","25.215530","9.278604","0.015402","731514","820059","890211","20.123086","7.070202","0.015945","682086","858241","963061","13.179035","4.297252","0.019274","4860","8281","10789","3910","5764","6911","3713","5203","6071","3528","4609","5195","3150","3873","4223","DualSpot on"
"MA200-0420","45044","74","1","1.10","1.6","2023-07-24T16:55:00","120","2023/07/24","16:55:00","-15.795624911785126","35.00279466644861","0.5","13","300","64","97","-676","-26891","96","1","150","150.27","114.67","35.60","27.79","34.9","10.86","90440","27.81","DUALSPOT-UV-BLUE-GREEN-RED-IR","508492","587101","907020","44.676628","18.976956","0.012504","663677","804587","839954","30.199066","11.585711","0.015115","678783","798375","832568","25.621792","9.461782","0.016299","731448","821498","892933","20.441604","7.201204","0.016334","682840","860253","966087","13.382206","4.375485","0.019655","3724","6436","8438","3072","4663","5653","2941","4271","5050","2786","3691","4183","2475","3069","3358","DualSpot on"
"MA200-0420","45045","74","1","1.10","1.6","2023-07-24T17:00:00","120","2023/07/24","17:00:00","-15.79561197757721","35.00279516656883","0.2","13","300","64","97","-720","-26904","216","1","150","150.02","114.67","35.35","27.60","35.1","10.79","90432","27.63","DUALSPOT-UV-BLUE-GREEN-RED-IR","505555","585461","907859","45.344796","19.345302","0.012766","656612","797789","834677","30.641814","11.800281","0.015727","676976","797887","833528","26.000968","9.636965","0.017000","724599","815183","887218","20.738854","7.329780","0.018515","678671","855878","961951","13.566555","4.455357","0.027742","3422","6119","8126","2862","4499","5524","2745","4113","4920","2600","3648","4221","2245","3156","3601","DualSpot on"
"MA200-0420","45046","74","1","1.10","1.6","2023-07-24T17:05:00","120","2023/07/24","17:05:00","-15.795614421367645","35.00275483285077","0.2","13","300","64","97","-712","-26954","91","1","150","150.27","114.86","35.41","27.43","35.3","10.72","90424","27.44","DUALSPOT-UV-BLUE-GREEN-RED-IR","501648","582609","906765","46.005260","19.716488","0.012828","652929","795081","833639","31.080774","12.015073","0.015733","674754","796879","833918","26.380070","9.813891","0.017056","722156","813806","886869","21.037656","7.459199","0.018320","678043","856059","962902","13.757900","4.534986","0.024919","3377","6156","8240","2833","4496","5544","2740","4147","4981","2610","3666","4246","2327","3141","3541","DualSpot on"
"MA200-0420","45047","74","1","1.10","1.6","2023-07-24T17:10:00","120","2023/07/24","17:10:00","-15.795624494552612","35.00274183298461","0.1","13","300","64","97","-712","-27016","125","1","150","149.81","114.38","35.42","27.27","35.5","10.70","90428","27.25","DUALSPOT-UV-BLUE-GREEN-RED-IR","500084","582618","910332","46.702640","20.104206","0.012478","651942","795953","836549","31.575172","12.254080","0.015150","670158","793248","831817","26.810138","10.012316","0.016368","723448","816881","891567","21.381842","7.607976","0.017802","679506","859085","967220","13.989449","4.628448","0.022304","3581","6429","8582","3204","5002","6142","3121","4650","5562","3018","4214","4874","2827","3686","4110","DualSpot on"
"MA200-0420","45048","74","1","1.10","1.6","2023-07-24T17:15:00","120","2023/07/24","17:15:00","-15.795694470405579","35.002805332886055","0.3","13","300","64","98","-712","-26904","112","1","150","149.76","114.89","34.87","27.09","35.6","10.54","90420","27.06","DUALSPOT-UV-BLUE-GREEN-RED-IR","496759","580551","910453","47.386276","20.476402","0.012303","649527","795049","837499","32.060852","12.484128","0.014931","667410","791868","831907","27.231662","10.202066","0.016008","720785","815487","891309","21.721820","7.749075","0.016739","674614","854058","962435","14.215366","4.719700","0.023304","3495","6269","8381","3133","4891","6011","3046","4518","5400","2968","4060","4665","2746","3655","4107","DualSpot on"
"MA200-0420","45049","74","1","1.10","1.6","2023-07-24T17:20:00","120","2023/07/24","17:20:00","-15.795594155788422","35.00271283299662","0.4","13","300","64","97","-652","-26952","-44","1","150","150.33","114.65","35.68","26.90","35.7","10.42","90420","26.81","DUALSPOT-UV-BLUE-GREEN-RED-IR","494107","578874","910831","47.964636","20.804576","0.012353","647650","794395","838570","32.479928","12.692015","0.015200","665345","790907","832341","27.598782","10.375340","0.016412","719159","815015","891964","22.024068","7.881674","0.017688","674025","854268","963509","14.415096","4.805886","0.025467","2963","5402","7271","2709","4319","5352","2658","4032","4859","2644","3728","4332","2433","3374","3845","DualSpot on"
"MA200-0420","45050","74","1","1.10","1.6","2023-07-24T17:25:00","120","2023/07/24","17:25:00","-15.795539319515228","35.00284599978477","0.1","13","300","64","98","-720","-26950","354","1","150","149.85","114.72","35.13","26.68","35.7","10.23","90432","26.63","DUALSPOT-UV-BLUE-GREEN-RED-IR","490787","576285","909367","48.478688","21.094246","0.012336","643044","790293","835827","32.866158","12.883844","0.015387","662632","789083","831786","27.938530","10.537708","0.016958","711370","807465","884758","22.305260","8.004651","0.017955","672839","853659","963593","14.600666","4.886171","0.026229","2631","4843","6547","2495","4048","5049","2458","3837","4672","2459","3512","4101","2259","3192","3662","DualSpot on"
"MA200-0420","45051","74","1","1.10","1.6","2023-07-24T17:30:00","120","2023/07/24","17:30:00","-15.79563719034195","35.002762999618426","0.2","14","300","64","98","-700","-27058","125","1","150","149.82","114.53","35.29","26.45","35.6","10.01","90432","26.38","DUALSPOT-UV-BLUE-GREEN-RED-IR","487730","574312","909394","49.102808","21.438092","0.011876","640674","789385","836901","33.361614","13.124016","0.014565","660567","788523","832943","28.382374","10.744853","0.015963","715049","813389","892755","22.681180","8.168290","0.017291","672890","855041","966179","14.858410","4.994441","0.023809","3200","5723","7678","3206","5045","6237","3217","4873","5882","3292","4652","5417","3143","4286","4864","DualSpot on"
"MA200-0420","45052","74","1","1.10","1.6","2023-07-24T17:35:00","120","2023/07/24","17:35:00","-15.795700311660767","35.00271033286117","0.2","14","300","64","98","-688","-26936","352","1","150","149.77","114.93","34.84","26.23","35.9","9.94","90428","26.06","DUALSPOT-UV-BLUE-GREEN-RED-IR","484731","572351","909554","49.737360","21.798328","0.012233","637844","787910","837441","33.866592","13.376587","0.015293","657708","786913","833028","28.834292","10.960844","0.016715","712307","811973","892702","23.065284","8.339261","0.018347","672097","855305","967590","15.123558","5.108439","0.025600","3242","6073","8281","3257","5374","6756","3264","5147","6301","3352","4923","5812","3222","4570","5258","DualSpot on"
"MA200-0420","45053","74","1","1.10","1.6","2023-07-24T17:40:00","120","2023/07/24","17:40:00","-15.795697808265686","35.00270799943246","0.1","14","300","64","98","-656","-27075","148","1","150","150.67","114.73","35.94","25.96","36.1","9.77","90428","25.81","DUALSPOT-UV-BLUE-GREEN-RED-IR","480428","569198","908601","50.526932","22.245628","0.011696","633900","785235","836883","34.420324","13.648940","0.014116","653825","784346","832197","29.323108","11.188571","0.015030","708568","809575","891629","23.466526","8.513110","0.016005","670314","854408","967651","15.393219","5.218773","0.020570","4042","7310","9881","3577","5618","6959","3537","5261","6324","3508","4853","5619","3283","4288","4804","DualSpot on"
"MA200-0420","45054","74","1","1.10","1.6","2023-07-24T17:45:00","120","2023/07/24","17:45:00","-15.795688211917877","35.0027436662931","0.1","15","300","68","97","-724","-26903","464","2","150","149.96","115.27","34.69","25.79","36.2","9.65","90436","25.63","DUALSPOT-UV-BLUE-GREEN-RED-IR","798869","710661","909133","0.000000","0.000000","0.000000","894063","898604","834352","0.000000","0.000000","0.000000","877851","878206","831978","0.000000","0.000000","0.000000","893656","879924","888799","0.000000","0.000000","0.000000","778078","895883","961448","0.000000","0.000000","0.000000","","","","","","","","","","","","","","","","Tape advance-DualSpot on"
"MA200-0420","45055","74","1","1.10","1.6","2023-07-24T17:50:00","120","2023/07/24","17:50:00","-15.79572182893753","35.00278133293614","0.1","15","300","68","98","-720","-26754","-458","2","150","149.49","115.16","34.34","25.56","36.4","9.53","90440","25.44","DUALSPOT-UV-BLUE-GREEN-RED-IR","782435","706731","910809","0.000000","0.000000","0.000000","881569","895329","835440","0.000000","0.000000","0.000000","868133","876172","833535","0.000000","0.000000","0.000000","887045","879517","891274","0.000000","0.000000","0.000000","775765","897022","964595","0.000000","0.000000","0.000000","","","","","","","","","","","","","","","","Tape advance-DualSpot on"
"MA200-0420","45056","74","1","1.10","1.6","2023-07-24T17:55:00","120","2023/07/24","17:55:00","-15.795719146728516","35.00274816621095","0.1","15","300","64","98","-758","-26887","108","2","150","149.90","115.39","34.51","25.33","36.6","9.43","90456","25.25","DUALSPOT-UV-BLUE-GREEN-RED-IR","752074","694009","904292","3.236011","1.099344","0.052734","862339","889317","836186","2.289271","0.759482","0.000000","852520","871796","834744","1.955533","0.642406","0.000000","868383","870140","886245","1.556255","0.502886","0.000000","769970","896262","966774","0.974769","0.309959","0.000000","16472","18710","19861","14707","16314","14707","14070","15454","14070","13531","14619","13531","11801","12546","11801","DualSpot on"
"MA200-0420","45057","74","1","1.10","1.6","2023-07-24T18:00:00","120","2023/07/24","18:00:00","-15.795630693435669","35.00282883294858","0.0","14","300","64","97","-768","-26952","104","2","150","150.29","114.79","35.50","25.14","36.7","9.28","90452","25.00","DUALSPOT-UV-BLUE-GREEN-RED-IR","733957","688552","905355","5.806284","2.008449","0.030992","847918","884750","836940","4.078179","1.367253","0.031620","835411","862957","830512","3.484511","1.155370","0.032266","864529","873387","893088","2.778692","0.903277","0.000000","765556","895788","968624","1.747356","0.557380","0.000000","13152","15039","16038","11553","12690","13263","11058","11995","12459","10684","11314","10684","9402","9735","9402","DualSpot on"
"MA200-0420","45058","74","1","1.10","1.6","2023-07-24T18:05:00","120","2023/07/24","18:05:00","-15.79567265510559","35.002737999428064","0.1","14","300","64","98","-716","-26995","137","2","150","149.63","115.09","34.54","24.98","36.9","9.23","90456","24.88","DUALSPOT-UV-BLUE-GREEN-RED-IR","717739","682762","904827","7.979149","2.795696","0.030309","836539","881132","837562","5.500887","1.849746","0.029776","825307","859479","830470","4.692984","1.554662","0.027943","850365","864739","886955","3.742545","1.209648","0.021464","756479","888999","963102","2.366903","0.746575","0.000000","11089","13387","14626","9164","10355","10959","8717","9597","10033","8402","8899","9136","7520","7651","7520","DualSpot on"
"MA200-0420","45059","74","1","1.10","1.6","2023-07-24T18:10:00","120","2023/07/24","18:10:00","-15.795656323432922","35.00278433319181","0.1","14","300","64","98","-708","-27091","392","2","150","149.77","115.39","34.39","24.84","36.8","9.05","90460","24.69","DUALSPOT-UV-BLUE-GREEN-RED-IR","703526","679518","909006","10.423164","3.723346","0.028648","827596","880185","840949","6.972374","2.360713","0.028666","818483","859355","833798","5.920595","1.968759","0.027872","846298","866253","891328","4.709541","1.522909","0.024206","755574","891724","967916","2.981796","0.937719","0.000000","12440","15845","17737","9453","11015","11815","8832","9998","10578","8407","9139","9489","7444","7765","7444","DualSpot on"
"MA200-0420","45060","74","1","1.10","1.6","2023-07-24T18:15:00","120","2023/07/24","18:15:00","-15.795624136924744","35.002762832911685","0.1","13","300","64","98","-657","-26946","334","2","150","150.02","115.39","34.64","24.71","37.0","9.03","90464","24.63","DUALSPOT-UV-BLUE-GREEN-RED-IR","681427","669639","905892","13.284842","4.850214","0.024795","810524","871074","836949","8.589025","2.927506","0.023647","806126","853808","832094","7.240902","2.413112","0.021245","835449","861137","888928","5.731481","1.848928","0.014804","749443","888458","966169","3.620248","1.127013","-0.005005","14566","19109","21722","10386","12131","13033","9499","10651","11226","8885","9443","9709","7729","7634","7591","DualSpot on"
"MA200-0420","45061","74","1","1.10","1.6","2023-07-24T18:20:00","120","2023/07/24","18:20:00","-15.795671164989471","35.002767166588455","0.1","13","300","64","98","-728","-26868","144","2","150","149.94","115.42","34.52","24.58","37.1","8.97","90464","24.50","DUALSPOT-UV-BLUE-GREEN-RED-IR","668031","665715","909221","15.639940","5.803299","0.022985","802345","870065","840352","10.005808","3.444403","0.025085","798245","851930","833692","8.415279","2.826714","0.025058","829861","860560","891057","6.642438","2.153080","0.022094","742177","883343","962396","4.201917","1.309105","0.015092","11984","16215","18711","9099","11099","12149","8447","9946","10704","7918","8838","9280","7040","7368","7516","DualSpot on"
"MA200-0420","45062","74","1","1.10","1.6","2023-07-24T18:25:00","120","2023/07/24","18:25:00","-15.795703649520874","35.00275499979034","0.1","13","300","64","97","-680","-26912","16","2","150","149.81","115.13","34.68","24.40","37.3","8.89","90464","24.31","DUALSPOT-UV-BLUE-GREEN-RED-IR","649908","658472","909812","18.444958","6.959179","0.020144","787291","863772","840020","11.852115","4.133999","0.022727","786458","847793","834409","9.977225","3.392345","0.023517","820976","858377","892644","7.890059","2.584501","0.022874","738089","883320","964982","5.017055","1.578781","0.025029","14310","19578","22770","11888","14742","16271","11263","13542","14716","10872","12482","13266","9890","10864","11311","DualSpot on"
"MA200-0420","45063","74","1","1.10","1.6","2023-07-24T18:30:00","120","2023/07/24","18:30:00","-15.795659363269806","35.002724832855165","0.1","13","300","64","98","-741","-26900","175","2","150","149.44","115.65","33.78","24.24","37.6","8.84","90468","24.13","DUALSPOT-UV-BLUE-GREEN-RED-IR","630716","647888","904163","20.829552","7.959072","0.019849","769618","853151","834987","13.530827","4.769176","0.023151","772352","840214","831332","11.430679","3.924364","0.024341","807181","850497","888097","9.078828","2.999555","0.024872","734430","883702","967937","5.823688","1.843725","0.026457","12110","17384","20646","10760","13938","15668","10433","13074","14455","10312","12326","13320","9743","10955","11517","DualSpot on"
"MA200-0420","45064","74","1","1.10","1.6","2023-07-24T18:35:00","120","2023/07/24","18:35:00","-15.795624017715454","35.002793999854475","0.2","13","300","64","98","-704","-26904","-250","2","150","149.77","115.50","34.27","24.11","37.6","8.75","90480","24.00","DUALSPOT-UV-BLUE-GREEN-RED-IR","620611","644816","907798","22.847808","8.837421","0.018914","761695","851931","838541","14.983218","5.334914","0.021815","764663","838518","833631","12.702013","4.401695","0.022733","800988","849710","890633","10.133853","3.375038","0.022711","726450","878347","964418","6.551918","2.089871","0.025884","10263","15052","18073","9322","12237","13848","9138","11562","12848","9164","10991","11904","8807","10032","10606","DualSpot on"
"MA200-0420","45065","74","1","1.10","1.6","2023-07-24T18:40:00","120","2023/07/24","18:40:00","-15.795644521713257","35.002758166287094","0.1","13","300","64","98","-720","-26903","-136","2","150","149.82","115.24","34.58","23.98","37.7","8.65","90484","23.88","DUALSPOT-UV-BLUE-GREEN-RED-IR","609900","640689","910097","24.843860","9.732628","0.018056","752895","849411","840935","16.434797","5.916232","0.020896","751981","831081","830319","13.980532","4.896104","0.022013","788734","842395","886393","11.201815","3.767575","0.022607","719015","873618","961687","7.298603","2.345705","0.023704","10173","15206","18449","9337","12463","14221","9210","11871","13305","9297","11389","12450","9051","10336","10944","DualSpot on"
"MA200-0420","45066","74","1","1.10","1.6","2023-07-24T18:45:00","120","2023/07/24","18:45:00","-15.79558402299881","35.00276633282192","0.2","13","300","64","98","-564","-27047","296","2","150","150.21","115.24","34.97","23.86","37.7","8.58","90492","23.81","DUALSPOT-UV-BLUE-GREEN-RED-IR","593148","630522","904803","27.046174","10.749199","0.017150","736575","838652","835550","17.983568","6.548870","0.019604","744153","829235","832883","15.334860","5.426555","0.020242","782357","841507","889179","12.328422","4.184456","0.020232","715794","874171","964928","8.084282","2.616536","0.020718","11224","17075","20934","9962","13412","15387","9756","12594","14148","9807","11960","13067","9523","10819","11439","DualSpot on"
"MA200-0420","45067","74","1","1.10","1.6","2023-07-24T18:50:00","120","2023/07/24","18:50:00","-15.795668840408325","35.00269466615282","0.1","13","300","64","98","-624","-26988","-592","2","150","150.28","115.20","35.07","23.75","37.7","8.47","90492","23.69","DUALSPOT-UV-BLUE-GREEN-RED-IR","583333","627850","910955","29.380112","11.842319","0.016142","723425","832316","835415","19.759572","7.287374","0.018571","731167","822592","831518","16.920194","6.060531","0.019398","770192","835440","887347","13.674494","4.694227","0.019809","707797","869914","963495","9.049126","2.955782","0.020673","11899","18306","22633","11428","15609","18053","11424","15007","17006","11722","14582","16077","11699","13512","14391","DualSpot on"
"MA200-0420","45068","74","1","1.10","1.6","2023-07-24T18:55:00","120","2023/07/24","18:55:00","-15.795662999153137","35.002731333021075","0.1","13","300","64","98","-736","-26868","252","2","150","150.08","115.44","34.64","23.62","37.9","8.42","90492","23.50","DUALSPOT-UV-BLUE-GREEN-RED-IR","560782","614156","906114","32.792320","13.517956","0.015855","706805","825065","837145","22.286802","8.367541","0.018154","717430","817991","834408","19.159502","6.972564","0.018774","758900","832936","891129","15.576630","5.421418","0.019000","700874","869105","967240","10.418755","3.432302","0.018441","17361","28412","36163","16229","23116","27257","16104","21859","25151","16531","21061","23480","16573","19217","20515","DualSpot on"
"MA200-0420","45069","74","1","1.10","1.6","2023-07-24T19:00:00","120","2023/07/24","19:00:00","-15.795648336410522","35.00272749969736","0.2","13","300","64","98","-688","-26957","184","2","150","150.33","115.44","34.88","23.47","38.2","8.40","90496","23.38","DUALSPOT-UV-BLUE-GREEN-RED-IR","545646","606851","909008","35.835920","15.028095","0.014654","692092","818973","839779","24.702340","9.422159","0.016938","699137","807248","831033","21.334356","7.882354","0.017756","740951","822548","886560","17.450610","6.156853","0.018103","689002","861982","964102","11.797035","3.927420","0.018709","15485","25429","32611","15511","22414","26670","15640","21654","25178","16285","21153","23806","16678","19829","21401","DualSpot on"
"MA200-0420","45070","74","1","1.10","1.6","2023-07-24T19:05:00","120","2023/07/24","19:05:00","-15.795620560646057","35.00275083305314","0.0","13","300","64","98","-812","-26850","-1279","2","150","149.96","114.74","35.22","23.37","38.3","8.36","90500","23.31","DUALSPOT-UV-BLUE-GREEN-RED-IR","529404","596354","905245","38.457856","16.366306","0.013932","675779","808855","837120","26.779194","10.349890","0.015912","688179","803216","833449","23.210712","8.679314","0.016378","731983","820539","890092","19.075674","6.803591","0.016548","683028","861143","967303","13.006718","4.362077","0.015717","13421","22320","28912","13417","19530","23380","13576","18789","21902","14208","18425","20763","14727","17242","18511","DualSpot on"
"MA200-0420","45071","74","1","1.10","1.6","2023-07-24T19:10:00","120","2023/07/24","19:10:00","-15.795597434043884","35.00277549983002","0.0","13","300","64","98","-724","-27000","156","2","150","149.47","115.09","34.38","23.27","38.4","8.32","90508","23.19","DUALSPOT-UV-BLUE-GREEN-RED-IR","520670","592312","909117","40.556836","17.474678","0.014160","667716","806322","840785","28.417034","11.103080","0.016526","676829","796482","831821","24.689538","9.327647","0.017380","721437","814857","888531","20.356552","7.326316","0.017876","676097","857574","966636","13.963112","4.709767","0.017667","10711","18935","25161","10549","16240","19890","10667","15656","18685","11165","15254","17552","11608","14127","15409","DualSpot on"
"MA200-0420","45072","74","1","1.10","1.6","2023-07-24T19:15:00","120","2023/07/24","19:15:00","-15.795628547668457","35.00273883296177","0.2","13","300","64","97","-604","-27319","96","2","150","149.76","115.13","34.63","23.17","38.6","8.28","90508","23.06","DUALSPOT-UV-BLUE-GREEN-RED-IR","508173","583449","905314","42.567276","18.564990","0.013801","655060","797562","837729","29.966894","11.829429","0.016007","669510","793997","834424","26.086972","9.948928","0.016709","714107","812330","890192","21.564136","7.825135","0.017130","667364","851255","962703","14.854813","5.041155","0.017689","10257","18492","24862","9980","15548","19181","10077","14894","17864","10523","14451","16688","10820","13367","14676","DualSpot on"
"MA200-0420","45073","74","1","1.10","1.6","2023-07-24T19:20:00","120","2023/07/24","19:20:00","-15.79561460018158","35.002809832803905","0.2","13","300","64","98","-720","-26933","108","2","150","149.94","115.09","34.85","23.05","38.6","8.16","90516","23.00","DUALSPOT-UV-BLUE-GREEN-RED-IR","502307","580983","909573","44.204928","19.459156","0.013329","649781","796361","841439","31.225646","12.426207","0.015511","660422","788141","832467","27.223588","10.460576","0.016211","705424","807000","888013","22.547202","8.236006","0.016611","665834","853182","967580","15.589718","5.319895","0.017769","8357","15068","20345","8108","12693","15723","8199","12187","14676","8569","11827","13701","8920","11171","12338","DualSpot on"
"MA200-0420","45074","74","1","1.10","1.6","2023-07-24T19:25:00","120","2023/07/24","19:25:00","-15.795602977275848","35.00276133301668","0.1","13","300","64","98","-741","-26866","25","2","150","149.81","115.34","34.47","22.95","38.6","8.11","90520","22.94","DUALSPOT-UV-BLUE-GREEN-RED-IR","491156","572635","905001","45.937264","20.399280","0.012947","637692","787089","836969","32.569066","13.063369","0.015198","653934","785652","834433","28.439826","11.009208","0.015959","700067","805808","890628","23.599992","8.679672","0.016671","657945","847265","963693","16.378864","5.615617","0.017015","8822","16019","21769","8634","13703","17097","8754","13214","16031","9157","12913","15098","9558","11984","13251","DualSpot on"
"MA200-0420","45075","74","1","1.10","1.6","2023-07-24T19:30:00","120","2023/07/24","19:30:00","-15.795631051063538","35.00277549983002","0.1","13","300","64","97","-816","-26608","292","2","150","149.82","114.89","34.93","22.87","38.7","8.08","90520","22.81","DUALSPOT-UV-BLUE-GREEN-RED-IR","483391","569421","911104","48.196352","21.631706","0.012248","625298","779246","836013","34.411744","13.948159","0.014339","642458","778930","833752","30.120944","11.779777","0.015092","689241","800054","889885","25.069298","9.308909","0.015711","650642","843631","963722","17.491330","6.044399","0.016595","11549","20722","28191","11890","18776","23471","12148","18313","22273","12830","18072","21167","13526","17147","19058","DualSpot on"
"MA200-0420","45076","74","1","1.10","1.6","2023-07-24T19:35:00","120","2023/07/24","19:35:00","-15.795632660388947","35.00281049963087","0.0","13","300","64","97","-720","-26860","352","2","150","149.44","115.67","33.76","22.78","38.9","8.07","90520","22.75","DUALSPOT-UV-BLUE-GREEN-RED-IR","469893","559181","906203","50.491372","22.906570","0.012340","614710","773565","837754","36.323008","14.883386","0.014702","628964","769763","830676","31.877376","12.598960","0.015595","675203","790655","885367","26.613014","9.980217","0.016511","644906","842282","966600","18.674064","6.502862","0.017929","11653","22178","30918","12248","20534","26286","12606","20143","25069","13389","19948","23883","14283","18968","21472","DualSpot on"
"MA200-0420","45077","74","1","1.10","1.6","2023-07-24T19:40:00","120","2023/07/24","19:40:00","-15.795575857162476","35.0028124996461","0.1","13","300","68","98","-760","-26908","168","3","150","150.71","113.99","36.72","22.66","39.3","8.11","90512","22.56","DUALSPOT-UV-BLUE-GREEN-RED-IR","766670","702434","910943","0.000000","0.000000","0.000000","867757","893716","839882","0.000000","0.000000","0.000000","849845","868699","832379","0.000000","0.000000","0.000000","866509","869283","886835","0.000000","0.000000","0.000000","767298","894292","967963","0.000000","0.000000","0.000000","","","","","","","","","","","","","","","","Tape advance-DualSpot on"
"MA200-0420","45078","74","1","1.10","1.6","2023-07-24T19:45:00","120","2023/07/24","19:45:00","-15.795546650886536","35.00278233294375","0.4","14","300","68","98","-717","-27114","-59","3","150","149.60","113.76","35.84","22.54","39.5","8.08","90520","22.50","DUALSPOT-UV-BLUE-GREEN-RED-IR","726603","687236","907513","0.000000","0.000000","0.000000","836083","880110","836448","0.000000","0.000000","0.000000","824354","858627","830544","0.000000","0.000000","0.000000","851302","867158","891252","0.000000","0.000000","0.000000","754671","888459","966192","0.000000","0.000000","0.000000","","","","","","","","","","","","","","","","Tape advance-DualSpot on"
"MA200-0420","45079","74","1","1.10","1.6","2023-07-24T19:50:00","120","2023/07/24","19:50:00","-15.795741856098175","35.00270633283071","0.1","14","300","64","98","-700","-26988","-391","3","150","149.44","113.86","35.58","22.43","39.7","8.06","90516","22.38","DUALSPOT-UV-BLUE-GREEN-RED-IR","691495","672834","904559","4.639356","1.795345","0.060385","813489","874319","840554","3.230862","1.149767","0.054936","804373","853303","833416","2.803152","0.972324","0.000000","828974","857360","887988","2.295688","0.769484","0.000000","741188","881674","963587","1.536167","0.494887","0.000000","23932","29641","33246","21035","23959","25574","20439","22691","20439","20228","21700","20228","18846","19433","18846","DualSpot on"
"MA200-0420","45080","74","1","1.10","1.6","2023-07-24T19:55:00","120","2023/07/24","19:55:00","-15.795647382736206","35.00276816636324","0.1","14","300","64","98","-687","-26925","541","3","150","149.44","113.86","35.58","22.33","39.7","7.96","90528","22.31","DUALSPOT-UV-BLUE-GREEN-RED-IR","667590","664965","908283","8.577560","3.385322","0.037953","786470","860725","836201","6.096040","2.200484","0.035063","782378","843461","831247","5.317251","1.868504","0.033562","816119","855737","892647","4.383421","1.485187","0.029241","729085","875639","961487","2.966045","0.967717","0.000000","20315","26251","30121","18654","21895","23725","18331","20914","22313","18395","20183","21100","17542","18566","17542","DualSpot on"
"MA200-0420","45081","74","1","1.10","1.6","2023-07-24T20:00:00","120","2023/07/24","20:00:00","-15.795632183551788","35.002713333116844","0.2","13","300","64","98","-656","-26884","124","3","150","149.61","113.78","35.83","22.24","39.7","7.89","90532","22.19","DUALSPOT-UV-BLUE-GREEN-RED-IR","643577","653311","904872","11.877117","4.779907","0.030658","771809","857638","841183","8.582483","3.159362","0.030558","767963","839335","833996","7.516348","2.692538","0.030382","797652","846233","888625","6.226006","2.148520","0.028820","722487","875006","965102","4.253313","1.414483","0.031202","17033","22861","26786","16200","19839","21959","16046","19094","20795","16247","18574","19800","15804","17418","18223","DualSpot on"
"MA200-0420","45082","74","1","1.10","1.6","2023-07-24T20:05:00","120","2023/07/24","20:05:00","-15.795540511608124","35.002738166134804","0.3","13","300","64","98","-666","-26858","-95","3","150","149.76","114.02","35.74","22.11","39.9","7.84","90532","22.06","DUALSPOT-UV-BLUE-GREEN-RED-IR","626447","646867","907626","14.870823","6.072956","0.026219","749528","844576","835937","10.880520","4.062170","0.026468","750382","830548","831728","9.556143","3.469294","0.026407","787681","844837","892757","7.945406","2.778021","0.025854","712035","869192","962756","5.464941","1.836066","0.026038","15421","21252","25277","14941","18728","20984","14852","18045","19865","15129","17673","19040","14844","16480","17307","DualSpot on"
"MA200-0420","45083","74","1","1.10","1.6","2023-07-24T20:10:00","120","2023/07/24","20:10:00","-15.79561859369278","35.002789666177705","0.1","13","300","64","97","-764","-26891","220","3","150","150.52","114.33","36.19","21.99","40.1","7.79","90532","21.94","DUALSPOT-UV-BLUE-GREEN-RED-IR","609847","640467","911109","17.950012","7.452133","0.023121","735317","840028","839246","13.193133","4.999196","0.023551","737239","826212","834057","11.607521","4.274276","0.023691","770446","835297","888421","9.674272","3.424873","0.022715","705541","868049","965676","6.686369","2.269098","0.022984","15819","22383","27042","14995","19193","21755","14896","18466","20546","15171","17931","19444","14924","16714","17634","DualSpot on"
"MA200-0420","45084","74","1","1.10","1.6","2023-07-24T20:15:00","120","2023/07/24","20:15:00","-15.795631647109985","35.0027109994553","0.1","13","300","64","98","-675","-27037","175","3","150","149.87","114.14","35.74","21.90","40.2","7.76","90540","21.88","DUALSPOT-UV-BLUE-GREEN-RED-IR","590267","629584","907631","20.827644","8.781635","0.021665","717398","829780","836228","15.300509","5.865634","0.022010","722045","818360","832252","13.471471","5.013617","0.022138","756841","828618","886513","11.244481","4.015317","0.021178","697000","863736","964665","7.800525","2.661793","0.020538","14808","21851","26984","13687","17973","20637","13558","17176","19320","13802","16575","18116","13636","15350","16237","DualSpot on"
"MA200-0420","45085","74","1","1.10","1.6","2023-07-24T20:20:00","120","2023/07/24","20:20:00","-15.795651376247406","35.002684499602765","0.1","13","300","64","98","-676","-26863","112","3","150","149.67","114.18","35.49","21.82","40.5","7.78","90552","21.75","DUALSPOT-UV-BLUE-GREEN-RED-IR","571658","619116","905432","23.788006","10.215794","0.020795","705539","826355","840821","17.514130","6.826185","0.022469","706233","809656","830227","15.442318","5.836935","0.023057","747219","826405","890102","12.919931","4.682031","0.023628","691387","863332","968508","9.004528","3.108988","0.025475","15228","23734","30136","14372","20063","23698","14330","19259","22254","14722","18846","21191","14730","17601","19115","DualSpot on"
"MA200-0420","45086","74","1","1.10","1.6","2023-07-24T20:25:00","120","2023/07/24","20:25:00","-15.795641303062439","35.00272799958475","0.3","13","300","64","98","-784","-26847","32","3","150","149.47","113.91","35.55","21.75","40.7","7.81","90552","21.63","DUALSPOT-UV-BLUE-GREEN-RED-IR","555415","611608","909044","27.061710","11.829834","0.018749","684901","813655","837243","20.051126","7.944716","0.020247","693506","805623","834127","17.721354","6.802012","0.020693","730689","817715","887669","14.879129","5.467224","0.020830","680424","857343","966920","10.430103","3.637300","0.021425","16879","26665","34264","16510","23323","27793","16610","22536","26228","17255","22157","25005","17482","20758","22512","DualSpot on"
"MA200-0420","45087","74","1","1.10","1.6","2023-07-24T20:30:00","120","2023/07/24","20:30:00","-15.79564219713211","35.00271683302708","0.1","12","300","64","97","-720","-26847","104","3","150","149.84","114.22","35.62","21.64","40.9","7.79","90560","21.56","DUALSPOT-UV-BLUE-GREEN-RED-IR","535479","599216","905626","30.343396","13.503071","0.017585","669817","807168","840560","22.667788","9.138321","0.019264","679041","799446","836361","20.091502","7.840688","0.019871","718668","813991","891261","16.938038","6.322543","0.020448","668038","849702","963870","11.954952","4.220247","0.021644","16876","27591","36183","16983","24841","30149","17228","24209","28677","18085","24091","27668","18650","22862","25160","DualSpot on"
"MA200-0420","45088","74","1","1.10","1.6","2023-07-24T20:35:00","120","2023/07/24","20:35:00","-15.795677363872528","35.00272083282471","0.2","12","300","64","98","-756","-26832","204","3","150","150.49","114.63","35.85","21.57","41.0","7.73","90556","21.50","DUALSPOT-UV-BLUE-GREEN-RED-IR","519218","589122","904332","33.293492","15.062027","0.016741","652357","796139","838513","25.074352","10.273374","0.018445","659625","785875","830365","22.288360","8.835758","0.019118","704134","806322","890092","18.860364","7.143852","0.019656","658256","844474","963440","13.391323","4.789626","0.021947","15115","25538","34148","15563","23468","28955","15910","23041","27724","16824","22981","26735","17504","22183","24789","DualSpot on"
"MA200-0420","45089","74","1","1.10","1.6","2023-07-24T20:40:00","120","2023/07/24","20:40:00","-15.795609652996063","35.00268299947493","0.1","12","300","64","98","-775","-26712","287","3","150","149.95","114.77","35.18","21.48","41.1","7.69","90560","21.44","DUALSPOT-UV-BLUE-GREEN-RED-IR","508552","584072","909505","35.942408","16.492455","0.016266","636798","785814","836197","27.216934","11.303717","0.018118","649543","782087","833832","24.245108","9.736711","0.018817","690291","798182","887712","20.576290","7.889726","0.019637","652457","843586","967388","14.684467","5.306792","0.021996","13556","23881","32636","13839","21711","27302","14154","21261","26030","14999","21270","25170","15739","20535","23249","DualSpot on"
"MA200-0420","45090","74","1","1.10","1.6","2023-07-24T20:45:00","120","2023/07/24","20:45:00","-15.795627534389496","35.00278116646223","0.1","12","300","64","98","-764","-26836","292","3","150","149.86","114.79","35.07","21.43","41.2","7.68","90564","21.38","DUALSPOT-UV-BLUE-GREEN-RED-IR","495268","575138","908281","38.453516","17.898910","0.015841","623255","776925","835309","29.260304","12.334367","0.018092","636946","774281","833049","26.113672","10.644200","0.019099","683591","797523","893661","22.220156","8.642596","0.020227","644265","839079","967270","15.932781","5.826935","0.022871","12849","23552","32873","13196","21783","28041","13515","21480","26962","14368","21535","26097","15192","20716","23901","DualSpot on"
"MA200-0420","45091","74","1","1.10","1.6","2023-07-24T20:50:00","120","2023/07/24","20:50:00","-15.795647382736206","35.00276866625063","0.3","12","300","64","98","-680","-26880","48","3","150","150.60","114.65","35.95","21.37","41.4","7.70","90560","21.31","DUALSPOT-UV-BLUE-GREEN-RED-IR","482309","566009","906189","40.879428","19.269356","0.014741","614381","773441","839926","31.244882","13.338118","0.016541","624394","766202","831672","27.936452","11.527353","0.017231","671139","789834","891597","23.830070","9.379107","0.018078","635150","833227","965490","17.172638","6.343087","0.019910","12427","22390","31273","12832","20698","26557","13199","20395","25450","14087","20553","24750","15106","20056","22955","DualSpot on"
"MA200-0420","45092","74","1","1.10","1.6","2023-07-24T20:55:00","120","2023/07/24","20:55:00","-15.795645356178284","35.002693832851946","0.2","12","300","64","98","-854","-27174","-57","3","150","150.39","115.41","34.98","21.35","41.6","7.75","90560","21.31","DUALSPOT-UV-BLUE-GREEN-RED-IR","470718","558026","905679","43.256224","20.634400","0.014592","602719","766006","840249","33.200646","14.342252","0.016564","612982","759100","831272","29.734150","12.410740","0.017358","659562","782868","890288","25.425356","10.117763","0.018373","626600","827904","964348","18.411160","6.864900","0.020832","12096","22923","32798","12562","21282","27914","12932","20968","26725","13868","21187","26025","14991","20840","24318","DualSpot on"
"MA200-0420","45093","74","1","1.10","1.6","2023-07-24T21:00:00","120","2023/07/24","21:00:00","-15.795663833618164","35.00274883280508","0.0","12","300","64","98","-812","-26924","80","3","150","150.52","115.05","35.47","21.28","41.6","7.70","90572","21.19","DUALSPOT-UV-BLUE-GREEN-RED-IR","462717","553047","907702","45.197456","21.759060","0.013915","589181","754557","834594","34.805196","15.174818","0.015734","605093","754920","832758","31.211522","13.147608","0.016540","647946","774467","886138","26.739800","10.732456","0.017324","618079","821453","960969","19.434838","7.299439","0.019360","9910","18621","26708","10339","17398","22856","10661","17245","22038","11462","17384","21355","12430","17112","19928","DualSpot on"
"MA200-0420","45094","74","1","1.10","1.6","2023-07-24T21:05:00","120","2023/07/24","21:05:00","-15.79558151960373","35.00279083312489","0.1","12","300","64","98","-836","-27016","340","3","150","150.40","115.16","35.24","21.23","41.3","7.57","90572","21.13","DUALSPOT-UV-BLUE-GREEN-RED-IR","457539","549657","908690","46.450112","22.491790","0.013750","583424","750860","835021","35.856156","15.724917","0.015581","599403","751391","832881","32.185054","13.634398","0.016277","647403","777339","893026","27.609570","11.142432","0.017219","613962","819144","961034","20.118610","7.590202","0.019135","6389","12214","17682","6765","11573","15329","7018","11469","14741","7577","11673","14444","8294","11527","13486","DualSpot on"
"MA200-0420","45095","74","1","1.10","1.6","2023-07-24T21:10:00","120","2023/07/24","21:10:00","-15.795561015605927","35.00280999974348","0.2","12","300","64","98","-758","-26954","154","3","150","150.35","115.17","35.18","21.25","41.3","7.58","90576","21.25","DUALSPOT-UV-BLUE-GREEN-RED-IR","454642","548079","910763","47.315132","23.008182","0.013739","580553","749818","837204","36.600448","16.120949","0.015575","592941","745795","829595","32.875782","13.986216","0.016346","640682","771736","889214","28.225670","11.437142","0.017274","612779","819837","963860","20.606830","7.800171","0.019230","4411","8621","12606","4790","8345","11143","4979","8302","10763","5366","8404","10473","5921","8337","9808","DualSpot on"
"MA200-0420","45096","74","1","1.10","1.6","2023-07-24T21:15:00","120","2023/07/24","21:15:00","-15.795631170272827","35.00273183290847","0.3","12","300","64","98","-732","-27084","268","3","150","149.59","115.05","34.54","21.32","41.2","7.61","90572","21.31","DUALSPOT-UV-BLUE-GREEN-RED-IR","448945","542580","905000","47.947676","23.383422","0.013677","579163","749960","839772","37.154684","16.414610","0.015559","590939","745154","831034","33.392372","14.248619","0.016378","638715","771235","890557","28.686012","11.654818","0.017151","611263","819522","964947","20.968762","7.952259","0.018679","3229","6381","9381","3571","6302","8464","3727","6307","8227","4014","6322","7902","4394","6151","7224","DualSpot on"
"MA200-0420","45097","74","1","1.10","1.6","2023-07-24T21:20:00","120","2023/07/24","21:20:00","-15.795589447021484","35.00279683317058","0.1","11","300","64","98","-744","-26719","148","3","150","149.95","114.77","35.18","21.38","41.2","7.67","90572","21.38","DUALSPOT-UV-BLUE-GREEN-RED-IR","448778","543393","908888","48.413200","23.665944","0.013574","574149","744814","835875","37.559648","16.636766","0.015611","590691","746231","833870","33.767828","14.442865","0.016164","634418","767360","887541","29.020080","11.817894","0.017225","611605","821271","968054","21.234390","8.063455","0.017465","2382","4716","6949","2615","4681","6323","2716","4583","5980","2920","4650","5839","3233","4415","5139","DualSpot on"
"MA200-0420","45098","74","1","1.10","1.6","2023-07-24T21:25:00","120","2023/07/24","21:25:00","-15.795719861984253","35.0027213327121","0.1","11","300","64","97","-660","-26956","-32","3","150","150.03","115.19","34.84","21.48","41.4","7.81","90580","21.50","DUALSPOT-UV-BLUE-GREEN-RED-IR","444210","538858","903911","48.888052","23.951340","0.013487","573803","745829","838891","37.980240","16.859872","0.015154","585904","741541","830257","34.155672","14.640865","0.015996","634162","768438","890241","29.364190","11.981503","0.016738","607128","816521","963578","21.508072","8.178816","0.018065","2421","4812","7108","2706","4747","6377","2795","4718","6162","2997","4711","5893","3318","4626","5428","DualSpot on"
"MA200-0420","45099","74","1","1.10","1.6","2023-07-24T21:30:00","120","2023/07/24","21:30:00","-15.795669972896576","35.00274183298461","0.3","12","300","64","98","-692","-26932","100","3","150","150.08","115.09","35.00","21.59","41.6","7.97","90584","21.63","DUALSPOT-UV-BLUE-GREEN-RED-IR","445436","541074","909648","49.240004","24.172302","0.013739","570598","742677","836759","38.285964","17.029810","0.015635","586932","743879","834101","34.439344","14.790431","0.016337","630964","765526","887946","29.615348","12.104499","0.017153","608455","819267","967633","21.707244","8.262438","0.017537","1796","3708","5552","1969","3599","4906","2046","3548","4678","2189","3526","4450","2417","3338","3903","DualSpot on"
"MA200-0420","45100","74","1","1.10","1.6","2023-07-24T21:35:00","120","2023/07/24","21:35:00","-15.79566866159439","35.00268783280626","0.1","12","300","64","98","-740","-26932","-107","3","150","150.28","114.77","35.51","21.69","41.7","8.10","90584","21.75","DUALSPOT-UV-BLUE-GREEN-RED-IR","441665","537214","905142","49.602784","24.397480","0.013396","571159","744414","840107","38.586460","17.194816","0.015108","582632","739367","830246","34.713648","14.934131","0.015812","631173","766693","890347","29.853988","12.221388","0.016643","604294","814578","962851","21.896480","8.341245","0.016378","1856","3724","5533","1940","3445","4654","1984","3360","4398","2086","3302","4146","2303","3100","3591","DualSpot on"
"MA200-0420","45101","74","1","1.10","1.6","2023-07-24T21:40:00","120","2023/07/24","21:40:00","-15.795640170574188","35.0027436662931","0.1","13","300","64","98","-829","-26816","54","3","150","150.15","114.61","35.53","21.81","41.6","8.18","90584","21.81","DUALSPOT-UV-BLUE-GREEN-RED-IR","442526","539071","910513","49.990844","24.635726","0.013183","568497","742007","838859","38.903312","17.369930","0.015056","583506","741507","833902","35.000228","15.083198","0.015531","628014","763828","888123","30.103756","12.344335","0.016577","605413","816976","966490","22.091774","8.422792","0.016258","1988","3938","5832","2049","3653","4947","2075","3482","4548","2186","3471","4364","2380","3205","3714","DualSpot on"
"MA200-0420","45102","74","1","1.10","1.6","2023-07-24T21:45:00","120","2023/07/24","21:45:00","-15.795644521713257","35.00266699981876","0.1","13","300","64","98","-764","-26808","184","3","150","150.15","114.72","35.43","21.89","41.8","8.31","90592","21.94","DUALSPOT-UV-BLUE-GREEN-RED-IR","436784","533550","904830","50.673592","25.044692","0.012830","565848","740587","839975","39.505696","17.695262","0.014571","580754","740020","834644","35.560688","15.373181","0.015280","625650","762884","889216","30.603488","12.589371","0.016327","603115","815724","966661","22.488946","8.597923","0.018199","3495","6780","9990","3892","6807","9173","4056","6796","8882","4370","6939","8735","4836","6905","8186","DualSpot on"
"MA200-0420","45103","74","1","1.10","1.6","2023-07-24T21:50:00","120","2023/07/24","21:50:00","-15.795644402503967","35.002697832882404","0.1","13","300","68","98","-780","-26880","-16","4","150","149.90","116.48","33.42","21.95","42.2","8.53","90592","21.94","DUALSPOT-UV-BLUE-GREEN-RED-IR","806928","713569","908427","0.000000","0.000000","0.000000","904507","905652","839751","0.000000","0.000000","0.000000","884245","881135","834149","0.000000","0.000000","0.000000","897840","880937","889042","0.000000","0.000000","0.000000","786309","900824","966783","0.000000","0.000000","0.000000","","","","","","","","","","","","","","","","Tape advance-DualSpot on"
"MA200-0420","45104","74","1","1.10","1.6","2023-07-24T21:55:00","120","2023/07/24","21:55:00","-15.795648634433746","35.002619832986966","0.2","13","300","68","98","-736","-26956","180","4","150","150.00","116.39","33.61","21.98","42.5","8.66","90588","22.00","DUALSPOT-UV-BLUE-GREEN-RED-IR","799256","711782","908890","0.000000","0.000000","0.000000","901006","905685","841177","0.000000","0.000000","0.000000","880054","879737","833960","0.000000","0.000000","0.000000","894901","880136","889127","0.000000","0.000000","0.000000","784487","900116","966520","0.000000","0.000000","0.000000","","","","","","","","","","","","","","","","Tape advance-DualSpot on"
"MA200-0420","45105","74","1","1.10","1.6","2023-07-24T22:00:00","120","2023/07/24","22:00:00","-15.795641720294952","35.00274216639809","0.2","13","300","64","98","-744","-26924","232","4","150","150.52","116.60","33.92","21.99","42.8","8.78","90592","22.00","DUALSPOT-UV-BLUE-GREEN-RED-IR","791414","709629","908796","0.975397","0.291511","0.000000","895149","903348","840410","0.558102","0.165319","0.000000","876404","878899","834254","0.449979","0.131106","0.000000","892760","880143","889983","0.337767","0.097926","0.000000","783258","900038","966966","0.202745","0.052136","0.000000","4913","5047","4913","3548","3612","3548","3204","3208","3204","2906","2896","2906","2429","2146","2429","DualSpot on"
"MA200-0420","45106","74","1","1.10","1.6","2023-07-24T22:05:00","120","2023/07/24","22:05:00","-15.795573830604553","35.00280399946496","0.1","13","300","64","98","-688","-26968","376","4","150","149.95","116.90","33.05","22.02","43.2","8.93","90592","22.00","DUALSPOT-UV-BLUE-GREEN-RED-IR","785312","708817","910449","1.930117","0.588527","0.000000","885254","896811","835772","1.114428","0.335889","0.000000","873033","878249","834812","0.902014","0.269395","0.000000","889710","879222","889983","0.679501","0.200908","0.000000","781735","899637","967101","0.407968","0.110105","0.000000","4796","5278","4796","3527","3826","3527","3210","3474","3210","2932","3126","2932","2452","2450","2452","DualSpot on"
"MA200-0420","45107","74","1","1.10","1.6","2023-07-24T22:10:00","120","2023/07/24","22:10:00","-15.795623183250427","35.002769332844764","0.1","12","300","72","98","-758","-27183","58","4","150","149.82","116.55","33.27","22.04","43.5","9.03","90596","22.06","DUALSPOT-UV-BLUE-GREEN-RED-IR","771993","701384","903515","2.876841","0.882328","0.000000","879953","894966","835451","1.676416","0.503593","0.000000","864101","872078","830091","1.361447","0.405961","0.000000","769636","762425","772555","1.028114","0.302401","0.000000","775941","894300","961919","0.617895","0.166838","0.000000","4771","5186","4771","3574","3736","3574","3272","3407","3272","3000","3060","3000","2516","2381","2516","DualSpot on"
"MA200-0420","45108","74","1","1.10","1.6","2023-07-24T22:15:00","120","2023/07/24","22:15:00","-15.795562148094177","35.00280149956234","0.3","12","300","64","98","-792","-26784","384","4","150","149.69","116.78","32.91","22.05","43.6","9.07","90592","22.06","DUALSPOT-UV-BLUE-GREEN-RED-IR","770109","704083","909654","3.801620","1.176052","0.040914","874028","892335","834419","2.229720","0.674176","0.000000","864007","874741","833722","1.814174","0.541478","0.000000","882136","876017","888566","1.373204","0.405122","0.000000","777660","897679","966091","0.827409","0.223694","0.000000","4651","5242","5507","3512","3842","3512","3218","3419","3218","2964","3131","2964","2506","2413","2506","DualSpot on"
"MA200-0420","45109","74","1","1.10","1.6","2023-07-24T22:20:00","120","2023/07/24","22:20:00","-15.795615255832672","35.002737999428064","0.2","12","300","64","98","-796","-26808","508","4","150","150.02","116.86","33.15","22.05","43.7","9.12","90592","22.00","DUALSPOT-UV-BLUE-GREEN-RED-IR","763733","702433","910176","4.689691","1.465700","0.038126","876271","898004","841175","2.780812","0.848937","0.000000","861378","874804","834994","2.266806","0.683135","0.000000","881574","877555","891061","1.717971","0.510720","0.000000","777414","898709","967777","1.035371","0.283456","0.000000","4463","5131","5435","3495","3907","3495","3215","3547","3215","2959","3195","2959","2485","2518","2485","DualSpot on"
"MA200-0420","45110","74","1","1.10","1.6","2023-07-24T22:25:00","120","2023/07/24","22:25:00","-15.795608222484589","35.002818499458954","0.2","12","300","64","97","-641","-26900","-175","4","150","149.90","116.67","33.23","22.05","43.8","9.14","90588","22.00","DUALSPOT-UV-BLUE-GREEN-RED-IR","757597","700979","910923","5.580017","1.755558","0.030969","865858","890809","835917","3.347152","1.024681","0.034180","857454","873660","835074","2.736044","0.825679","0.000000","877703","875929","890374","2.081269","0.618708","0.000000","775326","897711","967298","1.256441","0.344976","0.000000","4482","5123","5418","3598","3921","4063","3339","3561","3339","3124","3260","3124","2646","2586","2646","DualSpot on"
"MA200-0420","45111","74","1","1.10","1.6","2023-07-24T22:30:00","120","2023/07/24","22:30:00","-15.795593023300171","35.00277449958958","0.1","13","300","64","98","-728","-26968","304","4","150","150.41","116.67","33.74","22.03","43.7","9.10","90588","22.00","DUALSPOT-UV-BLUE-GREEN-RED-IR","750094","697989","909555","6.424356","2.035924","0.027739","866803","895065","841363","3.887748","1.197183","0.033413","853126","871950","834626","3.185743","0.966781","0.034107","875004","875367","890733","2.428151","0.724642","0.000000","774039","897606","967726","1.467756","0.405070","0.000000","4250","4880","5172","3435","3790","3947","3200","3471","3590","2983","3149","2983","2530","2487","2530","DualSpot on"
"MA200-0420","45112","74","1","1.10","1.6","2023-07-24T22:35:00","120","2023/07/24","22:35:00","-15.79557317495346","35.002746833022684","0.5","13","300","64","98","-804","-26784","136","4","150","149.32","116.15","33.16","22.03","43.7","9.10","90584","22.00","DUALSPOT-UV-BLUE-GREEN-RED-IR","743476","696536","910764","7.442440","2.370615","0.024425","854846","886946","835587","4.587632","1.419538","0.030589","848200","870425","834701","3.778290","1.151704","0.031241","870200","873385","889987","2.897699","0.868519","0.000000","771047","896035","966896","1.767679","0.490126","0.000000","5148","5927","6292","4466","4970","5196","4235","4629","4802","4055","4352","4055","3607","3582","3607","DualSpot on"
"MA200-0420","45113","74","1","1.10","1.6","2023-07-24T22:40:00","120","2023/07/24","22:40:00","-15.795617401599884","35.002686666091904","0.1","13","300","64","98","-819","-26869","38","4","150","150.07","116.78","33.29","22.03","43.7","9.11","90580","22.00","DUALSPOT-UV-BLUE-GREEN-RED-IR","735659","692723","908158","8.216854","2.635133","0.027493","854426","889553","839439","5.099642","1.586067","0.033307","842938","867580","833132","4.207760","1.288926","0.035264","866009","871152","888630","3.231196","0.971909","0.034437","768704","894657","965985","1.975603","0.551259","0.000000","3894","4667","5031","3250","3708","3915","3053","3422","3585","2865","3115","3223","2487","2565","2487","DualSpot on"
"MA200-0420","45114","74","1","1.10","1.6","2023-07-24T22:45:00","120","2023/07/24","22:45:00","-15.795654356479645","35.00275316601619","0.2","13","300","64","98","-940","-26632","-144","4","150","150.46","116.75","33.71","22.04","43.7","9.12","90576","22.00","DUALSPOT-UV-BLUE-GREEN-RED-IR","732394","692948","910704","8.942961","2.885610","0.024959","845970","883626","835148","5.579114","1.743334","0.029581","841672","868635","835193","4.609155","1.418465","0.031509","865042","872059","890432","3.545389","1.070719","0.031931","768384","895547","967445","2.169923","0.605678","0.000000","3653","4364","4702","3044","3458","3646","2854","3190","3339","2700","2940","3044","2325","2255","2325","DualSpot on"
"MA200-0420","45115","74","1","1.10","1.6","2023-07-24T22:50:00","120","2023/07/24","22:50:00","-15.795656144618988","35.002778166206554","0.4","13","300","64","97","-741","-27050","720","4","150","150.08","116.78","33.30","22.05","43.8","9.14","90568","22.06","DUALSPOT-UV-BLUE-GREEN-RED-IR","727486","691333","910745","9.617926","3.122942","0.026693","842120","882203","835040","6.024593","1.892059","0.033113","833561","862442","830243","4.982650","1.538396","0.030988","863504","872273","891466","3.836855","1.161233","0.029554","762688","890058","962014","2.351471","0.656510","0.000000","3394","4186","4567","2827","3311","3532","2655","2990","3140","2503","2727","2824","2171","2132","2171","DualSpot on"
