"Serial number","Datum ID","Session ID","Data format version","Firmware version","App version","Date / time local","Timezone offset (mins)","Date local (yyyy/MM/dd)","Time local (hh:mm:ss)","GPS lat (ddmm.mmmmm)","GPS long (dddmm.mmmmm)","GPS speed (km/h)","GPS sat count","Timebase (s)","Status","Battery remaining (%)","Accel X","Accel Y","Accel Z","Tape position","Flow setpoint (mL/min)","Flow total (mL/min)","Flow1 (mL/min)","Flow2 (mL/min)","Sample temp (C)","Sample RH (%)","Sample dewpoint (C)","Internal pressure (Pa)","Internal temp (C)","Optical config","UV Sen1","UV Sen2","UV Ref","UV ATN1","UV ATN2","UV K","Blue Sen1","Blue Sen2","Blue Ref","Blue ATN1","Blue ATN2","Blue K","Green Sen1","Green Sen2","Green Ref","Green ATN1","Green ATN2","Green K","Red Sen1","Red Sen2","Red Ref","Red ATN1","Red ATN2","Red K","IR Sen1","IR Sen2","IR Ref","IR ATN1","IR ATN2","IR K","UV BC1","UV BC2","UV BCc","Blue BC1","Blue BC2","Blue BCc","Green BC1","Green BC2","Green BCc","Red BC1","Red BC2","Red BCc","IR BC1","IR BC2","IR BCc","Readable status"
"MA200-0420","22980","52","1","1.10","1.4","2023-05-04T17:50:02","120","2023/05/04","17:50:02","0","0","0.0","1","30","66","24","-23078","1167","-12271","15","150","0.00","0.00","0.00","0.00","0.0","-204.27","90192","25.75","DUALSPOT-UV-BLUE-GREEN-RED-IR","873123","769446","967145","0.000000","0.000000","0.000000","916106","919248","838861","0.000000","0.000000","0.000000","895353","894557","833869","0.000000","0.000000","0.000000","920675","905812","901954","0.000000","0.000000","0.000000","769745","887895","943967","0.000000","0.000000","0.000000","","","","","","","","","","","","","","","","Start up"
"MA200-0420","22981","52","1","1.10","1.4","2023-05-04T17:50:32","120","2023/05/04","17:50:32","0","0","0.0","1","30","66","24","-21380","10880","-7320","15","150","149.89","112.60","37.29","27.10","33.1","9.50","90472","26.06","DUALSPOT-UV-BLUE-GREEN-RED-IR","816217","720426","905930","0.000000","0.000000","0.000000","910383","914294","834648","0.000000","0.000000","0.000000","894748","894544","834147","0.000000","0.000000","0.000000","910434","896138","892740","0.000000","0.000000","0.000000","786411","907795","965147","0.000000","0.000000","0.000000","","","","","","","","","","","","","","","","Start up"
"MA200-0420","22982","52","1","1.10","1.4","2023-05-04T17:51:02","120","2023/05/04","17:51:02","0","0","0.0","2","30","66","24","-24912","1195","-5841","15","150","149.76","112.24","37.51","27.12","33.8","9.80","90472","26.31","DUALSPOT-UV-BLUE-GREEN-RED-IR","810461","718545","905220","0.000000","0.000000","0.000000","912812","919491","840418","0.000000","0.000000","0.000000","889915","892002","832639","0.000000","0.000000","0.000000","905296","892907","890249","0.000000","0.000000","0.000000","783198","905290","962988","0.000000","0.000000","0.000000","","","","","","","","","","","","","","","","Start up"
"MA200-0420","22983","52","1","1.10","1.4","2023-05-04T17:51:32","120","2023/05/04","17:51:32","0","0","0.0","2","30","66","24","-23495","8145","-5983","15","150","149.56","112.08","37.48","27.14","34.2","10.02","90400","26.56","DUALSPOT-UV-BLUE-GREEN-RED-IR","802336","717813","907776","0.000000","0.000000","0.000000","900322","912783","836572","0.000000","0.000000","0.000000","880501","887397","830281","0.000000","0.000000","0.000000","895545","887181","886211","0.000000","0.000000","0.000000","782716","907359","966353","0.000000","0.000000","0.000000","","","","","","","","","","","","","","","","Start up"
"MA200-0420","22984","52","1","1.10","1.4","2023-05-04T17:52:02","120","2023/05/04","17:52:02","0","0","0.0","3","30","66","24","-22183","10175","-5258","15","150","149.37","111.88","37.49","27.17","34.6","10.19","90340","26.69","DUALSPOT-UV-BLUE-GREEN-RED-IR","797043","715222","905653","0.000000","0.000000","0.000000","901769","916016","840233","0.000000","0.000000","0.000000","881921","890334","833599","0.000000","0.000000","0.000000","899590","892373","891869","0.000000","0.000000","0.000000","780264","905230","964439","0.000000","0.000000","0.000000","","","","","","","","","","","","","","","","Start up"
"MA200-0420","22985","52","1","1.10","1.4","2023-05-04T17:52:32","120","2023/05/04","17:52:32","0","0","0.0","3","30","64","23","-20060","13556","-5236","15","150","150.15","112.44","37.71","27.20","34.8","10.33","90304","26.75","DUALSPOT-UV-BLUE-GREEN-RED-IR","787833","712119","904630","0.000000","0.000000","0.000000","887781","906711","833635","0.000000","0.000000","0.000000","875736","888158","833213","0.000000","0.000000","0.000000","888023","884190","885128","0.000000","0.000000","0.000000","777820","904627","964851","0.000000","0.000000","0.000000","","","","","","","","","","","","","","","",""
"MA200-0420","22986","52","1","1.10","1.4","2023-05-04T17:53:02","120","2023/05/04","17:53:02","0","0","0.0","6","30","64","24","-20583","12745","-5245","15","150","149.56","111.53","38.03","27.23","35.0","10.45","90308","26.88","DUALSPOT-UV-BLUE-GREEN-RED-IR","787609","714698","909513","0.662179","0.204105","0.000000","888502","910058","837783","0.488436","0.147909","0.000000","869954","884523","830717","0.424581","0.128209","0.000000","887687","885664","887336","0.344425","0.101801","0.000000","777767","905772","966621","0.228580","0.069991","0.000000","34872","31524","34872","32465","28833","32465","31605","27990","31605","30982","26857","30982","28630","25710","28630",""
"MA200-0420","22987","52","1","1.10","1.4","2023-05-04T17:53:32","120","2023/05/04","17:53:32","0","0","0.0","7","30","64","24","-23212","8488","-4936","15","150","149.56","111.65","37.91","27.27","35.2","10.57","90312","26.94","DUALSPOT-UV-BLUE-GREEN-RED-IR","786547","714850","910394","0.934100","0.289667","0.000000","888303","910881","838927","0.677067","0.204450","0.000000","870503","885919","832373","0.586348","0.175994","0.000000","889763","888445","890406","0.473948","0.139593","0.000000","774305","902154","962954","0.310150","0.095270","0.000000","14304","13256","14304","12524","11056","12524","12028","10464","12028","11638","10001","11638","10205","9315","10205",""
"MA200-0420","22988","52","1","1.10","1.4","2023-05-04T17:54:02","120","2023/05/04","17:54:02","0","0","0.0","9","30","64","24","-20792","12916","-6428","15","150","149.76","111.97","37.79","27.32","35.4","10.69","90424","27.00","DUALSPOT-UV-BLUE-GREEN-RED-IR","778916","709173","903846","1.193944","0.372507","0.000000","886839","910441","839005","0.855952","0.260455","0.000000","868698","884993","831886","0.737982","0.222480","0.000000","887354","886738","889032","0.597423","0.177662","0.000000","773002","901118","962088","0.392101","0.122197","0.000000","13631","12875","13631","11844","10986","11844","11243","10212","11243","11064","10106","11064","10224","9953","10224",""
"MA200-0420","22989","52","1","1.10","1.4","2023-05-04T17:54:32","120","2023/05/04","17:54:32","0","0","0.0","10","30","64","24","-23820","6956","-6268","15","150","150.02","111.65","38.38","27.36","35.6","10.80","90492","27.13","DUALSPOT-UV-BLUE-GREEN-RED-IR","780649","711315","906984","1.326778","0.415191","0.000000","889195","913340","841849","0.934666","0.283259","0.000000","871068","887802","834644","0.804477","0.243234","0.000000","884359","884028","886428","0.648250","0.193450","0.000000","775510","904197","965520","0.423553","0.131908","0.000000","6988","6533","6988","5226","4405","5226","4944","4490","4944","4567","4127","4567","3935","3535","3935",""
"MA200-0420","22990","52","1","1.10","1.4","2023-05-04T17:55:02","120","2023/05/04","17:55:02","0","0","0.0","8","30","64","23","-21708","11172","-5344","15","150","149.56","112.01","37.55","27.39","35.7","10.87","90428","27.13","DUALSPOT-UV-BLUE-GREEN-RED-IR","780809","712199","908546","1.476820","0.463417","0.000000","883419","908042","837180","1.027214","0.311667","0.000000","866326","883403","830747","0.880199","0.265103","0.000000","885539","885585","888184","0.707506","0.209851","0.000000","776264","905352","966826","0.462789","0.144116","0.000000","7868","7542","7868","6125","5607","6125","5612","4834","5612","5307","4381","5307","4893","4540","4893",""
"MA200-0420","22991","52","1","1.10","1.4","2023-05-04T17:55:32","120","2023/05/04","17:55:32","0","0","0.0","8","30","64","23","-22525","8720","-6812","15","150","149.74","111.94","37.79","27.40","35.8","10.90","90348","27.13","DUALSPOT-UV-BLUE-GREEN-RED-IR","781191","713315","910401","1.625068","0.509880","0.000000","883815","909054","838341","1.115214","0.337451","0.000000","866521","884136","831591","0.953715","0.285118","0.000000","886057","886500","889208","0.764093","0.226386","0.000000","771948","900571","961795","0.497905","0.152226","0.000000","7778","7220","7778","5827","5057","5827","5452","4396","5452","5071","4389","5071","4382","2997","4382",""
"MA200-0420","22992","52","1","1.10","1.4","2023-05-04T17:56:02","120","2023/05/04","17:56:02","0","0","0.0","9","30","64","24","-21045","11520","-7366","15","150","149.63","112.28","37.34","27.41","35.9","10.95","90404","27.13","DUALSPOT-UV-BLUE-GREEN-RED-IR","776740","710085","906791","1.807766","0.566753","0.000000","880186","905959","835738","1.223796","0.368744","0.000000","867997","886164","833696","1.042657","0.311177","0.000000","888634","889501","892402","0.834502","0.246380","0.000000","773501","902684","964150","0.543464","0.163660","0.000000","9557","8945","9557","7168","6212","7168","6576","5793","6576","6291","5371","6291","5668","4277","5668",""
"MA200-0420","22993","52","1","1.10","1.4","2023-05-04T17:56:32","120","2023/05/04","17:56:32","0","0","0.0","9","30","64","24","-23160","7675","-6964","15","150","149.76","112.05","37.71","27.42","36.0","11.01","90396","27.13","DUALSPOT-UV-BLUE-GREEN-RED-IR","773721","709736","907865","2.045199","0.642675","0.000000","877406","905429","836242","1.385134","0.420034","0.000000","866381","886423","834759","1.174175","0.352478","0.000000","880532","882923","886490","0.935990","0.278149","0.000000","772886","903045","965076","0.611658","0.184428","0.000000","12446","11825","12446","10674","10082","10674","9745","9092","9745","9087","8452","9087","8502","7693","8502",""
"MA200-0420","22994","52","1","1.10","1.4","2023-05-04T17:57:02","120","2023/05/04","17:57:02","0","0","0.0","9","30","64","23","-22784","9172","-4712","15","150","150.08","112.14","37.95","27.41","36.1","11.04","90312","27.06","DUALSPOT-UV-BLUE-GREEN-RED-IR","767490","708432","908740","3.186670","1.006158","-0.029595","871141","903191","835945","2.258527","0.690901","0.000000","862350","886028","835966","1.944691","0.589859","0.000000","876837","882347","887303","1.579309","0.475124","0.000000","770283","902279","965278","1.062978","0.320036","0.000000","59788","56262","54635","57738","52917","57738","57046","51936","57046","57556","52078","57556","56223","49922","56223",""
"MA200-0420","22995","52","1","1.10","1.4","2023-05-04T17:57:32","120","2023/05/04","17:57:32","0","0","0.0","9","30","64","23","-21125","11954","-6083","15","150","150.15","112.77","37.38","27.41","36.1","11.07","90348","27.06","DUALSPOT-UV-BLUE-GREEN-RED-IR","766217","708217","909086","3.415487","1.079261","-0.016285","870525","903351","836375","2.402061","0.733429","0.000000","856926","881092","831522","2.064496","0.624740","0.000000","876160","882182","887300","1.674507","0.502217","0.000000","770159","902485","965613","1.123817","0.335314","0.000000","11917","11488","11289","9435","8435","9435","8820","7748","8820","8469","7272","8469","7536","5710","7536",""
"MA200-0420","22996","52","1","1.10","1.4","2023-05-04T17:58:02","120","2023/05/04","17:58:02","0","0","0.0","9","30","64","23","-21272","11612","-6632","15","150","148.77","112.44","36.33","27.41","36.2","11.11","90384","27.06","DUALSPOT-UV-BLUE-GREEN-RED-IR","761571","705869","907206","3.756839","1.187601","-0.007073","866085","900443","834430","2.632344","0.804603","0.000000","853802","879284","830423","2.256679","0.682377","0.000000","873169","880284","885897","1.824496","0.546290","0.000000","768206","900934","964295","1.220048","0.363174","0.000000","17831","17515","17369","15182","14523","15182","14190","13171","14190","13383","12171","13383","11955","10712","11955",""
"MA200-0420","22997","52","1","1.10","1.4","2023-05-04T17:58:32","120","2023/05/04","17:58:32","0","0","0.0","9","30","64","23","-22600","8556","-7496","15","150","149.82","111.97","37.85","27.40","36.3","11.14","90364","27.06","DUALSPOT-UV-BLUE-GREEN-RED-IR","760992","707237","910124","4.191539","1.324338","-0.027026","866352","902315","836756","2.915096","0.887054","0.000000","853430","880251","831833","2.495760","0.751989","0.000000","873231","881377","887418","2.011707","0.599023","0.000000","768562","902002","965682","1.336872","0.395445","0.000000","22803","21216","20483","18721","16146","18721","17727","15267","17727","16775","13975","16775","14575","11908","14575",""
"MA200-0420","22998","52","1","1.10","1.4","2023-05-04T17:59:02","120","2023/05/04","17:59:02","0","0","0.0","9","30","64","23","-22092","8676","-7575","15","150","150.35","111.94","38.41","27.39","36.4","11.16","90332","27.06","DUALSPOT-UV-BLUE-GREEN-RED-IR","759240","706669","910015","4.430938","1.401304","-0.022890","866244","903019","837701","3.052848","0.926822","-0.096570","852436","879867","831715","2.608543","0.783562","0.000000","872172","880813","887043","2.097958","0.622873","0.000000","768468","902197","965986","1.387039","0.408016","0.000000","12561","11770","11404","9122","7675","7045","8364","6824","8364","7730","6230","7730","6260","4572","6260",""
"MA200-0420","22999","52","1","1.10","1.4","2023-05-04T17:59:32","120","2023/05/04","17:59:32","0","0","0.0","10","30","64","23","-21668","9764","-8175","15","150","149.41","111.90","37.50","27.39","36.5","11.19","90324","27.06","DUALSPOT-UV-BLUE-GREEN-RED-IR","757697","705934","909539","4.586731","1.450937","-0.016980","864893","902154","837124","3.142136","0.955289","-0.023935","851520","879347","831393","2.680904","0.804090","0.000000","871985","880970","887327","2.153482","0.638888","0.000000","767849","901677","965539","1.419874","0.416109","0.000000","8177","7773","7586","5915","5627","5501","5368","4544","5368","4978","4284","4978","4099","3014","4099",""
"MA200-0420","23000","52","1","1.10","1.4","2023-05-04T18:00:02","120","2023/05/04","18:00:02","0","0","0.0","9","30","64","23","-19064","13884","-9064","15","150","149.59","111.91","37.67","27.40","36.5","11.23","90316","27.13","DUALSPOT-UV-BLUE-GREEN-RED-IR","757028","706122","910229","4.749195","1.504413","-0.007086","864513","902326","837498","3.230280","0.980365","-0.088558","851219","879513","831708","2.751928","0.824969","0.000000","871579","880906","887360","2.205458","0.652096","0.000000","768259","902372","966362","1.450248","0.424636","0.000000","8526","8337","8249","5838","4934","4540","5269","4601","5269","4659","3517","4659","3791","3161","3791",""
"MA200-0420","23001","52","1","1.10","1.4","2023-05-04T18:00:32","120","2023/05/04","18:00:32","0","0","0.0","8","30","64","23","-19245","14100","-7662","15","150","149.44","112.18","37.26","27.41","36.6","11.26","90280","27.19","DUALSPOT-UV-BLUE-GREEN-RED-IR","754315","704303","908361","4.907907","1.557098","-0.000156","861370","899582","835157","3.314579","1.005841","-0.044826","854551","883371","835517","2.820384","0.846672","0.000000","869579","879152","885771","2.256391","0.669064","0.000000","766404","900403","964300","1.481107","0.432003","0.000000","8310","8305","8303","5570","5068","4850","5066","4836","5066","4555","4569","4555","3842","2762","3842",""
"MA200-0420","23002","52","1","1.10","1.4","2023-05-04T18:01:02","120","2023/05/04","18:01:02","0","0","0.0","9","30","64","23","-19845","13900","-5841","15","150","149.72","112.18","37.54","27.43","36.7","11.31","90308","27.25","DUALSPOT-UV-BLUE-GREEN-RED-IR","754595","705739","910989","5.124086","1.628982","-0.001808","862774","901926","837681","3.427714","1.039744","-0.051452","850146","879520","832132","2.909285","0.870364","0.000000","871124","881262","888096","2.324518","0.685784","0.000000","767480","902006","966175","1.523204","0.443838","0.000000","11318","11248","11214","7476","6695","6355","6579","5240","6579","6092","4468","6092","5242","4404","5242",""
"MA200-0420","23003","52","1","1.10","1.4","2023-05-04T18:01:32","120","2023/05/04","18:01:32","0","0","0.0","10","30","64","23","-19758","13450","-7025","15","150","149.79","112.01","37.78","27.43","36.7","11.32","90316","27.25","DUALSPOT-UV-BLUE-GREEN-RED-IR","750268","703957","910072","5.631410","1.793991","-0.009845","859921","900970","837622","3.776550","1.146037","-0.042689","847217","878188","831581","3.212327","0.962132","-0.053234","868566","880130","887531","2.571309","0.758603","0.000000","765879","901125","965655","1.688314","0.490849","0.000000","26604","25651","25206","23088","20855","19882","22462","20164","19182","22106","19336","22106","20592","17381","20592",""
"MA200-0420","23004","52","1","1.10","1.4","2023-05-04T18:02:02","120","2023/05/04","18:02:02","0","0","0.0","9","30","64","23","-18668","14931","-7304","15","150","149.53","112.19","37.34","27.43","36.7","11.34","90376","27.19","DUALSPOT-UV-BLUE-GREEN-RED-IR","749324","704183","911091","5.821308","1.856239","-0.003897","858329","900267","837388","3.897023","1.182914","-0.033434","846819","878561","832294","3.312182","0.991171","-0.066337","868632","880850","888527","2.648951","0.780579","0.000000","765897","901563","966314","1.739099","0.504493","0.000000","9941","9791","9721","7960","7321","7042","7389","6456","6058","6943","5904","6943","6323","5104","6323",""
"MA200-0420","23005","52","1","1.10","1.4","2023-05-04T18:02:32","120","2023/05/04","18:02:32","0","0","0.0","10","30","64","23","-22412","9395","-7187","15","150","149.44","112.05","37.39","27.42","36.7","11.33","90384","27.13","DUALSPOT-UV-BLUE-GREEN-RED-IR","745925","702731","910332","6.204897","1.983532","-0.001341","856541","899786","837563","4.146963","1.262981","-0.014749","844862","877725","831991","3.524309","1.057839","-0.025758","866500","879625","887701","2.818773","0.833087","0.000000","764722","900852","965831","1.851337","0.539059","0.000000","20108","19995","19942","16536","15874","15583","15718","14802","14410","15206","14088","15206","13993","12913","13993",""
"MA200-0420","23006","52","1","1.10","1.4","2023-05-04T18:03:02","120","2023/05/04","18:03:02","0","0","0.0","9","30","64","22","-21325","11395","-5641","15","150","150.28","112.23","38.05","27.42","36.7","11.33","90388","27.06","DUALSPOT-UV-BLUE-GREEN-RED-IR","741280","699522","906925","6.490358","2.079223","-0.002587","852062","895998","834348","4.303890","1.308906","-0.056836","846222","879862","834291","3.651559","1.095086","-0.066399","861935","875542","883823","2.917431","0.860326","0.000000","762021","898033","962951","1.912427","0.554256","0.000000","14939","14771","14692","10365","8947","8328","9413","8127","7576","8819","7182","8819","7603","5579","7603",""
"MA200-0420","23007","52","1","1.10","1.4","2023-05-04T18:03:32","120","2023/05/04","18:03:32","0","0","0.0","9","30","64","23","-20488","12984","-3596","15","150","149.47","111.86","37.61","27.40","36.7","11.31","90416","27.06","DUALSPOT-UV-BLUE-GREEN-RED-IR","740052","699289","907204","6.661834","2.136343","-0.002065","857805","902777","840965","4.412383","1.340485","-0.054144","846328","880577","835202","3.741139","1.120513","-0.076402","870037","884265","892808","2.986817","0.878569","0.000000","762706","899075","964202","1.955549","0.567806","0.000000","9003","8920","8881","7190","6224","5803","6648","5613","5170","6223","4866","6223","5385","5033","5385",""
"MA200-0420","23008","52","1","1.10","1.4","2023-05-04T18:04:02","120","2023/05/04","18:04:02","0","0","0.0","10","30","64","23","-19456","14059","-4660","15","150","149.86","111.92","37.94","27.38","36.8","11.30","90456","27.06","DUALSPOT-UV-BLUE-GREEN-RED-IR","738774","698910","907270","6.868244","2.205145","-0.003683","857682","903243","841672","4.519123","1.373864","-0.027755","844551","879192","834080","3.828454","1.147019","-0.045816","867903","882462","891127","3.052310","0.897622","-0.082378","761575","898022","963153","1.994451","0.577229","0.000000","10832","10651","10565","7070","6521","6282","6477","5800","5510","5870","5038","4691","4855","3469","4855",""
"MA200-0420","23009","52","1","1.10","1.4","2023-05-04T18:04:32","120","2023/05/04","18:04:32","-15.777901232242584","34.99098438024521","4.0","9","30","64","22","-20233","14208","-4158","15","150","149.69","112.40","37.29","27.37","36.8","11.31","90496","27.06","DUALSPOT-UV-BLUE-GREEN-RED-IR","736364","697149","905272","6.980074","2.241560","-0.004008","855064","900907","839659","4.591155","1.395815","-0.028849","843568","878558","833627","3.888142","1.164394","-0.054556","865866","880661","889463","3.099232","0.911563","-0.056054","760308","896700","961823","2.023191","0.586204","0.000000","5843","5735","5684","4750","4364","4195","4408","3868","3637","4188","3750","3568","3571","3362","3571",""
"MA200-0420","23010","52","1","1.10","1.4","2023-05-04T18:05:02","120","2023/05/04","18:05:02","-15.77689653635025","34.99111193418503","4.3","9","30","64","22","-19640","13540","-4448","15","150","150.01","112.36","37.65","27.36","36.8","11.31","90508","27.06","DUALSPOT-UV-BLUE-GREEN-RED-IR","736801","698015","906744","7.081169","2.275341","-0.000601","855495","901797","840651","4.659355","1.417392","-0.018753","843913","879232","834390","3.944045","1.180904","-0.051715","868006","883111","892034","3.142121","0.923543","-0.098217","761512","898304","963615","2.049522","0.593225","0.000000","5284","5269","5262","4499","4248","4138","4130","3640","3430","3829","3192","2926","3273","2604","3273",""
"MA200-0420","23011","52","1","1.10","1.4","2023-05-04T18:05:32","120","2023/05/04","18:05:32","-15.775611877441406","34.99125683307648","4.6","10","30","64","22","-18833","14954","-5350","15","150","149.53","111.86","37.67","27.34","36.8","11.29","90592","27.06","DUALSPOT-UV-BLUE-GREEN-RED-IR","734641","696446","904979","7.182501","2.310527","0.006103","852511","899056","838294","4.724062","1.438421","-0.011220","842279","877849","833260","3.997886","1.199465","0.008175","865721","881080","890065","3.185446","0.936812","-0.046188","760174","896910","962168","2.076225","0.600322","0.000000","5320","5486","5564","4288","4138","4072","3996","4090","4131","3885","3533","3387","3334","2631","3334",""
"MA200-0420","23012","52","1","1.10","1.4","2023-05-04T18:06:02","120","2023/05/04","18:06:02","-15.774671375751495","34.99203938245773","4.7","9","30","64","23","-17484","16268","-3068","15","150","149.76","112.44","37.32","27.34","36.8","11.29","90700","27.06","DUALSPOT-UV-BLUE-GREEN-RED-IR","735097","697471","906756","7.305689","2.353035","0.007579","853641","900719","840073","4.800034","1.462704","-0.011672","842972","879007","834510","4.060840","1.217168","-0.068669","866975","882692","891805","3.234196","0.950975","-0.066282","761116","898210","963663","2.106556","0.609300","0.000000","6435","6690","6812","5008","4824","4743","4648","3938","3634","4349","3807","3581","3768","3360","3768",""
"MA200-0420","23013","52","1","1.10","1.4","2023-05-04T18:06:32","120","2023/05/04","18:06:32","-15.773831307888031","34.99294948577881","5.2","9","30","64","23","-18612","15280","-4908","15","150","149.50","112.01","37.49","27.32","36.9","11.30","90808","27.06","DUALSPOT-UV-BLUE-GREEN-RED-IR","732973","696561","906273","7.524353","2.426223","-0.000014","852209","900027","839714","4.914868","1.495934","-0.049226","841731","878308","834068","4.150962","1.242416","-0.073053","865907","882023","891308","3.301593","0.969379","-0.106834","760441","897644","963177","2.144743","0.621578","0.000000","11466","11465","11465","7600","6570","6119","6680","5591","5125","6037","4925","4462","4762","4574","4762",""
"MA200-0420","23014","52","1","1.10","1.4","2023-05-04T18:07:02","120","2023/05/04","18:07:02","-15.772608399391174","34.99293887615204","4.4","10","30","64","23","-19120","14336","-7028","15","150","149.44","112.05","37.39","27.31","37.0","11.33","90856","27.06","DUALSPOT-UV-BLUE-GREEN-RED-IR","730983","695541","905541","7.736702","2.496774","-0.000852","851423","899831","839801","5.029500","1.530736","-0.029636","840561","877603","833575","4.242641","1.270025","-0.038145","865142","881645","891124","3.368889","0.988824","-0.069597","760049","897497","963104","2.183992","0.629252","0.000000","11131","11082","11058","7584","6900","6600","6793","6130","5846","6025","5217","4881","4893","2867","4893",""
"MA200-0420","23015","52","1","1.10","1.4","2023-05-04T18:07:32","120","2023/05/04","18:07:32","-15.771485328674316","34.992919743061066","3.3","11","30","64","22","-18658","14862","-5862","15","150","151.58","112.01","39.57","27.30","37.0","11.34","90904","27.06","DUALSPOT-UV-BLUE-GREEN-RED-IR","727373","692837","902475","7.892734","2.550825","-0.003771","847469","896306","836755","5.130440","1.564008","-0.020820","838492","875992","832294","4.327011","1.296615","-0.042139","862088","878970","888575","3.434276","1.008428","-0.079441","758058","895390","960969","2.224540","0.641956","0.000000","8182","8022","7945","6680","6232","6036","6253","5578","5289","5856","4970","4601","5057","4484","5057",""
"MA200-0420","23016","52","1","1.10","1.4","2023-05-04T18:08:02","120","2023/05/04","18:08:02","-15.771330535411835","34.993485271930695","2.9","10","30","64","23","-18584","14123","-6260","15","150","149.50","112.01","37.49","27.29","37.1","11.36","90976","27.06","DUALSPOT-UV-BLUE-GREEN-RED-IR","725856","692972","903621","8.199445","2.651138","-0.004276","846593","896419","837282","5.283493","1.605880","-0.067352","837509","875809","832406","4.449057","1.329171","-0.091635","861653","879180","889007","3.528785","1.032304","-0.150398","762965","901555","967721","2.280119","0.654968","0.000000","16083","15715","15539","10130","8279","7471","9046","7209","6426","8465","6389","5530","6931","4848","6931",""
"MA200-0420","23017","52","1","1.10","1.4","2023-05-04T18:08:32","120","2023/05/04","18:08:32","-15.771248281002045","34.99424368143082","3.9","10","30","64","22","-20440","12820","-7552","15","150","150.54","112.05","38.49","27.27","37.1","11.35","90884","26.94","DUALSPOT-UV-BLUE-GREEN-RED-IR","729156","697034","909637","8.427906","2.729831","0.000464","845303","895770","836921","5.403441","1.642418","-0.035987","835482","874222","831148","4.546887","1.357889","-0.057578","859761","877639","887646","3.601684","1.052520","-0.103930","761375","899969","966116","2.323774","0.665231","0.000000","11976","12008","12023","7936","7036","6644","7248","6194","5744","6527","5269","4749","5442","3724","5442",""
"MA200-0420","23018","52","1","1.10","1.4","2023-05-04T18:09:02","120","2023/05/04","18:09:02","-15.771393835544586","34.99483102560043","3.4","11","30","64","22","-20208","13370","-6595","15","150","149.41","112.27","37.13","27.26","37.1","11.34","90856","26.94","DUALSPOT-UV-BLUE-GREEN-RED-IR","725537","694532","907021","8.637556","2.802160","0.006957","841657","892580","834279","5.518967","1.679087","-0.011120","838257","877685","834632","4.637837","1.384931","-0.036247","855862","874097","884231","3.670020","1.071510","-0.079359","759341","897831","963918","2.365179","0.677184","0.000000","10967","11441","11668","7627","7321","7186","6725","6046","5757","6106","5131","4729","5151","4496","5151",""
"MA200-0420","23019","52","1","1.10","1.4","2023-05-04T18:09:32","120","2023/05/04","18:09:32","-15.772435486316681","34.99532198905945","4.1","12","30","64","22","-20184","13044","-5952","15","150","149.82","112.24","37.58","27.25","37.1","11.35","90760","26.94","DUALSPOT-UV-BLUE-GREEN-RED-IR","725034","694874","908027","8.830112","2.868787","0.005357","841487","893026","834946","5.624688","1.709735","-0.042422","837945","877877","835004","4.724633","1.409548","-0.058957","864281","883152","893516","3.735629","1.088079","-0.142015","760297","899208","965493","2.403501","0.688024","0.000000","10076","10414","10576","6982","6046","5637","6420","5438","5021","5864","4423","3831","4769","4029","4769",""
"MA200-0420","23020","52","1","1.10","1.4","2023-05-04T18:10:02","120","2023/05/04","18:10:02","-15.77305418252945","34.99622571468353","4.7","12","30","64","22","-19812","13480","-6788","15","150","150.28","112.24","38.03","27.23","37.2","11.34","90684","26.94","DUALSPOT-UV-BLUE-GREEN-RED-IR","722858","693473","906693","8.980478","2.921106","0.004256","846588","898971","840743","5.709940","1.737100","-0.014369","837686","878043","835354","4.794270","1.432430","-0.009408","856268","875245","885681","3.788285","1.104495","-0.033598","759862","898914","965248","2.435367","0.696011","0.000000","7868","8079","8181","5630","5333","5203","5150","4994","4928","4706","4330","4175","3965","2933","3965",""
"MA200-0420","23021","52","1","1.10","1.4","2023-05-04T18:10:32","120","2023/05/04","18:10:32","-15.773763954639435","34.997014462947845","4.1","12","30","64","22","-20033","13337","-6741","15","150","149.89","112.36","37.52","27.22","37.2","11.36","90580","26.94","DUALSPOT-UV-BLUE-GREEN-RED-IR","720201","691770","905069","9.160355","2.982559","0.003597","843825","896739","838913","5.812186","1.767838","-0.028813","835093","875863","833534","4.877460","1.456051","-0.055668","860456","879970","890607","3.850739","1.121927","-0.078357","758018","896961","963270","2.473137","0.706598","0.000000","9402","9618","9723","6745","6072","5778","6146","5226","4834","5576","4660","4283","4695","3941","4695",""
"MA200-0420","23022","52","1","1.10","1.4","2023-05-04T18:11:02","120","2023/05/04","18:11:02","-15.774947106838226","34.99735188484192","4.4","12","30","64","22","-19460","13828","-6524","15","150","149.90","112.48","37.42","27.20","37.3","11.35","90528","26.94","DUALSPOT-UV-BLUE-GREEN-RED-IR","719893","692277","906259","9.340811","3.044860","0.005680","844205","897785","840130","5.915767","1.798385","-0.032950","836002","877328","835115","4.962671","1.481598","-0.033046","861260","881219","892017","3.916591","1.139808","-0.089350","758585","897888","964351","2.512577","0.716815","0.000000","9423","9779","9951","6826","6051","5713","6289","5668","5403","5873","4794","4351","4898","3814","4898",""
"MA200-0420","23023","52","1","1.10","1.4","2023-05-04T18:11:32","120","2023/05/04","18:11:32","-15.776190221309662","34.99753254652023","4.4","12","30","64","22","-20216","12779","-7175","15","150","150.02","111.89","38.13","27.20","37.3","11.36","90476","26.94","DUALSPOT-UV-BLUE-GREEN-RED-IR","716716","690620","904967","9.627886","3.140743","-0.003162","841307","895856","838809","6.093717","1.853228","-0.026145","832698","874808","833090","5.109396","1.524007","-0.054045","857319","877938","889011","4.032232","1.172164","-0.083688","756238","895598","962102","2.584659","0.736943","0.000000","15070","14770","14625","11790","10662","10170","10887","9234","8531","10369","8513","7753","8999","7374","8999",""
"MA200-0420","23024","52","1","1.10","1.4","2023-05-04T18:12:02","120","2023/05/04","18:12:02","-15.777124166488647","34.99783509969711","3.4","12","30","64","22","-20925","11637","-7720","15","150","149.56","112.32","37.24","27.17","37.4","11.37","90436","26.94","DUALSPOT-UV-BLUE-GREEN-RED-IR","715052","690856","906536","9.991745","3.262590","0.001474","840260","896613","840280","6.359673","1.934665","-0.019395","831840","875537","834432","5.337499","1.592528","-0.028956","857156","879093","890731","4.217199","1.226544","-0.045047","756542","896885","963895","2.706033","0.773050","0.000000","19027","19218","19311","17553","16212","15625","16860","15276","14603","16521","14651","13883","15095","13544","15095",""
"MA200-0420","23025","52","1","1.10","1.4","2023-05-04T18:12:32","120","2023/05/04","18:12:32","-15.778232753276825","34.99820601940155","3.8","12","30","64","22","-18972","13704","-7904","15","150","150.47","112.84","37.64","27.16","37.4","11.38","90388","26.94","DUALSPOT-UV-BLUE-GREEN-RED-IR","712638","689936","906224","10.328003","3.375463","0.000904","838627","896022","840233","6.578640","2.002383","-0.017784","829532","874042","833405","5.523680","1.648372","-0.030370","855698","878361","890316","4.365264","1.269391","-0.052610","755986","896706","963908","2.800777","0.798840","0.000000","17503","17614","17668","14386","13338","12879","13699","12318","11731","13165","11421","10706","11729","9572","11729",""
"MA200-0420","23026","52","1","1.10","1.4","2023-05-04T18:13:02","120","2023/05/04","18:13:02","-15.77941232919693","34.99836254119873","5.5","12","30","64","22","-20383","12179","-6262","15","150","149.76","112.72","37.04","27.15","37.5","11.40","90328","26.88","DUALSPOT-UV-BLUE-GREEN-RED-IR","708419","686899","902953","10.575449","3.458866","0.003480","834156","892234","837088","6.742534","2.052462","-0.016626","827344","872556","832327","5.661099","1.689165","-0.028209","852284","875510","887683","4.473901","1.300640","-0.047650","753152","893791","960935","2.869737","0.818691","0.000000","12894","13225","13386","10779","10023","9692","10121","9143","8727","9669","8464","7970","8546","7486","8546",""
"MA200-0420","23027","52","1","1.10","1.4","2023-05-04T18:13:32","120","2023/05/04","18:13:32","-15.780388176441193","34.99851906299591","4.8","11","30","64","22","-20692","12280","-6624","15","150","150.08","112.40","37.68","27.14","37.5","11.40","90228","26.88","DUALSPOT-UV-BLUE-GREEN-RED-IR","700319","687307","909325","11.687065","3.843786","0.004003","820529","887067","836612","7.687425","2.362681","-0.003995","814003","866733","830600","6.498965","1.960390","-0.007965","841011","871167","886705","5.191553","1.528431","-0.015693","750490","896221","966392","3.410684","0.988780","-0.028074","58089","60002","60940","62320","61034","60463","61888","59761","58842","64057","60652","59232","67231","63059","61356",""
"MA200-0420","23028","52","1","1.10","1.4","2023-05-04T18:14:02","120","2023/05/04","18:14:02","-15.781480848789215","34.998921036720276","4.8","11","30","64","22","-20736","12840","-6296","15","150","149.82","112.40","37.42","27.14","37.6","11.42","90124","26.88","DUALSPOT-UV-BLUE-GREEN-RED-IR","691930","684551","909499","13.626158","4.512745","0.003773","812477","884438","836928","9.332158","2.901524","-0.002534","807568","865505","831951","8.012585","2.448851","-0.005766","835990","870938","888837","6.513840","1.946120","-0.012084","742268","890293","961806","4.399715","1.295645","-0.024256","101329","105001","106820","108477","106750","105970","111801","108373","106864","118025","111986","109413","122919","114557","111066",""
"MA200-0420","23029","52","1","1.10","1.4","2023-05-04T18:14:32","120","2023/05/04","18:14:32","-15.78209662437439","35.00018533329421","5.1","11","30","64","22","-18725","14200","-7575","15","150","149.96","112.21","37.75","27.13","37.6","11.42","90012","26.88","DUALSPOT-UV-BLUE-GREEN-RED-IR","687152","683184","910261","14.386240","4.787445","0.006974","808071","883233","837536","9.939474","3.106839","0.000730","808479","869648","837441","8.552603","2.626884","-0.003459","832334","869848","889037","6.967803","2.091540","-0.010496","740203","889797","962271","4.721235","1.397481","-0.019161","39785","42745","44222","40121","40323","40415","39954","39158","38805","40587","38652","37821","40026","37688","36705",""
"MA200-0420","23030","52","1","1.10","1.4","2023-05-04T18:15:02","120","2023/05/04","18:15:02","-15.782566130161285","35.001351833110675","4.1","11","30","64","22","-18264","15456","-6900","15","150","149.67","112.44","37.23","27.12","37.6","11.42","89996","27.00","DUALSPOT-UV-BLUE-GREEN-RED-IR","678603","677079","903936","14.907793","4.977260","0.008694","804658","882202","837869","10.371434","3.253120","0.003099","800393","863353","832531","8.939261","2.753508","-0.001794","828729","868221","888409","7.298871","2.197397","-0.007069","738053","888796","961976","4.962164","1.470212","-0.028898","27244","29947","31301","28479","29128","29425","28549","28238","28099","29540","28527","28090","29932","27291","26178",""
"MA200-0420","23031","52","1","1.10","1.4","2023-05-04T18:15:32","120","2023/05/04","18:15:32","-15.783346235752106","35.00147783313878","2.6","11","30","64","22","-17652","16184","-7432","15","150","150.60","112.28","38.32","27.12","37.6","11.42","90064","27.06","DUALSPOT-UV-BLUE-GREEN-RED-IR","682457","681692","910699","15.178272","5.077680","0.007683","803668","881924","837991","10.586239","3.326774","0.000642","799651","863274","832807","9.136212","2.819275","-0.003522","828099","868158","888639","7.467074","2.250483","-0.016162","742330","894466","968296","5.081537","1.506687","-0.034405","14149","15392","16016","14182","14248","14279","14562","14248","14108","15029","13898","13410","14851","13296","12641",""
"MA200-0420","23032","52","1","1.10","1.4","2023-05-04T18:16:02","120","2023/05/04","18:16:02","-15.783845067024231","35.00185466639232","4.8","11","30","64","22","-19204","14292","-6084","15","150","150.15","112.28","37.86","27.12","37.6","11.42","90108","27.06","DUALSPOT-UV-BLUE-GREEN-RED-IR","674310","675635","904188","15.424999","5.169981","0.009157","800924","881218","838493","10.785839","3.395480","0.002724","796836","862268","832788","9.309376","2.877390","-0.000751","826097","867776","889113","7.610566","2.297091","-0.007313","736433","888560","962572","5.181389","1.538851","-0.013139","12906","14317","15029","13178","13451","13577","12803","12742","12714","12821","12349","12145","12422","11866","11631",""
"MA200-0420","23033","52","1","1.10","1.4","2023-05-04T18:16:32","120","2023/05/04","18:16:32","-15.783695220947266","35.00313583295792","4.3","11","30","64","22","-17860","15856","-5876","15","150","149.41","112.32","37.09","27.11","37.6","11.41","90124","27.06","DUALSPOT-UV-BLUE-GREEN-RED-IR","668582","674168","905626","16.597393","5.600082","0.008641","795208","879713","839425","11.754631","3.728908","0.004956","791860","861127","833815","10.180981","3.171700","0.003113","821972","867191","890384","8.355998","2.542902","-0.000243","734016","888445","963853","5.717352","1.710404","-0.008014","61310","68112","71576","63944","66644","67899","64428","65880","66537","66586","66492","66451","66661","64614","63740",""
"MA200-0420","23034","52","1","1.10","1.4","2023-05-04T18:17:02","120","2023/05/04","18:17:02","-15.783839106559753","35.004289999604225","3.8","11","30","64","21","-19066","14716","-5566","15","150","149.47","112.29","37.18","27.11","37.7","11.43","90120","27.00","DUALSPOT-UV-BLUE-GREEN-RED-IR","664772","671698","903371","16.971290","5.738054","0.008693","791299","876820","837355","12.043506","3.824175","-0.000480","789199","859545","832862","10.439565","3.254187","-0.005366","819288","865482","889096","8.574620","2.608183","-0.019141","732024","886840","962464","5.871145","1.755646","-0.032209","19557","21798","22942","19071","18996","18961","19118","18420","18104","19533","17617","16779","19132","17000","16090",""
"MA200-0420","23035","52","1","1.10","1.4","2023-05-04T18:17:32","120","2023/05/04","18:17:32","-15.783849716186523","35.00449949828908","0.2","11","30","64","22","-19268","14548","-5052","15","150","149.63","112.28","37.34","27.09","37.7","11.41","90128","27.00","DUALSPOT-UV-BLUE-GREEN-RED-IR","664610","672298","904796","17.169670","5.811899","0.008895","790950","877270","838186","12.192071","3.873217","-0.000904","789349","860412","834015","10.570523","3.295362","-0.008159","819715","866537","890446","8.683336","2.641141","-0.016782","732689","888107","964039","5.943434","1.776153","-0.044648","10377","11614","12247","9808","9735","9701","9683","9154","8914","9714","8854","8478","8993","7671","7107",""
"MA200-0420","23036","52","1","1.10","1.4","2023-05-04T18:18:02","120","2023/05/04","18:18:02","-15.784194111824036","35.005262999329716","5.3","12","30","64","22","-18764","14348","-6820","15","150","149.69","112.48","37.21","27.09","37.7","11.42","90140","26.94","DUALSPOT-UV-BLUE-GREEN-RED-IR","663610","674832","911109","17.912720","6.092672","0.009897","785616","875318","838399","12.812321","4.090679","0.006302","782913","856926","832448","11.120532","3.484606","0.004957","815409","865037","890480","9.144923","2.794225","0.000390","729919","886917","963897","6.264141","1.881447","-0.001747","38801","44318","47162","40879","43323","44469","40596","42223","42965","41171","41274","41319","39830","39528","39399",""
"MA200-0420","23037","52","1","1.10","1.4","2023-05-04T18:18:32","120","2023/05/04","18:18:32","-15.785225868225098","35.006530499085784","4.3","11","30","64","21","-19387","13179","-9583","15","150","149.81","112.44","37.37","27.07","37.8","11.43","90216","26.88","DUALSPOT-UV-BLUE-GREEN-RED-IR","661137","673237","909718","18.242156","6.217132","0.009425","782950","873311","836967","13.073917","4.183239","0.006649","780411","855057","831073","11.359332","3.566146","0.003394","811204","861363","887054","9.349248","2.860678","-0.003388","727233","884189","961188","6.403457","1.923839","-0.021410","17208","19564","20782","17247","18363","18889","17632","18117","18339","18231","17842","17671","17308","15848","15221",""
"MA200-0420","23038","52","1","1.10","1.4","2023-05-04T18:19:02","120","2023/05/04","18:19:02","-15.786032140254974","35.006620332598686","4.2","11","30","64","22","-19264","14800","-3739","15","150","149.76","112.68","37.08","27.05","37.8","11.42","90240","26.75","DUALSPOT-UV-BLUE-GREEN-RED-IR","660132","672919","909909","18.406398","6.280662","0.011426","781793","872763","836788","13.192381","4.222792","0.001598","780587","855901","832180","11.462655","3.599566","-0.002226","811935","862649","888679","9.434945","2.888389","-0.002717","727519","884920","962156","6.461405","1.940972","-0.026271","8561","10063","10841","7793","7908","7961","7613","7483","7423","7630","7498","7439","7184","6454","6141",""
"MA200-0420","23039","52","1","1.10","1.4","2023-05-04T18:19:32","120","2023/05/04","18:19:32","-15.786592185497284","35.00735649932176","6.2","10","30","64","22","-18679","15387","-5129","15","150","150.08","112.01","38.08","27.01","37.8","11.41","90320","26.75","DUALSPOT-UV-BLUE-GREEN-RED-IR","656965","670518","907362","18.603402","6.358099","0.010314","778727","870161","834731","13.336634","4.274208","0.004993","781383","857470","834063","11.588755","3.642058","-0.001114","807986","859070","885269","9.537444","2.920885","-0.011278","729625","887934","965661","6.531467","1.961129","-0.043092","10330","11945","12783","9547","10010","10228","9346","9265","9227","9181","8562","8289","8738","7395","6819",""
"MA200-0420","23040","52","1","1.10","1.4","2023-05-04T18:20:02","120","2023/05/04","18:20:02","-15.787443161010742","35.00670399935916","5.0","10","30","64","22","-19141","14833","-3958","15","150","149.82","111.89","37.93","27.00","37.9","11.43","90368","26.94","DUALSPOT-UV-BLUE-GREEN-RED-IR","656395","670940","908789","18.840560","6.450649","0.009914","778685","871119","836176","13.508631","4.333765","0.002255","782051","859140","836110","11.740148","3.692049","-0.003364","808145","859992","886576","9.662952","2.959991","-0.013677","730155","889153","967204","6.615921","1.986618","-0.028132","12449","14330","15309","11395","11639","11753","11233","10941","10806","11254","10342","9940","10544","9386","8889",""
"MA200-0420","23041","52","1","1.10","1.4","2023-05-04T18:20:32","120","2023/05/04","18:20:32","-15.788705825805664","35.00527033209801","5.9","10","30","64","22","-18652","14944","-6724","15","150","149.75","112.15","37.60","27.00","37.9","11.44","90328","27.00","DUALSPOT-UV-BLUE-GREEN-RED-IR","653267","669792","908929","19.303830","6.625553","0.008348","775687","869966","836159","13.872057","4.458661","0.002572","775474","853833","831932","12.061057","3.799790","0.000177","806842","860321","887768","9.933647","3.048248","-0.004154","729230","889242","967919","6.804453","2.045804","-0.014697","24262","27323","28923","24022","24626","24911","23756","23791","23807","24215","23550","23256","23483","21990","21348",""
"MA200-0420","23042","52","1","1.10","1.4","2023-05-04T18:21:02","120","2023/05/04","18:21:02","-15.789266347885132","35.00477933278307","8.2","10","30","64","21","-18687","15245","-5712","15","150","149.71","112.36","37.35","27.01","38.0","11.46","90328","27.00","DUALSPOT-UV-BLUE-GREEN-RED-IR","651084","668955","908991","19.608220","6.742954","0.010021","773559","869040","836017","14.102118","4.539967","0.006057","773085","852436","831173","12.263901","3.870165","0.004911","805556","860012","887932","10.102157","3.103203","-0.002756","723865","883476","962035","6.921129","2.081646","-0.017544","15911","18464","19802","15178","16139","16596","14987","15644","15948","15045","14763","14638","14505","13407","12934",""
"MA200-0420","23043","52","1","1.10","1.4","2023-05-04T18:21:32","120","2023/05/04","18:21:32","-15.791608154773712","35.00424666609615","11.2","10","30","64","21","-17352","16336","-5356","15","150","149.89","112.28","37.60","27.01","38.0","11.49","90428","26.94","DUALSPOT-UV-BLUE-GREEN-RED-IR","636617","662854","908504","21.709846","7.565485","0.009471","759287","863080","835933","15.866810","5.183447","0.007343","759946","847074","830893","13.857434","4.436094","0.005890","793056","854739","886938","11.477280","3.576621","0.003403","715581","879595","961221","7.930773","2.419155","-0.000337","109938","128476","138392","116511","126857","131876","117828","124947","128299","122871","126308","127864","125614","125381","125279",""
"MA200-0420","23044","52","1","1.10","1.4","2023-05-04T18:22:02","120","2023/05/04","18:22:02","-15.793983578681946","35.00427533267066","7.4","10","30","64","21","-19540","14916","-7540","15","150","149.87","112.27","37.60","27.01","38.2","11.56","90604","26.81","DUALSPOT-UV-BLUE-GREEN-RED-IR","633767","661695","908440","22.291096","7.791885","0.008994","756263","861745","835775","16.361820","5.359859","0.005326","756857","845580","830418","14.313286","4.594505","0.003674","789992","853186","886210","11.873451","3.708548","-0.000693","718186","884147","966826","8.218914","2.509016","-0.013360","30407","35367","38032","32684","34782","35804","33708","34979","35579","35401","35202","35112","35851","33386","32304",""
"MA200-0420","23045","52","1","1.10","1.4","2023-05-04T18:22:32","120","2023/05/04","18:22:32","-15.795814156532288","35.00426699966192","4.9","10","30","64","21","-19204","13212","-10644","15","150","149.89","112.20","37.68","27.00","38.3","11.57","90504","26.81","DUALSPOT-UV-BLUE-GREEN-RED-IR","628905","659224","907306","22.897698","8.023634","0.007632","756605","865181","840666","16.872644","5.538398","0.003386","757092","848568","834726","14.773380","4.749024","-0.000001","792544","858356","892776","12.267834","3.835046","-0.005703","715771","882956","966401","8.497679","2.594064","-0.017865","31754","36122","38478","33750","35123","35795","34043","34043","34043","35264","33679","32958","34706","31528","30132",""
"MA200-0420","23046","52","1","1.10","1.4","2023-05-04T18:23:02","120","2023/05/04","18:23:02","-15.79621547460556","35.003460166510195","1.7","10","30","64","21","-19354","13954","-6641","15","150","150.02","112.40","37.62","26.99","38.3","11.58","90420","26.75","DUALSPOT-UV-BLUE-GREEN-RED-IR","623027","655650","904575","23.580234","8.286953","0.008083","751059","861776","838957","17.442738","5.742140","0.005263","751087","844502","832131","15.290018","4.928106","0.003272","785950","853570","889043","12.709716","3.981876","-0.000831","711465","879409","963469","8.814590","2.697466","-0.004260","35666","41112","44064","37599","40149","41400","38160","39521","40169","39441","39158","39029","39386","38397","37960",""
"MA200-0420","23047","52","1","1.10","1.4","2023-05-04T18:23:32","120","2023/05/04","18:23:32","-15.79619586467743","35.00313283293508","1.0","11","30","64","21","-20125","13908","-4450","15","150","149.56","112.24","37.32","27.00","38.3","11.59","90388","26.69","DUALSPOT-UV-BLUE-GREEN-RED-IR","621464","655142","905011","23.886460","8.412891","0.011213","749660","861485","839458","17.691968","5.835659","0.009101","751258","845848","834133","15.514741","5.010480","0.008476","786528","855215","891375","12.903243","4.050590","0.006982","711852","880691","965331","8.955103","2.742755","-0.005149","16024","19821","21886","16460","18578","19620","16622","18326","19138","17298","18473","19010","17487","16953","16717",""
