"Serial number","Datum ID","Session ID","Data format version","Firmware version","App version","Date / time local","Timezone offset (mins)","Date local (yyyy/MM/dd)","Time local (hh:mm:ss)","GPS lat (ddmm.mmmmm)","GPS long (dddmm.mmmmm)","GPS speed (km/h)","GPS sat count","Timebase (s)","Status","Battery remaining (%)","Accel X","Accel Y","Accel Z","Tape position","Flow setpoint (mL/min)","Flow total (mL/min)","Flow1 (mL/min)","Flow2 (mL/min)","Sample temp (C)","Sample RH (%)","Sample dewpoint (C)","Internal pressure (Pa)","Internal temp (C)","Optical config","UV Sen1","UV Sen2","UV Ref","UV ATN1","UV ATN2","UV K","Blue Sen1","Blue Sen2","Blue Ref","Blue ATN1","Blue ATN2","Blue K","Green Sen1","Green Sen2","Green Ref","Green ATN1","Green ATN2","Green K","Red Sen1","Red Sen2","Red Ref","Red ATN1","Red ATN2","Red K","IR Sen1","IR Sen2","IR Ref","IR ATN1","IR ATN2","IR K","UV BC1","UV BC2","UV BCc","Blue BC1","Blue BC2","Blue BCc","Green BC1","Green BC2","Green BCc","Red BC1","Red BC2","Red BCc","IR BC1","IR BC2","IR BCc","Readable status"
"MA200-0420","46243","75","1","1.10","1.6","2023-07-28T21:45:00","120","2023/07/28","21:45:00","-15.795649468898773","35.00267366645858","0.2","13","300","66","98","-244","-26963","-628","2","150","149.56","114.14","35.42","21.96","41.7","8.34","90552","21.88","DUALSPOT-UV-BLUE-GREEN-RED-IR","794086","705414","905432","0.000000","0.000000","0.000000","889162","895897","836662","0.000000","0.000000","0.000000","869935","872374","831437","0.000000","0.000000","0.000000","883013","871685","885591","0.000000","0.000000","0.000000","778700","896358","967918","0.000000","0.000000","0.000000","","","","","","","","","","","","","","","","Start up-DualSpot on"
"MA200-0420","46244","75","1","1.10","1.6","2023-07-28T21:50:00","120","2023/07/28","21:50:00","-15.795612156391144","35.002765166340396","0.2","12","300","64","98","-433","-27054","-170","2","150","150.34","115.01","35.33","21.94","41.5","8.25","90552","21.88","DUALSPOT-UV-BLUE-GREEN-RED-IR","781355","701686","905254","0.000000","0.000000","0.000000","879440","892876","836773","0.000000","0.000000","0.000000","861138","869270","831062","0.000000","0.000000","0.000000","876195","869563","885617","0.000000","0.000000","0.000000","774693","894806","967793","0.000000","0.000000","0.000000","","","","","","","","","","","","","","","","DualSpot on"
"MA200-0420","46245","75","1","1.10","1.6","2023-07-28T21:55:00","120","2023/07/28","21:55:00","-15.795666694641113","35.0027596661821","0.0","12","300","64","98","-800","-26668","-244","2","150","149.67","114.30","35.37","21.90","41.4","8.20","90548","21.81","DUALSPOT-UV-BLUE-GREEN-RED-IR","769134","697791","904631","1.515773","0.487760","0.000000","868721","888469","835469","1.072693","0.336652","0.000000","852671","866212","830496","0.927746","0.289094","0.000000","876748","874645","892826","0.750648","0.228968","0.000000","770454","892990","967266","0.495281","0.151593","0.000000","7789","8100","7789","6957","7056","6957","6738","6786","6738","6588","6495","6588","6053","5987","6053","DualSpot on"
"MA200-0420","46246","75","1","1.10","1.6","2023-07-28T22:00:00","120","2023/07/28","22:00:00","-15.795614838600159","35.002773999702185","0.2","12","300","64","98","-372","-26932","-924","2","150","149.52","114.03","35.50","21.84","41.4","8.15","90548","21.81","DUALSPOT-UV-BLUE-GREEN-RED-IR","763843","698787","909677","2.762844","0.901088","0.000000","866402","891403","840565","1.949185","0.617289","0.000000","849825","867800","834026","1.683414","0.529402","0.000000","869520","871104","890893","1.362504","0.420748","0.000000","765809","890019","965291","0.893814","0.277142","0.000000","6423","6839","6423","5698","5860","5698","5502","5620","5502","5383","5420","5383","4882","4940","4882","DualSpot on"
"MA200-0420","46247","75","1","1.10","1.6","2023-07-28T22:05:00","120","2023/07/28","22:05:00","-15.79559987783432","35.002889999654144","0.4","12","300","64","98","-232","-26812","-851","2","150","150.22","114.27","35.95","21.79","41.4","8.08","90540","21.75","DUALSPOT-UV-BLUE-GREEN-RED-IR","750834","693303","906844","4.168798","1.379570","0.026093","854293","884976","837279","2.958697","0.945836","0.000000","840487","863379","832152","2.561038","0.812226","0.000000","860133","865941","887641","2.077119","0.645930","0.000000","760485","886738","963174","1.372072","0.428121","0.000000","7226","7816","8108","6549","6774","6549","6376","6531","6376","6274","6283","6274","5846","5866","5846","DualSpot on"
"MA200-0420","46248","75","1","1.10","1.6","2023-07-28T22:10:00","120","2023/07/28","22:10:00","-15.795599639415741","35.00284683331847","0.4","12","300","64","97","-252","-27128","-820","2","150","150.02","114.41","35.60","21.72","41.6","8.09","90540","21.69","DUALSPOT-UV-BLUE-GREEN-RED-IR","739049","688683","905259","5.574733","1.868089","0.026780","844818","881081","836341","3.966170","1.278448","0.020823","832313","860049","831309","3.441757","1.098186","0.017436","852963","862960","886632","2.802403","0.877144","0.000000","761437","890726","968999","1.852134","0.582622","0.000000","7217","8059","8484","6527","6925","7115","6390","6668","6798","6359","6515","6359","5861","6062","5861","DualSpot on"
"MA200-0420","46249","75","1","1.10","1.6","2023-07-28T22:15:00","120","2023/07/28","22:15:00","-15.795598447322845","35.002840666566044","0.2","13","300","64","98","-284","-26891","-932","2","150","149.84","114.67","35.17","21.67","41.6","8.06","90536","21.63","DUALSPOT-UV-BLUE-GREEN-RED-IR","728321","684886","904848","6.993440","2.380313","0.030292","835503","877108","835398","4.963422","1.618778","0.028889","824655","857083","830893","4.311819","1.390970","0.029123","846634","860683","886339","3.516613","1.111606","0.026558","757729","889289","968964","2.332904","0.740753","0.000000","7266","8555","9220","6447","7174","7526","6299","6912","7204","6248","6689","6892","5856","6281","5856","DualSpot on"
"MA200-0420","46250","75","1","1.10","1.6","2023-07-28T22:20:00","120","2023/07/28","22:20:00","-15.795601308345795","35.00285066640936","0.1","13","300","64","97","-196","-26919","-804","2","150","150.02","114.65","35.36","21.65","41.6","8.03","90532","21.63","DUALSPOT-UV-BLUE-GREEN-RED-IR","722889","685812","910777","8.393188","2.897600","0.027674","833362","880432","841409","5.934943","1.953345","0.024923","816879","853809","830080","5.159811","1.678234","0.024634","846734","864843","892708","4.217021","1.344072","0.023805","753051","886564","967533","2.805290","0.896231","0.000000","7170","8591","9340","6281","7013","7372","6140","6743","7034","6129","6594","6812","5755","6141","5755","DualSpot on"
"MA200-0420","46251","75","1","1.10","1.6","2023-07-28T22:25:00","120","2023/07/28","22:25:00","-15.79566353559494","35.002800999674946","0.1","13","300","64","98","-262","-26941","-808","2","150","149.82","114.61","35.21","21.62","41.7","8.05","90528","21.56","DUALSPOT-UV-BLUE-GREEN-RED-IR","713024","682092","910355","9.723429","3.391748","0.025009","818723","870349","834438","6.876716","2.278220","0.022581","815047","856560","835052","5.984069","1.956177","0.021176","840110","862007","891788","4.899200","1.567375","0.017945","749764","885487","967780","3.266759","1.046117","0.023798","6817","8243","9007","6091","6840","7211","5970","6553","6837","5971","6363","6547","5624","5946","6098","DualSpot on"
"MA200-0420","46252","75","1","1.10","1.6","2023-07-28T22:30:00","120","2023/07/28","22:30:00","-15.795633554458618","35.00272783287801","0.2","13","300","64","98","-236","-27191","-16","2","150","149.50","114.41","35.08","21.59","41.7","8.01","90524","21.56","DUALSPOT-UV-BLUE-GREEN-RED-IR","703925","678036","908792","10.843979","3.822982","0.026062","817136","873219","839681","7.698288","2.571773","0.025828","808148","853272","833929","6.704984","2.208293","0.025835","834147","859241","890723","5.496954","1.770749","0.025315","745742","883067","966456","3.672950","1.183623","0.036224","5752","7219","8018","5323","6202","6644","5231","5966","6327","5241","5815","6088","4959","5475","5720","DualSpot on"
"MA200-0420","46253","75","1","1.10","1.6","2023-07-28T22:35:00","120","2023/07/28","22:35:00","-15.795640170574188","35.00290183303878","0.2","13","300","64","97","-188","-27028","-768","2","150","149.50","114.77","34.73","21.62","41.6","7.99","90524","21.56","DUALSPOT-UV-BLUE-GREEN-RED-IR","698712","677060","910941","11.822859","4.203308","0.025874","806960","866366","835311","8.430973","2.837139","0.027151","799928","848104","830778","7.349904","2.435392","0.026767","831017","859084","892185","6.035105","1.954232","0.026165","744248","883475","968074","4.039465","1.304441","0.028880","5009","6432","7217","4732","5664","6137","4665","5429","5807","4704","5300","5586","4461","4860","5050","DualSpot on"
"MA200-0420","46254","75","1","1.10","1.6","2023-07-28T22:40:00","120","2023/07/28","22:40:00","-15.795628011226654","35.00281549943611","0.1","13","300","64","97","-412","-26791","-779","2","150","149.41","114.59","34.81","21.67","41.4","7.99","90528","21.63","DUALSPOT-UV-BLUE-GREEN-RED-IR","688183","670554","905400","12.731739","4.560211","0.024591","802593","865432","836452","9.111633","3.085136","0.025409","795354","846515","831009","7.952220","2.650297","0.026074","821858","852362","886734","6.532960","2.127103","0.026766","742518","883396","969125","4.381967","1.421846","0.036421","4658","6021","6781","4403","5280","5729","4363","5124","5505","4358","4981","5282","4175","4710","4968","DualSpot on"
"MA200-0420","46255","75","1","1.10","1.6","2023-07-28T22:45:00","120","2023/07/28","22:45:00","-15.795615792274475","35.00276766647585","0.2","13","300","64","98","-215","-26924","-744","2","150","150.23","114.85","35.37","21.73","41.3","7.99","90528","21.75","DUALSPOT-UV-BLUE-GREEN-RED-IR","685202","670582","908046","13.456978","4.844490","0.022205","800779","866488","839157","9.662148","3.284335","0.021677","793563","847254","833168","8.436581","2.822250","0.022123","820345","853015","888632","6.936066","2.264663","0.019928","737174","878687","964850","4.658479","1.512135","0.017574","3708","4720","5289","3553","4174","4494","3501","4035","4304","3521","3901","4086","3363","3565","3663","DualSpot on"
"MA200-0420","46256","75","1","1.10","1.6","2023-07-28T22:50:00","120","2023/07/28","22:50:00","-15.795616924762726","35.00267683318816","0.1","13","300","64","98","-316","-26966","-654","2","150","149.32","114.38","34.94","21.79","41.1","7.97","90524","21.81","DUALSPOT-UV-BLUE-GREEN-RED-IR","681351","669582","909178","14.146914","5.118814","0.022683","797812","866148","840413","10.182483","3.474831","0.022733","790767","846802","834065","8.895763","2.985912","0.022551","819398","854164","891026","7.318610","2.397675","0.023294","736145","879016","966028","4.922531","1.599296","0.021650","3543","4611","5217","3372","4041","4388","3333","3888","4169","3355","3819","4045","3225","3484","3609","DualSpot on"
"MA200-0420","46257","75","1","1.10","1.6","2023-07-28T22:55:00","120","2023/07/28","22:55:00","-15.79561859369278","35.00282733282074","0.2","13","300","64","98","-272","-27024","-636","2","150","150.15","115.20","34.94","21.81","40.9","7.94","90520","21.81","DUALSPOT-UV-BLUE-GREEN-RED-IR","676096","667273","908598","14.858030","5.405092","0.022863","792662","863420","839457","10.715144","3.674072","0.024448","786366","844576","833289","9.363783","3.155178","0.024021","814665","851393","889329","7.708606","2.534077","0.024098","733051","876841","964526","5.189846","1.689903","0.028597","3625","4812","5490","3427","4227","4644","3372","4021","4351","3396","3916","4171","3241","3622","3806","DualSpot on"
"MA200-0420","46258","75","1","1.10","1.6","2023-07-28T23:00:00","120","2023/07/28","23:00:00","-15.795720994472504","35.0027324995026","0.1","13","300","64","98","-350","-27008","-879","2","150","150.29","115.26","35.03","21.81","40.8","7.90","90516","21.81","DUALSPOT-UV-BLUE-GREEN-RED-IR","670762","665024","908465","15.636955","5.724302","0.022690","788442","861857","839769","11.286797","3.894192","0.025668","782717","843270","833546","9.862282","3.342897","0.026943","812729","851592","890863","8.116227","2.681925","0.027636","731170","876175","964742","5.467779","1.788769","0.036993","3969","5352","6151","3676","4658","5176","3590","4449","4889","3547","4234","4573","3368","3943","4222","DualSpot on"
"MA200-0420","46259","75","1","1.10","1.6","2023-07-28T23:05:00","120","2023/07/28","23:05:00","-15.79573529958725","35.002708999672905","0.1","13","300","64","98","-236","-27096","-800","2","150","149.89","115.88","34.01","21.78","40.9","7.89","90508","21.75","DUALSPOT-UV-BLUE-GREEN-RED-IR","665032","662749","908418","16.481499","6.059498","0.021707","783114","859385","839283","11.905453","4.121434","0.023333","778286","841409","833336","10.403257","3.538132","0.024812","807631","848655","889184","8.557167","2.837286","0.026960","728906","875209","964663","5.770845","1.891635","0.032711","4280","5788","6665","3957","4953","5480","3875","4765","5224","3817","4583","4962","3653","4225","4503","DualSpot on"
"MA200-0420","46260","75","1","1.10","1.6","2023-07-28T23:10:00","120","2023/07/28","23:10:00","-15.795588314533234","35.00278116646223","0.0","12","300","64","98","-337","-26950","-850","2","150","149.95","115.56","34.39","21.75","40.7","7.80","90508","21.69","DUALSPOT-UV-BLUE-GREEN-RED-IR","658103","658877","905917","17.263202","6.375923","0.021056","776544","855223","837009","12.478279","4.337847","0.023426","773046","838377","831906","10.904182","3.724235","0.025118","802727","845755","887444","8.969507","2.985095","0.026155","725399","872609","962719","6.053016","1.990265","0.034092","3973","5404","6242","3674","4664","5192","3598","4492","4956","3579","4311","4677","3411","4006","4297","DualSpot on"
"MA200-0420","46261","75","1","1.10","1.6","2023-07-28T23:15:00","120","2023/07/28","23:15:00","-15.795636534690857","35.00274766632356","0.1","12","300","64","98","-264","-27060","-732","2","150","149.69","115.99","33.70","21.72","40.6","7.73","90516","21.69","DUALSPOT-UV-BLUE-GREEN-RED-IR","653717","656978","905814","17.917766","6.651546","0.023266","772740","853529","836921","12.962855","4.526049","0.026315","769467","836704","831577","11.330756","3.887022","0.028520","805583","850653","893738","9.322280","3.115362","0.031042","728242","877343","968787","6.288456","2.074672","0.041173","3314","4804","5684","3096","4140","4700","3053","4010","4510","3051","3878","4293","2835","3499","3826","DualSpot on"
"MA200-0420","46262","75","1","1.10","1.6","2023-07-28T23:20:00","120","2023/07/28","23:20:00","-15.795663177967072","35.00279583316296","0.1","13","300","64","98","-300","-26934","-642","2","150","149.89","115.76","34.13","21.67","40.6","7.69","90516","21.63","DUALSPOT-UV-BLUE-GREEN-RED-IR","651452","657171","908560","18.569314","6.925144","0.021733","771334","854527","839464","13.447168","4.712421","0.023773","768051","837399","833597","11.756015","4.044705","0.023990","799782","846464","890437","9.675493","3.241700","0.025091","723665","873174","964985","6.525476","2.158714","0.035620","3305","4708","5542","3101","4048","4559","3050","3835","4248","3061","3713","4042","2860","3439","3726","DualSpot on"
"MA200-0420","46263","75","1","1.10","1.6","2023-07-28T23:25:00","120","2023/07/28","23:25:00","-15.795658230781555","35.00272999983281","0.1","12","300","64","98","-372","-27212","-516","2","150","149.82","115.64","34.18","21.61","40.7","7.66","90516","21.50","DUALSPOT-UV-BLUE-GREEN-RED-IR","647202","655587","908988","19.270112","7.211509","0.019684","767802","853386","840014","13.968574","4.911309","0.022148","764997","836470","834086","12.214262","4.215181","0.023173","796581","845045","890205","10.050671","3.375906","0.023917","722490","873235","965892","6.782137","2.246059","0.027201","3559","4920","5734","3342","4313","4839","3289","4140","4588","3255","3939","4285","3100","3569","3801","DualSpot on"
"MA200-0420","46264","75","1","1.10","1.6","2023-07-28T23:30:00","120","2023/07/28","23:30:00","-15.795641601085663","35.002805666066706","0.2","12","300","64","98","-270","-26920","-775","2","150","149.95","115.68","34.27","21.55","40.7","7.63","90512","21.50","DUALSPOT-UV-BLUE-GREEN-RED-IR","639687","650393","904147","19.905540","7.475509","0.019684","760313","847490","835702","14.439582","5.091971","0.021660","758909","831924","830828","12.627654","4.369724","0.022640","790247","840164","886121","10.389694","3.497957","0.023570","718859","870094","963198","7.009784","2.326644","0.032205","3226","4524","5305","3018","3907","4392","2966","3743","4154","2940","3572","3893","2749","3284","3550","DualSpot on"
"MA200-0420","46265","75","1","1.10","1.6","2023-07-28T23:35:00","120","2023/07/28","23:35:00","-15.795612752437592","35.00274166627787","0.0","13","300","64","98","-324","-27640","512","2","150","149.63","115.95","33.67","21.49","40.8","7.62","90512","21.44","DUALSPOT-UV-BLUE-GREEN-RED-IR","635584","648129","903064","20.428948","7.699989","0.021224","755993","844715","834279","14.837690","5.248576","0.023882","755688","830219","830248","12.978098","4.505104","0.025890","787012","838285","885069","10.680689","3.603797","0.025839","721042","873823","968004","7.202844","2.396965","0.038322","2651","3915","4680","2545","3447","3942","2509","3338","3778","2517","3153","3477","2325","2917","3212","DualSpot on"
"MA200-0420","46266","75","1","1.10","1.6","2023-07-28T23:40:00","120","2023/07/28","23:40:00","-15.795672357082367","35.00272166635841","0.1","13","300","64","98","-232","-26788","-808","2","150","150.21","115.95","34.26","21.43","40.9","7.58","90508","21.38","DUALSPOT-UV-BLUE-GREEN-RED-IR","636733","651219","909350","20.943370","7.921413","0.020227","758206","849203","840030","15.229413","5.404192","0.022866","752651","828623","829758","13.323648","4.637946","0.023724","790816","843871","891900","10.967932","3.709735","0.024883","719803","873420","968206","7.395031","2.464893","0.030772","2605","3796","4521","2504","3367","3842","2474","3219","3617","2485","3102","3418","2315","2770","2997","DualSpot on"
"MA200-0420","46267","75","1","1.10","1.6","2023-07-28T23:45:00","120","2023/07/28","23:45:00","-15.79552936553955","35.002858999650925","0.5","13","300","64","98","-350","-26991","-691","2","150","149.69","115.84","33.85","21.37","41.1","7.62","90500","21.31","DUALSPOT-UV-BLUE-GREEN-RED-IR","632501","648865","908209","21.478858","8.156425","0.020818","753851","846400","838593","15.634623","5.565309","0.022953","753432","831282","833599","13.682057","4.777157","0.024541","786649","841008","889843","11.265781","3.819594","0.025200","717067","871209","966440","7.594986","2.537586","0.035299","2715","4077","4911","2593","3528","4044","2568","3413","3867","2579","3255","3602","2411","2999","3294","DualSpot on"
"MA200-0420","46268","75","1","1.10","1.6","2023-07-28T23:50:00","120","2023/07/28","23:50:00","-15.795670688152313","35.002720166230574","0.2","13","300","64","98","-272","-26800","-804","2","150","150.15","115.72","34.43","21.31","41.3","7.62","90492","21.25","DUALSPOT-UV-BLUE-GREEN-RED-IR","627903","646096","906449","22.021096","8.391472","0.019287","749755","843840","837435","16.046421","5.729192","0.021457","749853","829177","832637","14.044507","4.917771","0.022690","783197","838914","888640","11.566599","3.931229","0.023564","714920","869719","965526","7.799135","2.611232","0.031045","2752","4009","4784","2638","3528","4023","2600","3390","3816","2608","3253","3585","2464","2988","3251","DualSpot on"
"MA200-0420","46269","75","1","1.10","1.6","2023-07-28T23:55:00","120","2023/07/28","23:55:00","-15.795674324035645","35.002731166314334","0.1","13","300","64","98","-375","-26925","-850","2","150","150.21","115.68","34.53","21.24","41.4","7.59","90492","21.19","DUALSPOT-UV-BLUE-GREEN-RED-IR","623048","643188","904574","22.588284","8.636108","0.018534","744239","839896","834997","16.489647","5.904329","0.020326","745731","826660","831383","14.440576","5.069636","0.021102","778708","835851","886456","11.898149","4.052368","0.021305","712309","867833","964199","8.028911","2.692522","0.027127","2879","4160","4953","2840","3759","4272","2842","3651","4088","2875","3519","3851","2774","3288","3547","DualSpot on"
"MA200-0420","46270","75","1","1.10","1.6","2023-07-29T00:00:00","120","2023/07/29","00:00:00","-15.795662820339203","35.002722332952544","0.0","13","300","64","98","-307","-27119","-292","2","150","149.69","115.56","34.13","21.21","41.5","7.62","90488","21.13","DUALSPOT-UV-BLUE-GREEN-RED-IR","622720","644865","909194","23.147972","8.883766","0.019313","745287","843242","839758","16.919092","6.078684","0.021808","745967","828854","834850","14.822412","5.219702","0.022798","780947","839948","891901","12.219040","4.173705","0.024435","709659","865838","962772","8.253645","2.771665","0.027210","2844","4261","5144","2754","3787","4365","2743","3650","4143","2785","3566","3971","2716","3239","3503","DualSpot on"
"MA200-0420","46271","75","1","1.10","1.6","2023-07-29T00:05:00","120","2023/07/29","00:05:00","-15.795573592185974","35.00276633282192","0.1","13","300","64","98","-304","-26991","-967","2","150","150.08","115.72","34.36","21.19","41.6","7.63","90484","21.13","DUALSPOT-UV-BLUE-GREEN-RED-IR","619634","643650","909698","23.701878","9.127171","0.018491","742556","842296","840283","17.344668","6.249904","0.020571","743432","827922","835127","15.200448","5.366748","0.021305","779028","839557","892509","12.536292","4.291021","0.021665","708472","865644","963310","8.476620","2.850352","0.026078","2811","4160","5005","2726","3693","4238","2712","3552","4011","2750","3425","3776","2691","3198","3455","DualSpot on"
"MA200-0420","46272","75","1","1.10","1.6","2023-07-29T00:10:00","120","2023/07/29","00:10:00","-15.795686841011047","35.00276766647585","0.1","14","300","64","98","-132","-27508","239","2","150","150.15","115.72","34.43","21.16","41.7","7.64","90480","21.06","DUALSPOT-UV-BLUE-GREEN-RED-IR","614962","640886","908156","24.291386","9.390236","0.018484","737887","839253","838790","17.798090","6.433105","0.020185","739416","825455","833953","15.600904","5.524632","0.021464","775056","837021","890928","12.871573","4.416860","0.022123","710345","869201","968100","8.707188","2.934319","0.029006","2992","4487","5430","2904","3944","4533","2873","3807","4319","2906","3667","4064","2783","3406","3723","DualSpot on"
"MA200-0420","46273","75","1","1.10","1.6","2023-07-29T00:15:00","120","2023/07/29","00:15:00","-15.795774281024933","35.00262766657397","0.1","14","300","64","98","-288","-26724","-640","2","150","150.60","115.68","34.92","21.10","41.7","7.57","90472","21.00","DUALSPOT-UV-BLUE-GREEN-RED-IR","610744","638409","906964","24.846676","9.644581","0.018436","733709","836575","837596","18.225660","6.613362","0.021044","735825","823317","833069","15.981968","5.679629","0.021907","771466","834782","889644","13.191414","4.540609","0.022770","708343","867951","967506","8.929680","3.020139","0.033096","2819","4277","5202","2740","3826","4444","2734","3684","4208","2773","3554","3964","2686","3432","3814","DualSpot on"
"MA200-0420","46274","75","1","1.10","1.6","2023-07-29T00:20:00","120","2023/07/29","00:20:00","-15.795644700527191","35.00272533297539","0.3","14","300","64","98","92","-26891","-1748","2","150","149.96","115.88","34.08","21.04","41.8","7.57","90468","20.94","DUALSPOT-UV-BLUE-GREEN-RED-IR","610292","639672","910877","25.353154","9.877399","0.018923","728266","832289","834709","18.625760","6.780977","0.021488","731540","820235","831158","16.337046","5.823475","0.022626","766272","830626","886271","13.489446","4.656893","0.024670","704667","864539","964464","9.133835","3.096347","0.031681","2567","4012","4934","2559","3645","4267","2544","3504","4035","2580","3423","3867","2461","3123","3463","DualSpot on"
"MA200-0420","46275","75","1","1.10","1.6","2023-07-29T00:25:00","120","2023/07/29","00:25:00","-15.795574009418488","35.002756166271865","0.2","13","300","64","98","-431","-27036","-596","2","150","149.81","116.12","33.69","20.99","41.8","7.52","90460","20.88","DUALSPOT-UV-BLUE-GREEN-RED-IR","606860","637615","909861","25.808510","10.089996","0.019376","730336","836399","840105","18.985606","6.933893","0.022262","732417","822799","834834","16.658478","5.956340","0.023891","769005","835010","891876","13.761009","4.764107","0.025841","706892","868298","969346","9.322392","3.168757","0.035289","2303","3706","4607","2297","3364","3979","2298","3274","3817","2346","3192","3641","2268","3002","3380","DualSpot on"
"MA200-0420","46276","75","1","1.10","1.6","2023-07-29T00:30:00","120","2023/07/29","00:30:00","-15.795675039291382","35.00266516627744","0.1","13","300","64","98","-576","-26736","-272","2","150","149.95","115.32","34.63","20.95","41.7","7.45","90460","20.88","DUALSPOT-UV-BLUE-GREEN-RED-IR","603134","635236","908391","26.264798","10.302174","0.018064","726684","833909","838912","19.344926","7.088243","0.020916","730298","821977","835114","16.979720","6.089260","0.021838","767236","834442","892224","14.030454","4.870378","0.023122","701522","862680","963736","9.507549","3.237918","0.028403","2323","3598","4421","2309","3304","3879","2312","3186","3675","2344","3078","3469","2242","2790","3072","DualSpot on"
"MA200-0420","46277","75","1","1.10","1.6","2023-07-29T00:35:00","120","2023/07/29","00:35:00","-15.795628011226654","35.002742332872","0.1","13","300","64","98","-554","-26762","-1479","2","150","149.69","115.64","34.05","20.93","41.8","7.46","90456","20.88","DUALSPOT-UV-BLUE-GREEN-RED-IR","600197","633608","907915","26.696266","10.504787","0.018545","724042","832502","838742","19.690334","7.234845","0.020872","727041","819756","833955","17.287586","6.217519","0.022739","764111","832341","890901","14.290370","4.972066","0.023449","699733","861444","963021","9.688084","3.307922","0.033529","2191","3494","4340","2214","3191","3759","2210","3127","3642","2255","2996","3391","2180","2871","3230","DualSpot on"
"MA200-0420","46278","75","1","1.10","1.6","2023-07-29T00:40:00","120","2023/07/29","00:40:00","-15.795594990253448","35.00279916613363","0.1","13","300","64","98","-304","-26940","-880","2","150","150.21","115.76","34.45","20.90","42.0","7.48","90444","20.81","DUALSPOT-UV-BLUE-GREEN-RED-IR","597737","632387","907860","27.101654","10.695156","0.018018","720764","830314","837693","20.016918","7.373460","0.020122","725171","819057","834237","17.581262","6.338463","0.021328","762340","831665","891054","14.538913","5.069475","0.022505","702941","866313","969098","9.857998","3.371736","0.028874","2056","3245","4019","2091","2982","3502","2106","2914","3369","2154","2836","3201","2050","2587","2866","DualSpot on"
"MA200-0420","46279","75","1","1.10","1.6","2023-07-29T00:45:00","120","2023/07/29","00:45:00","-15.795587480068207","35.002749166218564","0.3","13","300","64","98","-295","-27045","-541","2","150","150.41","115.84","34.57","20.85","42.0","7.46","90444","20.81","DUALSPOT-UV-BLUE-GREEN-RED-IR","593612","629300","905129","27.494076","10.880974","0.017917","716922","827392","835898","20.339292","7.514351","0.020853","721371","816142","832271","17.869996","6.459333","0.021642","758099","828263","888244","14.784219","5.167366","0.023089","700300","863968","967072","10.027473","3.435767","0.028725","1989","3157","3921","2063","3021","3582","2069","2902","3374","2124","2840","3225","2043","2587","2870","DualSpot on"
"MA200-0420","46280","75","1","1.10","1.6","2023-07-29T00:50:00","120","2023/07/29","00:50:00","-15.795618236064911","35.002720666117966","0.0","13","300","64","98","-325","-26987","-945","2","150","149.76","115.80","33.96","20.85","42.1","7.47","90432","20.81","DUALSPOT-UV-BLUE-GREEN-RED-IR","592240","629107","906518","27.876000","11.064342","0.018429","715947","827747","837374","20.650814","7.648795","0.020739","720359","816287","833418","18.149694","6.576237","0.022042","757000","828264","889068","15.022747","5.261640","0.023204","699472","863826","967568","10.193256","3.498981","0.030778","1937","3171","3983","1994","2934","3488","2005","2858","3342","2066","2785","3172","1999","2600","2914","DualSpot on"
"MA200-0420","46281","75","1","1.10","1.6","2023-07-29T00:55:00","120","2023/07/29","00:55:00","-15.795578837394714","35.002756332745776","0.0","14","300","64","98","-350","-27054","-500","2","150","149.76","115.60","34.16","20.83","42.2","7.49","90428","20.75","DUALSPOT-UV-BLUE-GREEN-RED-IR","589199","627115","905231","28.246892","11.240070","0.017722","712187","824821","835530","20.954402","7.779388","0.020058","717447","814336","832337","18.422236","6.688770","0.020857","754980","827222","888782","15.254339","5.353288","0.022506","697997","862871","967073","10.355156","3.559698","0.028095","1884","3021","3773","1946","2834","3358","1957","2735","3178","2009","2691","3060","1956","2483","2759","DualSpot on"
"MA200-0420","46282","75","1","1.10","1.6","2023-07-29T01:00:00","120","2023/07/29","01:00:00","-15.795607149600983","35.002769332844764","0.1","12","300","64","98","-196","-27136","-416","2","150","149.82","115.99","33.83","20.81","42.2","7.49","90420","20.75","DUALSPOT-UV-BLUE-GREEN-RED-IR","586721","625782","904881","28.636246","11.416870","0.016794","710771","824685","836480","21.271566","7.909970","0.018616","715280","813251","832189","18.709614","6.803038","0.019431","752585","825839","888111","15.499792","5.444943","0.019474","696811","862462","967175","10.536499","3.619904","0.016533","1971","3069","3798","2027","2861","3355","2056","2804","3231","2123","2718","3040","2183","2486","2644","DualSpot on"
"MA200-0420","46283","75","1","1.10","1.6","2023-07-29T01:05:00","120","2023/07/29","01:05:00","-15.79563021659851","35.00270999968052","0.2","12","300","64","98","-252","-27132","-744","2","150","150.02","116.07","33.96","20.81","42.1","7.44","90424","20.75","DUALSPOT-UV-BLUE-GREEN-RED-IR","585065","625153","905547","28.988586","11.590015","0.018320","707886","822656","835464","21.559152","8.037575","0.020952","713603","812552","832417","18.968688","6.914508","0.022433","751070","825240","888265","15.720032","5.535271","0.024355","695822","862072","967290","10.692020","3.678996","0.029270","1783","2995","3802","1836","2785","3350","1853","2725","3225","1903","2668","3084","1871","2431","2724","DualSpot on"
"MA200-0420","46284","75","1","1.10","1.6","2023-07-29T01:10:00","120","2023/07/29","01:10:00","-15.795571863651276","35.00259816646576","0.2","12","300","64","98","-280","-27016","-672","2","150","150.08","115.64","34.44","20.83","42.1","7.46","90420","20.75","DUALSPOT-UV-BLUE-GREEN-RED-IR","582423","623452","904530","29.328022","11.753452","0.017292","710997","827571","841517","21.837940","8.160761","0.019951","711596","811450","832170","19.217988","7.019879","0.020693","749031","824079","887788","15.931654","5.618926","0.021075","694536","861286","966952","10.840809","3.734548","0.025729","1724","2787","3498","1787","2651","3167","1789","2539","2971","1836","2436","2764","1797","2253","2492","DualSpot on"
"MA200-0420","46285","75","1","1.10","1.6","2023-07-29T01:15:00","120","2023/07/29","01:15:00","-15.795610308647156","35.002800999674946","0.2","12","300","64","98","-520","-26508","-324","2","150","149.50","115.44","34.06","20.80","42.0","7.41","90412","20.75","DUALSPOT-UV-BLUE-GREEN-RED-IR","580528","622496","904666","29.670726","11.918446","0.017313","709338","826943","841886","22.115416","8.282655","0.019842","709604","810346","831881","19.468726","7.124883","0.020454","747182","823067","887426","16.144892","5.705106","0.022540","693089","860271","966379","10.989853","3.791524","0.028308","1743","2845","3585","1781","2653","3175","1803","2559","2996","1853","2538","2913","1803","2337","2618","DualSpot on"
"MA200-0420","46286","75","1","1.10","1.6","2023-07-29T01:20:00","120","2023/07/29","01:20:00","-15.795655310153961","35.00278466637246","0.1","12","300","64","98","-308","-26912","-824","2","150","150.33","115.69","34.64","20.79","42.0","7.39","90408","20.75","DUALSPOT-UV-BLUE-GREEN-RED-IR","582833","625984","911272","30.001346","12.083412","0.017575","706977","825426","841332","22.384812","8.403238","0.019744","707709","809240","831634","19.710746","7.230807","0.021388","745972","822737","887809","16.349331","5.789327","0.022492","692247","860000","966599","11.130665","3.845184","0.026411","1678","2796","3550","1726","2580","3093","1736","2538","3002","1772","2438","2804","1700","2163","2408","DualSpot on"
"MA200-0420","46287","75","1","1.10","1.6","2023-07-29T01:25:00","120","2023/07/29","01:25:00","-15.795727372169495","35.00266949948855","0.1","12","300","64","98","-384","-27172","-712","2","150","150.41","115.92","34.49","20.78","41.9","7.36","90408","20.75","DUALSPOT-UV-BLUE-GREEN-RED-IR","580604","624658","910871","30.342930","12.253426","0.017472","705090","824433","841412","22.660496","8.527484","0.019950","705797","808235","831473","19.956954","7.336659","0.020693","743537","821073","886773","16.557716","5.873646","0.021622","690893","859061","966096","11.276314","3.901042","0.027167","1730","2895","3683","1763","2670","3217","1763","2547","3003","1803","2452","2809","1755","2262","2530","DualSpot on"
"MA200-0420","46288","75","1","1.10","1.6","2023-07-29T01:30:00","120","2023/07/29","01:30:00","-15.795619189739227","35.0027053328231","0.5","12","300","64","98","-200","-27000","-745","2","150","150.28","115.48","34.80","20.76","42.1","7.40","90408","20.69","DUALSPOT-UV-BLUE-GREEN-RED-IR","578635","623581","910825","30.672978","12.419010","0.017206","702000","822037","839943","22.929346","8.650033","0.019695","703959","807207","831297","20.198190","7.442929","0.020918","741829","820160","886541","16.762547","5.959633","0.022606","690052","858763","966282","11.419182","3.957886","0.028819","1678","2795","3554","1725","2610","3147","1734","2535","3003","1779","2479","2865","1728","2282","2575","DualSpot on"
"MA200-0420","46289","75","1","1.10","1.6","2023-07-29T01:35:00","120","2023/07/29","01:35:00","-15.795690178871155","35.00267283292487","0.2","12","300","64","98","-408","-26668","-524","2","150","149.30","115.31","34.00","20.72","42.1","7.36","90400","20.63","DUALSPOT-UV-BLUE-GREEN-RED-IR","574848","620515","907824","31.002872","12.584866","0.017507","698874","819554","838465","23.196668","8.773599","0.020576","704891","809350","834410","20.441312","7.551440","0.021964","744073","823634","891083","16.970592","6.046906","0.023361","687176","855947","963669","11.562233","4.014091","0.029193","1680","2865","3675","1718","2694","3288","1750","2649","3176","1810","2575","2999","1733","2309","2616","DualSpot on"
"MA200-0420","46290","75","1","1.10","1.6","2023-07-29T01:40:00","120","2023/07/29","01:40:00","-15.795736849308014","35.00271216640249","0.2","12","300","64","98","-220","-27050","-795","2","150","149.56","115.84","33.72","20.69","42.1","7.33","90400","20.63","DUALSPOT-UV-BLUE-GREEN-RED-IR","572930","619513","907954","31.348518","12.759918","0.017705","696875","818455","838398","23.475850","8.901370","0.020427","702825","808088","834050","20.690512","7.661938","0.021930","741899","822248","890395","17.183314","6.135521","0.023351","685882","855104","963270","11.710857","4.071442","0.028421","1752","3048","3938","1786","2808","3432","1786","2720","3269","1842","2636","3077","1792","2375","2686","DualSpot on"
"MA200-0420","46291","75","1","1.10","1.6","2023-07-29T01:45:00","120","2023/07/29","01:45:00","-15.795628547668457","35.00271633267403","0.4","11","300","64","98","-336","-26932","-792","2","150","149.72","115.57","34.15","20.68","42.2","7.38","90396","20.63","DUALSPOT-UV-BLUE-GREEN-RED-IR","570332","617750","907009","31.698308","12.938953","0.017446","693932","816248","837257","23.758492","9.031005","0.019830","701237","807430","834289","20.943612","7.774751","0.021348","740946","822216","891173","17.398982","6.226036","0.022738","684807","854536","963198","11.860680","4.130305","0.028318","1777","3079","3977","1813","2814","3428","1818","2742","3288","1872","2659","3097","1811","2407","2726","DualSpot on"
"MA200-0420","46292","75","1","1.10","1.6","2023-07-29T01:50:00","120","2023/07/29","01:50:00","-15.795666337013245","35.00274883280508","0.2","11","300","64","98","-316","-26924","-600","2","150","150.28","115.72","34.56","20.66","42.2","7.37","90392","20.56","DUALSPOT-UV-BLUE-GREEN-RED-IR","568117","616372","906611","32.047268","13.117161","0.017033","691625","814766","836813","24.039004","9.160221","0.019429","698897","805872","833596","21.196386","7.884720","0.019864","738197","820167","889721","17.612512","6.313930","0.021062","683626","853861","962981","12.012012","4.188367","0.025321","1771","3028","3900","1797","2771","3371","1813","2641","3132","1851","2551","2943","1826","2346","2625","DualSpot on"
"MA200-0420","46293","75","1","1.10","1.6","2023-07-29T01:55:00","120","2023/07/29","01:55:00","-15.795754790306091","35.00272766617127","0.1","10","300","64","98","-328","-27088","-600","2","150","150.08","115.92","34.17","20.62","42.4","7.39","90404","20.56","DUALSPOT-UV-BLUE-GREEN-RED-IR","565507","614620","905621","32.398438","13.297520","0.017203","689330","813255","836351","24.317774","9.288513","0.019570","696696","804463","833065","21.446992","7.995920","0.020805","735820","818548","888778","17.826426","6.404038","0.022497","686097","857700","967879","12.159592","4.245777","0.027090","1779","3100","4019","1782","2783","3401","1794","2701","3241","1851","2645","3091","1778","2347","2652","DualSpot on"
"MA200-0420","46294","75","1","1.10","1.6","2023-07-29T02:00:00","120","2023/07/29","02:00:00","-15.79573380947113","35.00272866641171","0.2","10","300","64","98","-296","-27068","-752","2","150","150.34","115.76","34.58","20.57","42.5","7.38","90408","20.50","DUALSPOT-UV-BLUE-GREEN-RED-IR","566533","616843","910661","32.770832","13.485920","0.016506","690798","816350","840629","24.615556","9.423868","0.018604","693712","802213","831714","21.715552","8.113610","0.019663","733096","816645","887534","18.055738","6.497570","0.020119","684341","856364","966952","12.319626","4.307098","0.024582","1889","3199","4115","1907","2901","3518","1926","2825","3361","1987","2713","3121","1931","2476","2770","DualSpot on"
"MA200-0420","46295","75","1","1.10","1.6","2023-07-29T02:05:00","120","2023/07/29","02:05:00","-15.795538663864136","35.00284849968739","0.2","10","300","64","98","-275","-26870","-1245","2","150","149.90","115.80","34.10","20.49","42.7","7.36","90400","20.44","DUALSPOT-UV-BLUE-GREEN-RED-IR","563699","614847","909343","33.127502","13.665318","0.016501","688123","814439","839786","24.902576","9.554687","0.018901","690957","800156","830524","21.971202","8.226884","0.020328","735613","820507","892532","18.274512","6.587218","0.020788","682277","854582","965502","12.472244","4.366138","0.026112","1809","3090","3990","1837","2844","3471","1832","2758","3312","1895","2637","3056","1841","2418","2730","DualSpot on"
"MA200-0420","46296","75","1","1.10","1.6","2023-07-29T02:10:00","120","2023/07/29","02:10:00","-15.795602977275848","35.002838499844074","0.0","10","300","64","98","-316","-27156","-760","2","150","150.67","115.99","34.67","20.47","42.7","7.37","90392","20.38","DUALSPOT-UV-BLUE-GREEN-RED-IR","560466","612365","907293","33.475860","13.846489","0.016664","684147","810954","837292","25.185450","9.686944","0.018990","692371","802964","834397","22.228116","8.342368","0.020084","732749","818340","891026","18.493310","6.680895","0.021825","679931","852390","963679","12.626423","4.429499","0.028989","1763","3069","3989","1807","2827","3465","1838","2765","3321","1892","2710","3173","1856","2552","2928","DualSpot on"
"MA200-0420","46297","75","1","1.10","1.6","2023-07-29T02:15:00","120","2023/07/29","02:15:00","-15.795597970485687","35.002798499772325","0.1","11","300","64","98","-325","-27008","-800","2","150","149.69","115.95","33.74","20.42","42.8","7.36","90388","20.31","DUALSPOT-UV-BLUE-GREEN-RED-IR","555295","607849","902239","33.844860","14.032581","0.016431","683978","812076","839596","25.485596","9.825601","0.019184","687942","799032","831309","22.499962","8.462587","0.020204","727169","813195","886291","18.728154","6.778296","0.021364","681114","854750","966974","12.792595","4.493939","0.026510","1869","3239","4210","1918","3046","3754","1946","2958","3568","2031","2896","3387","2001","2668","3029","DualSpot on"
"MA200-0420","46298","75","1","1.10","1.6","2023-07-29T02:20:00","120","2023/07/29","02:20:00","-15.795604348182678","35.00280849961564","0.0","11","300","64","98","-292","-27044","-656","2","150","150.64","116.03","34.62","20.29","43.0","7.29","90384","20.19","DUALSPOT-UV-BLUE-GREEN-RED-IR","556571","610622","908496","34.301528","14.261600","0.015691","680567","809714","838643","25.865828","9.999704","0.018007","684553","796568","830050","22.844420","8.615862","0.019307","729664","817426","891988","19.025196","6.902104","0.020179","679183","853429","966292","13.003235","4.580108","0.028015","2311","3885","5006","2429","3728","4547","2464","3676","4409","2568","3588","4168","2536","3477","3989","DualSpot on"
"MA200-0420","46299","75","1","1.10","1.6","2023-07-29T02:25:00","120","2023/07/29","02:25:00","-15.795657694339752","35.00274516642094","0.1","11","300","64","98","-284","-26808","-876","2","150","149.95","115.64","34.31","20.19","43.1","7.26","90372","20.00","DUALSPOT-UV-BLUE-GREEN-RED-IR","550568","605949","904402","34.941304","14.583645","0.015583","678335","809349","840219","26.385398","10.235661","0.017598","683514","797493","832738","23.317470","8.823328","0.018644","723998","813028","888701","19.435128","7.073835","0.020223","674826","849449","962924","13.302776","4.699765","0.026214","3249","5512","7134","3330","5097","6217","3396","5019","6008","3556","5021","5859","3618","4871","5556","DualSpot on"
"MA200-0420","46300","75","1","1.10","1.6","2023-07-29T02:30:00","120","2023/07/29","02:30:00","-15.795742332935333","35.00272333296016","0.0","11","300","64","98","-292","-26812","-967","2","150","150.50","116.00","34.50","20.10","43.3","7.22","90372","20.00","DUALSPOT-UV-BLUE-GREEN-RED-IR","549757","606818","908321","35.516564","14.869530","0.015085","673269","805338","837850","26.851192","10.446712","0.017184","678795","793895","830492","23.740016","9.008415","0.018214","724681","815562","892825","19.802180","7.225070","0.019067","675053","851155","965902","13.573994","4.806038","0.024273","2912","4866","6274","2976","4534","5526","3024","4453","5327","3174","4397","5100","3266","4302","4871","DualSpot on"
"MA200-0420","46301","75","1","1.10","1.6","2023-07-29T02:35:00","120","2023/07/29","02:35:00","-15.795671164989471","35.00274333311245","0.3","11","300","64","97","-204","-27063","-967","2","150","149.90","116.18","33.72","20.01","43.5","7.21","90372","19.88","DUALSPOT-UV-BLUE-GREEN-RED-IR","545334","603585","906108","36.079516","15.159828","0.015871","668985","802208","836385","27.315662","10.660670","0.017961","678698","795660","833930","24.164298","9.198431","0.019336","719947","811954","890248","20.169894","7.379789","0.020574","672342","849077","964571","13.841854","4.912935","0.026563","2846","5057","6659","2963","4704","5818","3031","4678","5690","3175","4603","5427","3220","4428","5093","DualSpot on"
"MA200-0420","46302","75","1","1.10","1.6","2023-07-29T02:40:00","120","2023/07/29","02:40:00","-15.795693635940552","35.00271016638726","0.1","11","300","64","98","-264","-26963","-628","2","150","149.89","116.11","33.77","19.91","43.8","7.21","90372","19.81","DUALSPOT-UV-BLUE-GREEN-RED-IR","544528","604531","910429","36.701884","15.478657","0.015484","667638","802858","839124","27.841012","10.905681","0.017887","674092","792338","832216","24.643602","9.411167","0.018655","715101","808449","887991","20.590590","7.556678","0.020063","669453","847035","963448","14.154572","5.037926","0.025960","3148","5544","7292","3354","5378","6681","3427","5229","6343","3635","5254","6193","3762","5169","5947","DualSpot on"
"MA200-0420","46303","75","1","1.10","1.6","2023-07-29T02:45:00","120","2023/07/29","02:45:00","-15.795661985874176","35.00275749969296","0.0","12","300","64","98","-320","-26919","-620","2","150","150.58","115.80","34.78","19.84","44.0","7.21","90372","19.75","DUALSPOT-UV-BLUE-GREEN-RED-IR","539977","601009","907565","37.228144","15.748516","0.014794","663405","799669","837519","28.289194","11.113358","0.016686","669723","789003","830243","25.055354","9.595352","0.017653","710686","805119","885686","20.953254","7.710258","0.018777","669974","849050","966796","14.423470","5.145549","0.023630","2669","4557","5941","2869","4426","5434","2952","4396","5293","3142","4430","5180","3243","4322","4920","DualSpot on"
"MA200-0420","46304","75","1","1.10","1.6","2023-07-29T02:50:00","120","2023/07/29","02:50:00","-15.795731127262115","35.00272766617127","0.1","12","300","64","98","-275","-26987","-566","2","150","149.76","116.15","33.60","19.80","44.0","7.19","90372","19.75","DUALSPOT-UV-BLUE-GREEN-RED-IR","537259","599167","906910","37.654772","15.979935","0.016019","660712","797921","837134","28.650488","11.287418","0.018265","671405","792379","835095","25.384396","9.748302","0.019548","713797","809961","892133","21.238294","7.834819","0.021055","668423","848147","966578","14.633472","5.231126","0.026563","2157","4044","5436","2305","3839","4837","2351","3778","4668","2462","3718","4453","2525","3557","4131","DualSpot on"
"MA200-0420","46305","75","1","1.10","1.6","2023-07-29T02:55:00","120","2023/07/29","02:55:00","-15.795676529407501","35.002744999714196","0.3","12","300","64","98","-220","-26956","-920","2","150","149.56","116.23","33.33","19.75","44.2","7.22","90368","19.63","DUALSPOT-UV-BLUE-GREEN-RED-IR","524272","590666","905528","39.931452","17.245052","0.015596","650537","791184","835060","29.936898","11.879076","0.016712","663230","787600","833912","26.454018","10.208092","0.016948","706422","805875","890638","22.102900","8.175556","0.016862","664007","845742","965856","15.214764","5.437918","0.017907","11504","22295","30497","8204","13160","16419","7640","11453","13849","7463","10256","11896","6986","8667","9602","DualSpot on"
"MA200-0420","46306","75","1","1.10","1.6","2023-07-29T03:00:00","120","2023/07/29","03:00:00","-15.795652210712433","35.002735999412835","0.1","11","300","64","98","-304","-27000","-944","2","150","149.34","115.75","33.59","19.68","44.4","7.20","90364","19.56","DUALSPOT-UV-BLUE-GREEN-RED-IR","519074","588579","909373","41.375388","18.033252","0.014734","647407","791181","838454","30.842472","12.293442","0.015871","656495","783019","831843","27.242190","10.546547","0.016117","699685","801329","887986","22.769216","8.439271","0.016087","659513","842572","963854","15.692638","5.607032","0.016218","7327","13781","18768","5799","9144","11361","5653","8364","10077","5775","7876","9113","5767","7032","7736","DualSpot on"
"MA200-0420","46307","75","1","1.10","1.6","2023-07-29T03:05:00","120","2023/07/29","03:05:00","-15.795639872550964","35.00277116615325","0.1","10","300","64","98","-337","-26791","-841","2","150","148.77","116.35","32.42","19.56","44.5","7.15","90364","19.50","DUALSPOT-UV-BLUE-GREEN-RED-IR","513862","583655","903838","41.768504","18.262176","0.015789","646313","791356","840269","31.220520","12.483531","0.018345","654973","782687","832892","27.595572","10.715750","0.019572","698659","801607","889537","23.088880","8.578882","0.020550","659191","843419","965771","15.938282","5.704743","0.025079","1984","4147","5827","2408","4346","5637","2521","4333","5482","2756","4320","5245","2949","4210","4913","DualSpot on"
"MA200-0420","46308","75","1","1.10","1.6","2023-07-29T03:10:00","120","2023/07/29","03:10:00","-15.795625567436218","35.00279116630554","0.0","10","300","64","98","-311","-26980","-1065","2","150","150.02","115.65","34.37","19.48","44.7","7.14","90368","19.44","DUALSPOT-UV-BLUE-GREEN-RED-IR","508191","581431","909518","43.492768","19.263020","0.014511","638433","785837","838581","32.242408","12.981459","0.016036","648476","778555","831771","28.452604","11.107442","0.016474","691942","797186","887271","23.798820","8.877637","0.016759","654550","840168","963897","16.445946","5.896652","0.018105","8757","17103","23738","6550","10739","13562","6152","9461","11580","6158","8720","10244","6132","7799","8732","DualSpot on"
"MA200-0420","46309","75","1","1.10","1.6","2023-07-29T03:15:00","120","2023/07/29","03:15:00","-15.795619070529938","35.00276416633278","0.1","10","300","64","98","-375","-27058","-612","2","150","150.41","116.11","34.29","19.40","44.9","7.11","90372","19.31","DUALSPOT-UV-BLUE-GREEN-RED-IR","503478","577901","907893","44.266016","19.703948","0.014153","633909","782608","837520","32.835282","13.271450","0.015961","644933","776469","831568","28.984632","11.354381","0.016713","688766","795625","887301","24.265462","9.077453","0.017232","652179","838935","963805","16.800434","6.033629","0.019333","3911","7551","10472","3785","6268","7953","3804","5978","7378","4032","5845","6929","4264","5579","6316","DualSpot on"
"MA200-0420","46310","75","1","1.10","1.6","2023-07-29T03:20:00","120","2023/07/29","03:20:00","-15.79560935497284","35.002783166011795","0.0","10","300","64","98","-329","-26937","-745","2","150","150.02","116.03","33.99","19.32","45.1","7.11","90376","19.25","DUALSPOT-UV-BLUE-GREEN-RED-IR","499525","574599","905172","44.750288","19.975616","0.013921","633948","784501","841463","33.297154","13.500225","0.016139","644072","777227","834088","29.418290","11.558660","0.017007","689036","797687","891132","24.654542","9.248143","0.017977","652466","840777","967094","17.099784","6.153352","0.021240","2451","4694","6502","2950","4989","6379","3102","4989","6209","3364","5037","6042","3604","4920","5659","DualSpot on"
"MA200-0420","46311","75","1","1.10","1.6","2023-07-29T03:25:00","120","2023/07/29","03:25:00","-15.79562771320343","35.00278616626747","0.1","10","300","64","98","-300","-26972","-776","2","150","150.34","115.88","34.47","19.26","45.2","7.08","90376","19.19","DUALSPOT-UV-BLUE-GREEN-RED-IR","499593","575917","909948","45.260192","20.271934","0.013994","630115","781441","840096","33.742460","13.726579","0.016135","640399","774460","832760","29.830876","11.757920","0.017005","684827","794408","888889","25.021046","9.413175","0.018052","649839","838753","965836","17.374702","6.268029","0.022234","2584","5049","7049","2848","4868","6253","2956","4799","5999","3173","4803","5787","3314","4647","5400","DualSpot on"
"MA200-0420","46312","75","1","1.10","1.6","2023-07-29T03:30:00","120","2023/07/29","03:30:00","-15.795623660087585","35.00275516626425","0.0","10","300","64","98","-266","-27033","-883","2","150","149.89","116.15","33.73","19.18","45.4","7.09","90380","19.13","DUALSPOT-UV-BLUE-GREEN-RED-IR","495990","573001","908018","45.773080","20.566014","0.013958","625663","777555","837654","34.164028","13.939164","0.016225","637067","771961","831590","30.218180","11.945109","0.017322","680714","791124","886587","25.361578","9.566055","0.018416","643269","831526","958524","17.631450","6.372945","0.022078","2593","5120","7182","2690","4671","6037","2768","4606","5808","2941","4546","5519","3087","4344","5056","DualSpot on"
"MA200-0420","46313","75","1","1.10","1.6","2023-07-29T03:35:00","120","2023/07/29","03:35:00","-15.795700013637543","35.0027234996669","0.2","10","300","64","98","-254","-26845","-950","2","150","149.41","116.07","33.34","19.11","45.6","7.10","90376","19.00","DUALSPOT-UV-BLUE-GREEN-RED-IR","492291","569887","905457","46.245556","20.834354","0.013840","626192","779755","841735","34.561592","14.138187","0.016113","636950","773310","834562","30.586806","12.121250","0.017117","683210","795495","892760","25.692098","9.712000","0.018037","644692","834616","963039","17.882320","6.473181","0.021245","2390","4727","6642","2539","4425","5730","2636","4386","5534","2857","4391","5324","3019","4199","4869","DualSpot on"
"MA200-0420","46314","75","1","1.10","1.6","2023-07-29T03:40:00","120","2023/07/29","03:40:00","-15.795636713504791","35.00274566630833","0.1","10","300","64","98","-360","-26903","-1120","2","150","149.76","116.19","33.56","19.02","45.8","7.06","90380","19.00","DUALSPOT-UV-BLUE-GREEN-RED-IR","492630","571241","909809","46.648900","21.071270","0.014006","622090","776029","839266","34.923352","14.323400","0.016235","633504","770458","832881","30.926362","12.287611","0.017330","678917","791801","889861","25.994896","9.848659","0.018280","645972","837521","967334","18.120254","6.569350","0.021252","2038","4145","5881","2308","4090","5330","2426","4115","5228","2614","4084","4981","2860","4002","4652","DualSpot on"
"MA200-0420","46315","75","1","1.10","1.6","2023-07-29T03:45:00","120","2023/07/29","03:45:00","-15.795632004737854","35.002765332814306","0.2","10","300","64","98","-266","-27070","-108","2","150","149.89","116.59","33.30","18.93","46.0","7.05","90376","18.88","DUALSPOT-UV-BLUE-GREEN-RED-IR","489148","568396","907752","47.136120","21.348340","0.013669","617973","772434","837157","35.341784","14.536613","0.016161","629716","767356","831088","31.314704","12.475484","0.017103","674247","787841","886817","26.344540","10.007347","0.018491","642391","834163","964515","18.388904","6.681391","0.022815","2454","4887","6900","2660","4746","6204","2765","4684","5954","3008","4781","5866","3218","4700","5545","DualSpot on"
"MA200-0420","46316","75","1","1.10","1.6","2023-07-29T03:50:00","120","2023/07/29","03:50:00","-15.795646846294403","35.00272399955429","0.3","10","300","64","98","-215","-26936","-1036","2","150","150.41","116.71","33.70","18.87","46.1","7.03","90388","18.81","DUALSPOT-UV-BLUE-GREEN-RED-IR","484901","564779","904885","47.690548","21.669774","0.013603","617730","773861","840630","35.790244","14.765831","0.015849","629908","769260","834815","31.729298","12.677295","0.016802","675928","791417","892333","26.711370","10.174243","0.018035","640370","832883","964195","18.671212","6.797463","0.021418","2790","5601","7943","2848","5042","6582","2949","4971","6317","3153","4968","6084","3379","4811","5631","DualSpot on"
"MA200-0420","46317","75","1","1.10","1.6","2023-07-29T03:55:00","120","2023/07/29","03:55:00","-15.795649349689484","35.002754166256636","0.5","11","300","64","98","-79","-27062","-741","2","150","150.21","116.51","33.70","18.81","46.3","7.03","90380","18.75","DUALSPOT-UV-BLUE-GREEN-RED-IR","484379","565573","909273","48.277900","22.012036","0.013482","613317","770101","838646","36.271264","15.013775","0.015758","625694","765836","832913","32.171142","12.895509","0.016827","671892","788376","890524","27.106336","10.354693","0.017850","641023","835245","968160","18.978176","6.925619","0.021658","2961","5964","8481","3060","5453","7143","3148","5375","6864","3401","5371","6589","3680","5311","6249","DualSpot on"
"MA200-0420","46318","75","1","1.10","1.6","2023-07-29T04:00:00","120","2023/07/29","04:00:00","-15.795623183250427","35.00276649952866","0.0","11","300","64","98","-427","-27308","-800","2","150","149.69","116.07","33.62","18.73","46.4","7.01","90384","18.69","DUALSPOT-UV-BLUE-GREEN-RED-IR","480847","562808","907901","48.860464","22.349376","0.013265","609356","766987","837397","36.767972","15.269089","0.015500","621928","763022","831759","32.635528","13.123596","0.016481","667337","784805","888187","27.524176","10.545654","0.017575","638099","833037","966886","19.303478","7.061025","0.021140","2947","5894","8377","3172","5630","7375","3321","5632","7187","3611","5699","6995","3915","5626","6614","DualSpot on"
"MA200-0420","46319","75","1","1.10","1.6","2023-07-29T04:05:00","120","2023/07/29","04:05:00","-15.795610308647156","35.00276383315213","0.6","11","300","64","98","-356","-26891","-584","2","150","149.89","116.27","33.62","18.65","46.7","7.01","90388","18.63","DUALSPOT-UV-BLUE-GREEN-RED-IR","475101","557585","902996","49.516756","22.740246","0.013373","602883","760864","833203","37.335284","15.569415","0.015742","620037","762669","833615","33.164288","13.392364","0.016879","666043","785220","890712","27.998550","10.773007","0.018454","632951","828008","962644","19.674674","7.226050","0.023351","3315","6829","9814","3617","6623","8773","3775","6638","8576","4093","6785","8469","4459","6857","8250","DualSpot on"
"MA200-0420","46320","75","1","1.10","1.6","2023-07-29T04:10:00","120","2023/07/29","04:10:00","-15.7957102060318","35.00275516626425","0.3","11","300","64","98","-344","-26900","-900","2","150","149.96","116.48","33.48","18.58","47.0","7.04","90376","18.50","DUALSPOT-UV-BLUE-GREEN-RED-IR","473491","558255","909903","50.617128","23.379986","0.012946","601835","762856","839253","38.226892","16.029575","0.015123","615090","759777","833831","33.984224","13.795867","0.016044","660833","782144","890183","28.724842","11.108714","0.017335","629794","826506","963247","20.233132","7.467667","0.021981","5548","11224","16095","5674","10189","13450","5844","10006","12851","6255","10060","12460","6697","10082","12062","DualSpot on"
"MA200-0420","46321","75","1","1.10","1.6","2023-07-29T04:15:00","120","2023/07/29","04:15:00","-15.795620739459991","35.00273316609673","0.0","11","300","68","98","-296","-26924","-936","3","150","149.69","115.52","34.17","18.54","47.2","7.06","90380","18.50","DUALSPOT-UV-BLUE-GREEN-RED-IR","782848","701141","903945","0.000000","0.000000","0.000000","886531","898719","841118","0.000000","0.000000","0.000000","863906","870834","831489","0.000000","0.000000","0.000000","886065","878612","893037","0.000000","0.000000","0.000000","776412","897211","965979","0.000000","0.000000","0.000000","","","","","","","","","","","","","","","","Tape advance-DualSpot on"
"MA200-0420","46322","75","1","1.10","1.6","2023-07-29T04:20:00","120","2023/07/29","04:20:00","-15.795598804950714","35.00273183290847","0.3","11","300","68","98","-268","-26844","-888","3","150","150.02","115.61","34.41","18.48","47.3","7.05","90380","18.44","DUALSPOT-UV-BLUE-GREEN-RED-IR","765281","698347","908773","0.000000","0.000000","0.000000","867724","890976","838955","0.000000","0.000000","0.000000","853061","869362","834300","0.000000","0.000000","0.000000","872761","873143","891073","0.000000","0.000000","0.000000","768049","892687","963581","0.000000","0.000000","0.000000","","","","","","","","","","","","","","","","Tape advance-DualSpot on"
"MA200-0420","46323","75","1","1.10","1.6","2023-07-29T04:25:00","120","2023/07/29","04:25:00","-15.795622706413269","35.00277066626586","0.1","11","300","64","98","-392","-26816","-859","3","150","150.34","116.51","33.83","18.40","47.5","7.04","90392","18.38","DUALSPOT-UV-BLUE-GREEN-RED-IR","741204","689712","907098","3.009065","1.052078","0.079343","848129","883020","837179","2.074879","0.685644","0.000000","836539","862878","832953","1.787918","0.581825","0.000000","857385","866294","888169","1.452606","0.463499","0.000000","763985","893787","967633","0.950759","0.299568","0.000000","15169","18264","19927","13202","15022","13202","12740","14276","12740","12508","13744","12508","11399","12368","11399","DualSpot on"
"MA200-0420","46324","75","1","1.10","1.6","2023-07-29T04:30:00","120","2023/07/29","04:30:00","-15.795702159404755","35.00270316610113","0.3","11","300","64","98","-324","-26936","-851","3","150","150.21","116.18","34.03","18.36","47.8","7.08","90400","18.31","DUALSPOT-UV-BLUE-GREEN-RED-IR","722442","682625","905443","5.403702","1.913580","0.048327","832031","876564","836140","3.872049","1.294869","0.049385","822458","857312","831919","3.367429","1.108283","0.050648","844867","861212","886738","2.764841","0.891313","0.000000","757075","891041","967402","1.839967","0.583912","0.000000","12106","14870","16385","11467","13272","14178","11287","12844","13608","11331","12613","11331","10691","11672","10691","DualSpot on"
"MA200-0420","46325","75","1","1.10","1.6","2023-07-29T04:35:00","120","2023/07/29","04:35:00","-15.79573404788971","35.0027526661288","0.1","11","300","64","98","-344","-27036","-700","3","150","150.02","116.27","33.75","18.34","47.9","7.10","90400","18.31","DUALSPOT-UV-BLUE-GREEN-RED-IR","706548","677295","906135","7.711900","2.774080","0.039891","818501","871788","836425","5.547541","1.876068","0.041056","811141","853717","832543","4.834390","1.604712","0.041166","834934","858039","887053","3.987846","1.293197","0.041036","750878","888801","967518","2.673719","0.849782","0.000000","11660","14977","16841","10682","12767","13833","10474","12213","13077","10553","11948","12617","10017","11006","10017","DualSpot on"
"MA200-0420","46326","75","1","1.10","1.6","2023-07-29T04:40:00","120","2023/07/29","04:40:00","-15.7957124710083","35.00278366659768","0.0","10","300","64","98","-424","-26924","-712","3","150","149.89","116.78","33.10","18.34","48.0","7.13","90400","18.31","DUALSPOT-UV-BLUE-GREEN-RED-IR","692400","672089","906173","9.728987","3.545574","0.036461","806158","867043","836247","7.040403","2.403730","0.038742","800565","849922","832665","6.151864","2.060401","0.040443","826164","855346","887573","5.093492","1.666431","0.043403","745609","887169","968144","3.440679","1.097315","0.049161","10144","13689","15721","9476","11817","13030","9366","11429","12468","9498","11312","12194","9174","10446","11041","DualSpot on"
"MA200-0420","46327","75","1","1.10","1.6","2023-07-29T04:45:00","120","2023/07/29","04:45:00","-15.795716285705566","35.00264916615561","0.1","11","300","64","98","-300","-27044","-840","3","150","150.02","116.71","33.31","18.34","48.0","7.14","90400","18.31","DUALSPOT-UV-BLUE-GREEN-RED-IR","676559","665735","905625","11.990211","4.436123","0.031368","792881","861783","836198","8.698243","3.002250","0.033107","788455","844968","832027","7.609607","2.572626","0.034004","816607","852270","887985","6.310481","2.077149","0.033874","738987","884299","967635","4.282076","1.368900","0.037672","11380","15702","18240","10530","13319","14789","10370","12766","13990","10462","12370","13306","10071","11389","12008","DualSpot on"
"MA200-0420","46328","75","1","1.10","1.6","2023-07-29T04:50:00","120","2023/07/29","04:50:00","-15.795615255832672","35.00275716627948","0.1","12","300","64","98","-280","-27296","-940","3","150","149.89","116.63","33.26","18.33","48.1","7.16","90396","18.25","DUALSPOT-UV-BLUE-GREEN-RED-IR","664596","660718","905025","13.706560","5.127037","0.028941","787660","863333","841856","10.037922","3.497428","0.031126","778754","841023","831742","8.808764","3.004163","0.032286","806837","847699","886396","7.333870","2.432972","0.033677","732905","881224","966638","5.004091","1.609771","0.040011","8643","12201","14327","8515","11037","12385","8536","10772","11929","8803","10733","11691","8648","10116","10813","DualSpot on"
"MA200-0420","46329","75","1","1.10","1.6","2023-07-29T04:55:00","120","2023/07/29","04:55:00","-15.795736312866211","35.002671499503776","0.1","12","300","64","98","-362","-27033","-662","3","150","150.21","117.02","33.19","18.33","48.1","7.16","90392","18.25","DUALSPOT-UV-BLUE-GREEN-RED-IR","647226","652811","903494","16.186405","6.161247","0.026668","766830","849652","833975","11.777925","4.155635","0.028886","765932","835203","830615","10.333152","3.562325","0.029759","795453","842663","885059","8.603386","2.879666","0.030868","725709","877682","965550","5.878256","1.901464","0.035195","12446","18301","21900","11022","14701","16706","10815","13961","15617","10884","13502","14819","10435","12277","13157","DualSpot on"
"MA200-0420","46330","75","1","1.10","1.6","2023-07-29T05:00:00","120","2023/07/29","05:00:00","-15.795636534690857","35.00274516642094","0.3","12","300","64","98","-312","-27068","-552","3","150","149.71","116.48","33.23","18.30","48.2","7.17","90396","18.25","DUALSPOT-UV-BLUE-GREEN-RED-IR","638061","649678","905644","17.860042","6.883754","0.025482","758464","847084","835753","13.088406","4.672307","0.028477","758256","832838","831982","11.512392","4.013300","0.029824","788514","840653","886235","9.614608","3.249367","0.031038","721341","876503","966729","6.603622","2.153983","0.037317","8439","12771","15488","8340","11526","13296","8405","11267","12799","8709","11162","12414","8699","10616","11544","DualSpot on"
"MA200-0420","46331","75","1","1.10","1.6","2023-07-29T05:05:00","120","2023/07/29","05:05:00","-15.795548617839813","35.00278416648507","0.5","12","300","64","98","-316","-26975","-600","3","150","149.82","116.90","32.92","18.33","48.4","7.23","90396","18.31","DUALSPOT-UV-BLUE-GREEN-RED-IR","628283","645077","905308","19.358558","7.552521","0.025289","749276","842775","835574","14.284504","5.158383","0.028673","750212","829460","832180","12.596709","4.441859","0.030486","781138","837664","886233","10.554128","3.607248","0.033061","716599","874664","967076","7.300535","2.404794","0.040151","7529","11932","14749","7584","10946","12846","7700","10808","12501","8063","10907","12384","8327","10643","11781","DualSpot on"
"MA200-0420","46332","75","1","1.10","1.6","2023-07-29T05:10:00","120","2023/07/29","05:10:00","-15.795646131038666","35.00275116646662","0.1","12","300","64","98","-396","-26928","-816","3","150","150.41","116.71","33.70","18.33","48.4","7.25","90412","18.31","DUALSPOT-UV-BLUE-GREEN-RED-IR","614649","638735","905082","21.526200","8.517349","0.021951","737130","837122","835344","15.892453","5.806166","0.024141","740329","825710","833070","14.026099","4.997905","0.024977","772949","835178","887638","11.762364","4.057952","0.026198","711094","872800","967896","8.157030","2.704120","0.029327","10909","16815","20681","10213","14249","16571","10168","13697","15651","10386","13417","15013","10252","12407","13475","DualSpot on"
"MA200-0420","46333","75","1","1.10","1.6","2023-07-29T05:15:00","120","2023/07/29","05:15:00","-15.795602798461914","35.00271683302708","0.1","13","300","64","98","-364","-26896","-672","3","150","150.02","116.98","33.03","18.35","48.4","7.27","90416","18.31","DUALSPOT-UV-BLUE-GREEN-RED-IR","602778","633481","906274","23.608158","9.474731","0.021692","726805","832937","836566","17.442230","6.450841","0.024584","729787","820715","832620","15.408153","5.553275","0.025836","764804","832448","888705","12.941288","4.508875","0.027225","704898","869970","967666","9.006346","3.004237","0.030406","10453","17022","21426","9821","14467","17193","9808","13957","16295","10110","13694","15611","10142","12691","13967","DualSpot on"
"MA200-0420","46334","75","1","1.10","1.6","2023-07-29T05:20:00","120","2023/07/29","05:20:00","-15.795606315135956","35.00269916607067","0.1","13","300","64","98","-316","-27050","-787","3","150","149.84","116.78","33.05","18.35","48.4","7.25","90420","18.31","DUALSPOT-UV-BLUE-GREEN-RED-IR","591024","627786","906588","25.612342","10.411247","0.020426","715923","827642","836569","18.955458","7.088950","0.023163","720046","816279","832652","16.758059","6.101666","0.024254","755322","827900","887782","14.089846","4.953455","0.025684","698941","867202","967443","9.830582","3.301800","0.029837","10079","16643","21138","9605","14312","17124","9596","13775","16168","9867","13495","15462","9859","12577","13951","DualSpot on"
"MA200-0420","46335","75","1","1.10","1.6","2023-07-29T05:25:00","120","2023/07/29","05:25:00","-15.795633375644684","35.002576999831945","0.1","13","300","64","98","-350","-26708","-795","3","150","149.84","116.52","33.32","18.33","48.5","7.28","90428","18.31","DUALSPOT-UV-BLUE-GREEN-RED-IR","572278","617543","905898","28.719914","11.959793","0.019500","700930","820087","836421","21.034518","7.978365","0.021121","706296","809524","832008","18.589228","6.847046","0.021596","742560","822007","886857","15.666416","5.555241","0.021811","690237","862985","966786","11.005772","3.715814","0.023581","15664","27301","35605","13227","19791","23802","13047","18575","21798","13574","18122","20621","14089","17360","19027","DualSpot on"
"MA200-0420","46336","75","1","1.10","1.6","2023-07-29T05:30:00","120","2023/07/29","05:30:00","-15.795683562755585","35.00268399971537","0.2","12","300","64","98","-387","-27175","-791","3","150","149.44","116.51","32.93","18.33","48.7","7.32","90432","18.31","DUALSPOT-UV-BLUE-GREEN-RED-IR","548324","604033","906057","33.021774","14.193523","0.018014","681570","810014","836263","23.816226","9.198355","0.019876","689826","801988","832641","21.029008","7.856982","0.020251","726698","814934","886482","17.789712","6.376541","0.020510","679789","858956","967768","12.634109","4.283069","0.020600","21687","39842","53529","17699","27465","33610","17385","25462","30280","18284","25022","28787","19524","24064","26393","DualSpot on"
"MA200-0420","46337","75","1","1.10","1.6","2023-07-29T05:35:00","120","2023/07/29","05:35:00","-15.795662820339203","35.002682166406885","0.2","12","300","64","98","-364","-26963","-728","3","150","149.50","116.86","32.63","18.35","48.9","7.41","90436","18.25","DUALSPOT-UV-BLUE-GREEN-RED-IR","531972","594419","906073","36.082408","15.812180","0.017018","666826","801771","835726","25.956668","10.163978","0.019374","676688","795251","832359","22.928406","8.670813","0.020157","715550","810406","887437","19.454380","7.046115","0.020994","670733","854384","967130","13.917751","4.754146","0.023209","15382","29132","39858","13578","21935","27313","13493","20703","25088","14291","20584","24158","15344","20164","22665","DualSpot on"
"MA200-0420","46338","75","1","1.10","1.6","2023-07-29T05:40:00","120","2023/07/29","05:40:00","-15.795658230781555","35.00268283276819","0.0","12","300","64","98","-352","-26968","-812","3","150","149.35","116.78","32.57","18.38","48.9","7.45","90444","18.38","DUALSPOT-UV-BLUE-GREEN-RED-IR","521780","589156","908316","38.256452","16.948300","0.015965","657152","797589","838123","27.695964","10.968082","0.018825","667395","791265","833989","24.500348","9.367652","0.019936","707756","808040","889986","20.829282","7.621140","0.021162","661297","847802","963450","14.950932","5.146319","0.023756","10934","20491","28092","11040","18304","23067","11175","17765","21844","11811","17715","21121","12358","16822","19165","DualSpot on"
"MA200-0420","46339","75","1","1.10","1.6","2023-07-29T05:45:00","120","2023/07/29","05:45:00","-15.795579493045807","35.00283999997191","0.1","12","300","64","98","-284","-27016","-828","3","150","149.53","116.21","33.33","18.39","48.8","7.41","90444","18.38","DUALSPOT-UV-BLUE-GREEN-RED-IR","509506","581965","908310","40.645364","18.179368","0.014526","644630","790541","838129","29.629894","11.859360","0.016975","655810","785129","833926","26.250730","10.141595","0.017861","696838","802567","889561","22.342760","8.254425","0.018854","653961","844185","963413","16.067139","5.572983","0.021008","12074","21696","29481","12337","19825","24822","12505","19279","23544","13066","19064","22577","13418","17884","20255","DualSpot on"
"MA200-0420","46340","75","1","1.10","1.6","2023-07-29T05:50:00","120","2023/07/29","05:50:00","-15.795592665672302","35.00276433303952","0.2","12","300","64","98","-340","-27056","-696","3","150","149.53","116.49","33.04","18.40","48.9","7.47","90456","18.38","DUALSPOT-UV-BLUE-GREEN-RED-IR","500644","576651","908257","42.399180","19.093738","0.014245","635923","785939","838837","31.075670","12.530659","0.016617","647168","780465","833835","27.567022","10.726836","0.017474","688694","798517","889298","23.489532","8.733721","0.018303","648041","841002","962904","16.924430","5.897584","0.020068","8842","16256","22329","9200","15063","19024","9380","14706","18099","9876","14554","17324","10280","13725","15567","DualSpot on"
"MA200-0420","46341","75","1","1.10","1.6","2023-07-29T05:55:00","120","2023/07/29","05:55:00","-15.795681834220886","35.00264133280143","0.1","11","300","64","98","-272","-26963","-904","3","150","149.83","116.88","32.95","18.43","49.0","7.52","90460","18.44","DUALSPOT-UV-BLUE-GREEN-RED-IR","494243","573203","910006","43.883696","19.890912","0.014205","628980","782322","839900","32.303592","13.120859","0.016804","640969","777643","835092","28.685208","11.241035","0.017757","682900","796177","890436","24.466804","9.157597","0.018908","643821","839206","963612","17.651462","6.184637","0.021611","7460","14211","19808","7788","13279","17035","7942","12957","16188","8388","12907","15610","8689","12170","14048","DualSpot on"
"MA200-0420","46342","75","1","1.10","1.6","2023-07-29T06:00:00","120","2023/07/29","06:00:00","-15.79561722278595","35.002711666282266","0.1","11","300","64","98","-284","-26852","-1064","3","150","150.40","116.71","33.69","18.44","49.1","7.55","90464","18.44","DUALSPOT-UV-BLUE-GREEN-RED-IR","488192","569601","910904","45.215432","20.619770","0.013762","622188","778215","840030","33.405480","13.663571","0.016299","631076","769698","830491","29.691570","11.716289","0.017256","678167","794510","892059","25.346272","9.549826","0.018408","640418","838068","964900","18.314674","6.452408","0.020807","6702","12708","17743","6999","11943","15364","7158","11712","14681","7560","11681","14172","7938","11104","12826","DualSpot on"
"MA200-0420","46343","75","1","1.10","1.6","2023-07-29T06:05:00","120","2023/07/29","06:05:00","-15.795613467693329","35.00271649938077","0.1","11","300","64","98","-404","-26991","-560","3","150","149.94","116.41","33.53","18.47","49.2","7.61","90468","18.44","DUALSPOT-UV-BLUE-GREEN-RED-IR","481338","565092","910581","46.588332","21.369712","0.013384","615465","774201","840304","34.524468","14.209439","0.015671","624523","765842","830295","30.710258","12.191936","0.016522","672363","791671","892394","26.242006","9.944394","0.017535","636288","836059","965216","18.995342","6.726456","0.020066","6927","13137","18399","7125","12068","15526","7265","11777","14748","7719","11806","14299","8168","11417","13199","DualSpot on"
"MA200-0420","46344","75","1","1.10","1.6","2023-07-29T06:10:00","120","2023/07/29","06:10:00","-15.795658707618713","35.00274099945091","0.1","11","300","64","98","-356","-26980","-844","3","150","150.15","116.54","33.61","18.50","49.6","7.74","90472","18.44","DUALSPOT-UV-BLUE-GREEN-RED-IR","470992","556457","904026","48.044272","22.194080","0.013354","608188","769785","840823","35.771152","14.841487","0.015776","617657","761955","830752","31.865280","12.754219","0.016765","665301","787746","892206","27.275518","10.419078","0.017945","630965","832984","964885","19.799416","7.059783","0.020438","7338","14406","20474","7930","13940","18202","8228","13889","17666","8897","14169","17427","9638","13854","16189","DualSpot on"
"MA200-0420","46345","75","1","1.10","1.6","2023-07-29T06:15:00","120","2023/07/29","06:15:00","-15.795616269111633","35.00269616628066","0.1","11","300","64","98","-396","-26863","-756","3","150","150.49","116.99","33.50","18.57","49.8","7.90","90480","18.56","DUALSPOT-UV-BLUE-GREEN-RED-IR","465194","552994","905760","49.472396","23.009498","0.013142","597400","760773","836330","37.025816","15.484264","0.015548","611050","758331","831537","33.034932","13.328502","0.016501","653745","778474","886033","28.332378","10.909456","0.017728","626210","830781","965718","20.641376","7.412032","0.020273","7169","14298","20496","7950","14225","18736","8300","14233","18246","9063","14687","18209","10053","14690","17288","DualSpot on"
"MA200-0420","46346","75","1","1.10","1.6","2023-07-29T06:20:00","120","2023/07/29","06:20:00","-15.795684516429901","35.00265149981715","0.1","11","300","64","98","-254","-27020","-929","3","150","149.63","116.43","33.20","18.66","49.8","7.95","90480","18.69","DUALSPOT-UV-BLUE-GREEN-RED-IR","458468","548134","904946","50.837976","23.804206","0.013020","589296","754653","834848","38.219580","16.115889","0.015612","603763","753391","830799","34.150660","13.892114","0.016555","651419","779756","891774","29.339448","11.390853","0.017899","620508","827007","964663","21.447044","7.756667","0.020486","6889","14060","20376","7601","14105","18847","7956","14095","18305","8678","14548","18274","9666","14502","17242","DualSpot on"
"MA200-0420","46347","75","1","1.10","1.6","2023-07-29T06:25:00","120","2023/07/29","06:25:00","-15.795659720897675","35.00267883320339","0.2","11","300","68","98","-292","-26900","-851","4","150","149.77","116.07","33.71","18.77","49.9","8.10","90472","18.81","DUALSPOT-UV-BLUE-GREEN-RED-IR","775934","701617","906584","0.000000","0.000000","0.000000","879742","895932","840769","0.000000","0.000000","0.000000","858331","868756","831690","0.000000","0.000000","0.000000","880265","875683","892708","0.000000","0.000000","0.000000","767758","891867","963153","0.000000","0.000000","0.000000","","","","","","","","","","","","","","","","Tape advance-DualSpot on"
"MA200-0420","46348","75","1","1.10","1.6","2023-07-29T06:30:00","120","2023/07/29","06:30:00","-15.795657694339752","35.00265199970454","0.1","11","300","68","98","-516","-26919","-888","4","150","149.35","115.54","33.81","18.85","50.0","8.19","90472","18.94","DUALSPOT-UV-BLUE-GREEN-RED-IR","746380","693336","909107","0.000000","0.000000","0.000000","852661","883873","837053","0.000000","0.000000","0.000000","840022","863292","832834","0.000000","0.000000","0.000000","859150","865345","887505","0.000000","0.000000","0.000000","759474","889766","964512","0.000000","0.000000","0.000000","","","","","","","","","","","","","","","","Tape advance-DualSpot on"
"MA200-0420","46349","75","1","1.10","1.6","2023-07-29T06:35:00","120","2023/07/29","06:35:00","-15.79556530714035","35.00283683324233","0.2","11","300","64","98","-275","-26962","-895","4","150","150.21","115.68","34.53","18.91","50.0","8.25","90468","19.00","DUALSPOT-UV-BLUE-GREEN-RED-IR","712701","679318","904590","4.117918","1.544639","0.070672","831369","877362","839119","2.771695","0.986928","0.000000","821736","857811","834439","2.391721","0.834107","0.000000","844527","861648","889612","1.949853","0.665183","0.000000","750793","887577","966191","1.322710","0.421429","0.000000","20908","26272","29491","17762","21186","17762","17165","20053","17165","16911","19325","16911","15973","17047","15973","DualSpot on"
"MA200-0420","46350","75","1","1.10","1.6","2023-07-29T06:40:00","120","2023/07/29","06:40:00","-15.795596837997437","35.002709332853556","0.2","12","300","64","98","-340","-26947","-855","4","150","149.69","115.68","34.01","18.99","50.1","8.37","90484","19.13","DUALSPOT-UV-BLUE-GREEN-RED-IR","686343","670289","906590","8.114923","3.103637","0.042625","803921","863787","834742","5.609339","2.022141","0.048760","798026","846451","830714","4.877295","1.718485","0.050225","828257","856552","890686","4.015985","1.378512","0.052207","736062","878617","960940","2.760645","0.889336","0.000000","20294","26922","31027","18185","22563","25031","17839","21587","23626","17919","21041","22673","17364","19217","17364","DualSpot on"
"MA200-0420","46351","75","1","1.10","1.6","2023-07-29T06:45:00","120","2023/07/29","06:45:00","-15.795606315135956","35.00268649938516","0.0","11","300","64","98","-384","-27088","-460","4","150","149.63","115.56","34.07","19.13","50.2","8.53","90488","19.25","DUALSPOT-UV-BLUE-GREEN-RED-IR","659221","659069","905925","12.062443","4.710434","0.031878","785343","859519","840013","8.571070","3.143591","0.036166","781213","842609","835013","7.513355","2.687806","0.037011","809554","849361","890248","6.243558","2.167837","0.037854","728481","878973","966291","4.346250","1.402676","0.029149","20064","27704","32599","18999","24404","27535","18938","23623","26233","19339","23246","25324","19167","21050","21948","DualSpot on"
"MA200-0420","46352","75","1","1.10","1.6","2023-07-29T06:50:00","120","2023/07/29","06:50:00","-15.79559987783432","35.00265399971977","0.1","11","300","64","98","-64","-27444","-888","4","150","149.89","116.31","33.58","19.29","50.3","8.70","90508","19.50","DUALSPOT-UV-BLUE-GREEN-RED-IR","632945","647669","905608","16.107025","6.428325","0.027292","761231","849086","840017","11.692219","4.367965","0.031154","759501","833519","834861","10.315310","3.752442","0.032187","789724","841253","889473","8.638082","3.040888","0.033425","715011","872775","965009","6.080360","1.977759","0.029717","20424","30052","36446","19893","27033","31291","20000","26325","29941","20654","26087","29039","20827","23926","25420","DualSpot on"
"MA200-0420","46353","75","1","1.10","1.6","2023-07-29T06:55:00","120","2023/07/29","06:55:00","-15.79560399055481","35.002675333060324","0.2","11","300","64","97","-315","-27053","-796","4","150","149.56","116.31","33.25","19.45","50.3","8.83","90512","19.69","DUALSPOT-UV-BLUE-GREEN-RED-IR","608088","635594","903917","19.926392","8.119449","0.024132","738174","838044","839294","14.679581","5.590052","0.027957","738015","823197","833361","13.006487","4.817356","0.029136","770156","832270","887743","10.952076","3.917727","0.030710","701718","866226","963307","7.779546","2.555121","0.028183","19287","29873","37153","19040","27247","32294","19209","26590","30931","19960","26457","30075","20408","24256","26139","DualSpot on"
"MA200-0420","46354","75","1","1.10","1.6","2023-07-29T07:00:00","120","2023/07/29","07:00:00","-15.795631349086761","35.00270433281548","0.2","11","300","64","98","-320","-27100","-745","4","150","149.90","116.60","33.30","19.63","50.2","8.98","90516","19.88","DUALSPOT-UV-BLUE-GREEN-RED-IR","589728","629086","910322","23.694954","9.853218","0.021571","715301","826045","837883","17.662656","6.863022","0.025302","717749","813388","832651","15.705697","5.932464","0.026597","751272","823392","886414","13.284933","4.841345","0.028449","693278","865414","968386","9.512253","3.171855","0.028355","18984","30579","38832","18966","28337","34292","19220","27799","33008","20073","27825","32270","20759","25870","28427","DualSpot on"
"MA200-0420","46355","75","1","1.10","1.6","2023-07-29T07:05:00","120","2023/07/29","07:05:00","-15.795619070529938","35.00271683302708","0.1","11","300","64","98","-320","-26996","-808","4","150","149.76","116.71","33.05","19.84","50.3","9.20","90516","20.06","DUALSPOT-UV-BLUE-GREEN-RED-IR","566930","617064","909293","27.517712","11.665852","0.019598","693334","814526","837282","20.701026","8.190498","0.022857","697284","802913","831558","18.461572","7.094902","0.023989","738525","821127","892535","15.680120","5.805945","0.025592","679012","857404","965613","11.304787","3.813877","0.025251","19239","32213","41761","19300","29775","36633","19605","29200","35189","20590","29281","34391","21456","27136","30028","DualSpot on"
"MA200-0420","46356","75","1","1.10","1.6","2023-07-29T07:10:00","120","2023/07/29","07:10:00","-15.795658886432648","35.00268599926494","0.2","11","300","64","97","-348","-26775","-1016","4","150","149.95","116.23","33.72","20.06","50.3","9.41","90528","20.31","DUALSPOT-UV-BLUE-GREEN-RED-IR","546494","606162","909751","31.246856","13.500134","0.017617","673938","804555","838222","23.653132","9.532804","0.020600","678537","793166","831173","21.145116","8.271111","0.021576","720673","812242","891551","18.017454","6.781313","0.022911","666583","851206","964876","13.075436","4.462885","0.021849","18844","31951","41921","18828","29510","36722","19168","28959","35250","20175","29020","34358","21280","26887","29792","DualSpot on"
"MA200-0420","46357","75","1","1.10","1.6","2023-07-29T07:15:00","120","2023/07/29","07:15:00","-15.795662522315979","35.00272083282471","0.0","12","300","64","98","-296","-26975","-716","4","150","149.89","116.47","33.42","20.28","50.2","9.57","90520","20.56","DUALSPOT-UV-BLUE-GREEN-RED-IR","516822","587706","904545","36.253180","16.015209","0.015822","647141","790075","839244","27.829176","11.470073","0.018399","653775","780634","832275","24.989790","9.993705","0.019344","692328","795670","886158","21.423088","8.236013","0.020658","649454","843082","965398","15.729355","5.474829","0.021319","25247","44205","59208","26580","42975","54471","27406","42796","53052","29336","43673","52627","31831","42302","47892","DualSpot on"
"MA200-0420","46358","75","1","1.10","1.6","2023-07-29T07:20:00","120","2023/07/29","07:20:00","-15.795619070529938","35.002729166299105","0.0","12","300","64","98","-388","-26628","-1384","4","150","150.46","115.92","34.54","20.49","50.0","9.71","90532","20.88","DUALSPOT-UV-BLUE-GREEN-RED-IR","498601","576072","903114","39.701804","17.867146","0.014942","629072","779002","838847","30.632790","12.845967","0.017203","636387","770258","831258","27.578390","11.212900","0.017931","675357","786139","884600","23.741966","9.270064","0.018905","636122","835142","963156","17.584220","6.193992","0.018045","17474","31490","42958","17930","29528","37904","18540","29303","36677","20070","30033","36415","22353","29083","32743","DualSpot on"
"MA200-0420","46359","75","1","1.10","1.6","2023-07-29T07:25:00","120","2023/07/29","07:25:00","-15.795576512813568","35.00276649952866","0.1","12","300","64","98","-300","-26775","-454","4","150","149.89","115.84","34.05","20.78","49.9","9.94","90540","21.13","DUALSPOT-UV-BLUE-GREEN-RED-IR","487951","570551","907598","42.358568","19.325276","0.014509","613887","768614","837037","32.858932","13.967867","0.016864","625466","765176","834011","29.637742","12.208736","0.017651","665254","782133","887593","25.585568","10.115147","0.018783","627884","831683","964857","19.059600","6.782423","0.018703","13471","25152","34953","14246","24426","31952","14759","24281","30951","15967","24900","30741","17792","24141","27648","DualSpot on"
"MA200-0420","46360","75","1","1.10","1.6","2023-07-29T07:30:00","120","2023/07/29","07:30:00","-15.795589447021484","35.002753666369244","0.3","13","300","64","98","-300","-27012","-884","4","150","149.92","115.60","34.33","21.07","49.7","10.15","90544","21.44","DUALSPOT-UV-BLUE-GREEN-RED-IR","473181","561824","910659","45.759904","21.198216","0.013422","599211","760366","839488","35.564160","15.333428","0.015512","608030","753274","830927","32.092808","13.401123","0.016260","654227","778174","891900","27.737178","11.106318","0.017271","618651","827695","966650","20.722664","7.445955","0.016847","17282","32049","44793","17349","29492","38696","17632","28840","36876","18674","28970","35846","20097","27004","30877","DualSpot on"
"MA200-0420","46361","75","1","1.10","1.6","2023-07-29T07:35:00","120","2023/07/29","07:35:00","-15.795605659484863","35.00275316601619","0.2","13","300","64","98","-360","-27072","-896","4","150","150.02","115.28","34.73","21.37","49.5","10.38","90552","21.81","DUALSPOT-UV-BLUE-GREEN-RED-IR","460077","552397","908402","48.338736","22.651702","0.012847","585469","750461","837503","37.664704","16.420256","0.014863","598196","748280","833274","34.017680","14.354614","0.015493","639135","767066","886186","29.441062","11.905874","0.016422","611504","824673","968296","22.065456","7.987655","0.015725","13138","24579","34668","13507","23197","30686","13862","22791","29310","14828","23095","28708","16271","21787","24916","DualSpot on"
"MA200-0420","46362","75","1","1.10","1.6","2023-07-29T07:40:00","120","2023/07/29","07:40:00","-15.795619368553162","35.00274849962443","0.2","13","300","64","98","-462","-26966","-816","4","150","149.69","115.68","34.01","21.72","49.2","10.59","90556","22.19","DUALSPOT-UV-BLUE-GREEN-RED-IR","450018","544685","905759","50.264504","23.768352","0.012900","579444","748126","841743","39.210028","17.240266","0.015035","588773","741570","831722","35.425068","15.071573","0.015821","635502","767644","892195","30.685524","12.506249","0.016933","603716","818905","965411","23.050988","8.393463","0.016763","9778","19283","27810","9903","17872","24127","10100","17500","22980","10793","17709","22467","11901","16667","19396","DualSpot on"
"MA200-0420","46363","75","1","1.10","1.6","2023-07-29T07:45:00","120","2023/07/29","07:45:00","-15.795617878437042","35.00268383300863","0.1","13","300","68","97","-368","-27036","-948","5","150","150.08","116.71","33.38","22.07","48.9","10.83","90560","22.56","DUALSPOT-UV-BLUE-GREEN-RED-IR","771284","700845","909719","0.000000","0.000000","0.000000","875606","894874","840407","0.000000","0.000000","0.000000","858726","871694","834310","0.000000","0.000000","0.000000","874636","871997","887954","0.000000","0.000000","0.000000","769445","894764","964388","0.000000","0.000000","0.000000","","","","","","","","","","","","","","","","Tape advance-DualSpot on"
"MA200-0420","46364","75","1","1.10","1.6","2023-07-29T07:50:00","120","2023/07/29","07:50:00","-15.79557716846466","35.00279333326034","0.1","13","300","68","98","-508","-26860","-652","5","150","149.94","116.74","33.20","22.41","48.3","10.95","90568","22.94","DUALSPOT-UV-BLUE-GREEN-RED-IR","738875","689952","908397","0.000000","0.000000","0.000000","849898","885318","839400","0.000000","0.000000","0.000000","836490","863358","833010","0.000000","0.000000","0.000000","856314","865362","886831","0.000000","0.000000","0.000000","761983","894689","968202","0.000000","0.000000","0.000000","","","","","","","","","","","","","","","","Tape advance-DualSpot on"
"MA200-0420","46365","75","1","1.10","1.6","2023-07-29T07:55:00","120","2023/07/29","07:55:00","-15.795653522014618","35.002717833034694","0.1","13","300","64","98","-340","-27032","-828","5","150","150.08","116.51","33.57","22.76","48.1","11.20","90564","23.25","DUALSPOT-UV-BLUE-GREEN-RED-IR","710832","679051","905579","3.577238","1.291036","0.079147","826286","875103","836975","2.540881","0.875383","0.000000","815946","854540","830610","2.208368","0.739669","0.000000","844658","864017","890675","1.810383","0.590533","0.000000","749014","887346","963893","1.269487","0.376352","0.000000","18034","22586","25156","16167","19329","16167","15736","18291","15736","15589","17646","15589","15221","15659","15221","DualSpot on"
"MA200-0420","46366","75","1","1.10","1.6","2023-07-29T08:00:00","120","2023/07/29","08:00:00","-15.79557603597641","35.002791833132505","0.2","13","300","64","97","-348","-26984","-616","5","150","150.08","116.55","33.53","23.08","47.6","11.34","90580","23.56","DUALSPOT-UV-BLUE-GREEN-RED-IR","699675","675524","906691","5.297092","1.938844","0.061874","817895","872985","838535","3.756200","1.304679","0.068851","807505","851556","830680","3.264103","1.100415","0.067571","838064","862233","891368","2.679541","0.878684","0.000000","744178","885503","963633","1.896379","0.558601","0.000000","8667","11346","12893","7730","9490","10426","7520","8931","9648","7481","8620","7481","7514","7592","7514","DualSpot on"
"MA200-0420","46367","75","1","1.10","1.6","2023-07-29T08:05:00","120","2023/07/29","08:05:00","-15.795664846897125","35.00266983290203","0.0","13","300","64","97","-316","-27156","-736","5","150","149.52","116.29","33.23","23.38","47.1","11.46","90592","23.88","DUALSPOT-UV-BLUE-GREEN-RED-IR","686950","669790","904472","6.884231","2.542547","0.050010","806477","866891","835893","4.848958","1.692938","0.056130","802354","851369","833175","4.209831","1.424670","0.055111","828890","857201","888449","3.453165","1.133897","0.054150","740861","885080","964660","2.455312","0.715972","0.000000","8016","10670","12224","6965","8661","9570","6751","8101","8791","6674","7705","8209","6714","6615","6714","DualSpot on"
"MA200-0420","46368","75","1","1.10","1.6","2023-07-29T08:10:00","120","2023/07/29","08:10:00","-15.795622706413269","35.00272516626865","0.1","13","300","64","98","-241","-27004","-679","5","150","149.90","115.76","34.13","23.65","46.7","11.56","90600","24.13","DUALSPOT-UV-BLUE-GREEN-RED-IR","675510","665034","903759","8.494585","3.181047","0.041828","797022","862526","834977","5.922955","2.088439","0.046891","793981","847520","832139","5.131530","1.750248","0.045032","821320","853590","886934","4.203316","1.388104","0.043368","735517","882070","962883","2.994701","0.874544","0.000000","8170","10987","12673","6877","8589","9522","6610","7919","8596","6501","7471","7950","6508","6489","6508","DualSpot on"
"MA200-0420","46369","75","1","1.10","1.6","2023-07-29T08:15:00","120","2023/07/29","08:15:00","-15.79566901922226","35.00269533297978","0.0","13","300","64","98","-320","-27096","-636","5","150","150.27","115.54","34.73","23.84","46.2","11.57","90608","24.31","DUALSPOT-UV-BLUE-GREEN-RED-IR","670845","666041","910288","9.903162","3.744966","0.035127","789915","859949","835429","6.870181","2.441084","0.039294","786736","844141","831182","5.936199","2.038276","0.037908","821442","857377","892852","4.852598","1.611298","0.036437","735237","884545","966927","3.449804","1.011041","-0.000955","7160","9536","10980","6077","7526","8325","5782","6884","7461","5638","6446","6849","5502","5489","5484","DualSpot on"
"MA200-0420","46370","75","1","1.10","1.6","2023-07-29T08:20:00","120","2023/07/29","08:20:00","-15.795715630054474","35.00267966627143","0.1","13","300","64","98","-450","-26725","-1158","5","150","149.50","115.68","33.82","24.04","46.0","11.71","90608","24.50","DUALSPOT-UV-BLUE-GREEN-RED-IR","661572","662064","909836","11.250704","4.294325","0.034618","787928","862477","840611","7.741297","2.767104","0.039219","785272","846540","835738","6.672623","2.301120","0.037782","816573","855586","892817","5.445554","1.815150","0.038342","731080","882104","965419","3.862899","1.132212","0.001207","6842","9541","11207","5582","7146","8016","5285","6452","7066","5142","6047","6499","4988","5005","5011","DualSpot on"
"MA200-0420","46371","75","1","1.10","1.6","2023-07-29T08:25:00","120","2023/07/29","08:25:00","-15.795652508735657","35.00269699958153","0.1","13","300","64","98","-408","-26691","-764","5","150","149.52","115.61","33.91","24.25","45.8","11.81","90608","24.75","DUALSPOT-UV-BLUE-GREEN-RED-IR","654197","659315","910714","12.468796","4.810535","0.033687","781473","859542","840288","8.526632","3.070235","0.038766","775063","839048","830413","7.338176","2.547407","0.038985","811261","852958","891753","5.977644","2.003104","0.039320","727478","880030","964237","4.231918","1.243864","0.010103","6188","8941","10670","5035","6626","7522","4779","6029","6694","4617","5560","6036","4458","4599","4657","DualSpot on"
"MA200-0420","46372","75","1","1.10","1.6","2023-07-29T08:30:00","120","2023/07/29","08:30:00","-15.795649647712708","35.00273749954067","0.2","14","300","64","98","-100","-27168","-1548","5","150","149.47","115.27","34.19","24.45","45.6","11.94","90604","24.94","DUALSPOT-UV-BLUE-GREEN-RED-IR","645066","655163","910283","13.829643","5.394066","0.030524","774767","856825","840522","9.416045","3.413170","0.033974","772905","840739","834401","8.099396","2.827638","0.033370","805160","849996","890602","6.604090","2.221532","0.031668","722610","876892","962105","4.686893","1.379873","0.002332","6934","10023","11999","5719","7435","8410","5482","6804","7513","5452","6409","6894","5513","5556","5574","DualSpot on"
"MA200-0420","46373","75","1","1.10","1.6","2023-07-29T08:35:00","120","2023/07/29","08:35:00","-15.795666337013245","35.00267033302225","0.1","14","300","64","98","-208","-27200","-408","5","150","150.02","115.24","34.77","24.62","45.5","12.06","90608","25.06","DUALSPOT-UV-BLUE-GREEN-RED-IR","636052","649956","907024","14.879616","5.837253","0.026634","766831","851791","837928","10.141615","3.693980","0.030349","766135","836638","832264","8.725445","3.059691","0.029829","798307","845547","887520","7.114286","2.401218","0.028333","721951","878330","964762","5.052942","1.491121","0.002016","5351","7486","8864","4667","5986","6742","4510","5540","6097","4441","5184","5562","4437","4469","4482","DualSpot on"
"MA200-0420","46374","75","1","1.10","1.6","2023-07-29T08:40:00","120","2023/07/29","08:40:00","-15.795666337013245","35.002722666133195","0.1","12","300","64","97","-304","-27091","-756","5","150","150.15","115.72","34.43","24.78","45.2","12.12","90616","25.31","DUALSPOT-UV-BLUE-GREEN-RED-IR","630534","647234","906306","15.679520","6.179088","0.026701","761463","848625","836591","10.690448","3.909886","0.031513","761938","834520","831609","9.197862","3.236407","0.030894","794933","844026","887163","7.499252","2.540699","0.033040","718674","876055","963018","5.329395","1.573566","0.000627","4060","5831","6984","3516","4648","5302","3389","4261","4734","3337","4064","4437","3337","3345","3348","DualSpot on"
"MA200-0420","46375","75","1","1.10","1.6","2023-07-29T08:45:00","120","2023/07/29","08:45:00","-15.795635044574738","35.002693499671295","0.1","11","300","64","97","-296","-27324","324","5","150","149.77","115.73","34.05","25.00","45.1","12.27","90616","25.50","DUALSPOT-UV-BLUE-GREEN-RED-IR","626485","645573","906655","16.359489","6.473873","0.026858","757685","846881","836449","11.169698","4.098391","0.031100","758386","832760","831141","9.608438","3.390520","0.031108","797727","848852","893293","7.837961","2.662760","0.032420","720513","879797","967877","5.575786","1.648198","0.007228","3451","5085","6155","3070","4104","4704","2945","3758","4201","2936","3596","3936","2974","3062","3099","DualSpot on"
"MA200-0420","46376","75","1","1.10","1.6","2023-07-29T08:50:00","120","2023/07/29","08:50:00","-15.795595705509186","35.00275283283554","0.4","11","300","64","97","-260","-27103","-640","5","150","149.69","115.72","33.97","25.20","45.0","12.41","90616","25.69","DUALSPOT-UV-BLUE-GREEN-RED-IR","620491","641847","904037","17.029800","6.763805","0.025826","752764","843826","834966","11.638865","4.282236","0.029747","758316","834815","834460","10.014541","3.542381","0.029710","792550","845093","890414","8.167778","2.781818","0.031617","716191","876011","964439","5.816829","1.720471","0.005047","3402","5012","6073","3005","4011","4597","2913","3711","4147","2859","3515","3855","2909","2971","2997","DualSpot on"
"MA200-0420","46377","75","1","1.10","1.6","2023-07-29T08:55:00","120","2023/07/29","08:55:00","-15.795643389225006","35.00277683301829","0.1","11","300","64","98","-316","-27460","600","5","150","149.44","116.31","33.13","25.40","44.6","12.48","90632","25.94","DUALSPOT-UV-BLUE-GREEN-RED-IR","616782","640751","905429","17.788856","7.091926","0.026008","750291","843753","836707","12.181588","4.498017","0.031659","754655","833209","834377","10.488277","3.722978","0.032813","790045","844591","891154","8.561537","2.924460","0.034138","714250","875380","964578","6.106153","1.808885","0.015380","3833","5817","7133","3459","4828","5630","3381","4526","5156","3396","4320","4799","3474","3728","3835","DualSpot on"
"MA200-0420","46378","75","1","1.10","1.6","2023-07-29T09:00:00","120","2023/07/29","09:00:00","-15.79567164182663","35.00268966611475","0.0","11","300","64","98","-324","-27203","-244","5","150","150.60","116.67","33.94","25.61","44.1","12.47","90632","26.13","DUALSPOT-UV-BLUE-GREEN-RED-IR","612335","638583","905158","18.482456","7.398868","0.025162","746069","841474","836168","12.678889","4.701644","0.031009","750483","830793","833364","10.919668","3.892484","0.032308","787036","843180","890888","8.917214","3.059723","0.035747","711155","873107","962900","6.370060","1.893171","0.019201","3491","5312","6527","3160","4448","5207","3069","4146","4743","3058","3998","4489","3160","3469","3600","DualSpot on"
"MA200-0420","46379","75","1","1.10","1.6","2023-07-29T09:05:00","120","2023/07/29","09:05:00","-15.795670330524445","35.00270333280787","0.1","11","300","64","97","-300","-27472","540","5","150","149.82","116.98","32.84","25.82","43.5","12.48","90624","26.38","DUALSPOT-UV-BLUE-GREEN-RED-IR","607440","635502","903162","19.062760","7.659450","0.026260","740809","837596","833728","13.095493","4.875010","0.033183","746532","828233","831976","11.282456","4.036708","0.034851","783424","840870","889448","9.216746","3.173403","0.037898","712005","875481","966180","6.591608","1.963990","0.025026","2913","4660","5834","2640","3913","4668","2574","3646","4243","2568","3473","3947","2645","3012","3168","DualSpot on"
"MA200-0420","46380","75","1","1.10","1.6","2023-07-29T09:10:00","120","2023/07/29","09:10:00","-15.795644164085388","35.0027081661392","0.1","11","300","64","97","-354","-27062","-337","5","150","149.59","117.01","32.58","25.96","43.1","12.44","90624","26.56","DUALSPOT-UV-BLUE-GREEN-RED-IR","608726","638763","910028","19.608590","7.905533","0.025973","743926","843072","840534","13.486076","5.036420","0.032332","743994","827062","831921","11.620049","4.170013","0.033983","780618","839293","888718","9.493931","3.280222","0.038964","709987","874252","965386","6.793867","2.027302","0.022169","2739","4437","5583","2474","3673","4387","2395","3397","3958","2376","3289","3771","2414","2715","2842","DualSpot on"
"MA200-0420","46381","75","1","1.10","1.6","2023-07-29T09:15:00","120","2023/07/29","09:15:00","-15.795633375644684","35.00269933277741","0.2","11","300","64","98","-323","-27219","-665","5","150","150.15","117.28","32.87","26.18","42.7","12.50","90616","26.75","DUALSPOT-UV-BLUE-GREEN-RED-IR","604828","636884","909921","20.234748","8.187122","0.024896","739677","840539","839609","13.945927","5.225474","0.030648","740291","824970","831125","12.021344","4.328269","0.032337","776875","837004","887428","9.828369","3.408333","0.036580","706487","871387","963013","7.038194","2.106779","0.026484","3136","5031","6319","2906","4263","5076","2840","3997","4647","2861","3910","4467","2910","3377","3577","DualSpot on"
"MA200-0420","46382","75","1","1.10","1.6","2023-07-29T09:20:00","120","2023/07/29","09:20:00","-15.795776784420013","35.002726833103225","0.1","10","300","64","98","-148","-27032","-1448","5","150","149.38","116.90","32.47","26.45","42.5","12.67","90620","27.13","DUALSPOT-UV-BLUE-GREEN-RED-IR","597000","631099","904509","20.940072","8.503559","0.024296","731893","834211","835062","14.459311","5.437754","0.030372","737391","823990","831619","12.471984","4.506636","0.032031","774158","836008","887638","10.202718","3.549897","0.034948","704321","870348","962772","7.317297","2.197567","0.026840","3543","5723","7213","3255","4846","5804","3200","4560","5329","3212","4373","4993","3335","3905","4150","DualSpot on"
"MA200-0420","46383","75","1","1.10","1.6","2023-07-29T09:25:00","120","2023/07/29","09:25:00","-15.795625030994415","35.002702499506995","0.1","10","300","64","98","-244","-27119","-720","5","150","150.52","116.94","33.58","26.70","42.1","12.75","90624","27.31","DUALSPOT-UV-BLUE-GREEN-RED-IR","594730","631076","907287","21.632350","8.816536","0.022750","730259","834621","837125","14.936746","5.636114","0.027961","735858","824316","833303","12.883915","4.669643","0.028879","773888","837487","890347","10.542636","3.679838","0.031972","702892","870079","963209","7.568998","2.274778","0.011716","3477","5473","6846","3026","4378","5197","2924","4029","4657","2916","3881","4399","3006","3211","3299","DualSpot on"
"MA200-0420","46384","75","1","1.10","1.6","2023-07-29T09:30:00","120","2023/07/29","09:30:00","-15.795595169067383","35.00274566630833","0.1","9","300","64","98","-380","-27012","-648","5","150","150.34","116.74","33.60","26.97","41.6","12.83","90616","27.63","DUALSPOT-UV-BLUE-GREEN-RED-IR","592211","630590","909305","22.274990","9.111954","0.022568","728936","835250","839268","15.373065","5.819103","0.027575","733458","823475","833680","13.258044","4.820593","0.029200","772704","837814","891755","10.849863","3.798338","0.031672","701039","869145","962865","7.797100","2.344876","0.011344","3233","5164","6501","2770","4037","4809","2660","3730","4341","2640","3538","4022","2729","2914","2994","DualSpot on"
"MA200-0420","46385","75","1","1.10","1.6","2023-07-29T09:35:00","120","2023/07/29","09:35:00","-15.795627236366272","35.002722499426454","0.1","9","300","64","98","-280","-27080","-624","5","150","149.95","116.23","33.72","27.20","41.2","12.87","90608","27.81","DUALSPOT-UV-BLUE-GREEN-RED-IR","587951","628567","909469","23.018424","9.454426","0.021696","725087","833326","839141","15.888451","6.033981","0.026020","729635","821416","833096","13.709034","4.998946","0.026531","768820","835502","890587","11.223512","3.940596","0.028952","702177","872217","967130","8.076984","2.434983","0.016808","3756","5965","7504","3287","4724","5603","3221","4391","5062","3225","4232","4777","3363","3732","3892","DualSpot on"
"MA200-0420","46386","75","1","1.10","1.6","2023-07-29T09:40:00","120","2023/07/29","09:40:00","-15.795656502246857","35.00273916614242","0.0","9","300","64","98","-324","-26952","-744","5","150","149.82","116.51","33.31","27.43","41.0","13.02","90616","28.06","DUALSPOT-UV-BLUE-GREEN-RED-IR","582762","625440","908172","23.762440","9.807617","0.022272","720151","830163","837884","16.417740","6.264684","0.027950","725640","819136","832401","14.173938","5.192057","0.029400","765157","833465","889826","11.615743","4.097410","0.032793","698736","869686","965281","8.374523","2.535661","0.024869","3750","6227","7967","3367","5133","6223","3312","4812","5679","3377","4722","5455","3567","4221","4505","DualSpot on"
"MA200-0420","46387","75","1","1.10","1.6","2023-07-29T09:45:00","120","2023/07/29","09:45:00","-15.79566216468811","35.00274883280508","0.1","11","300","64","97","-296","-27124","-716","5","150","149.82","116.19","33.63","27.50","40.1","12.72","90616","27.88","DUALSPOT-UV-BLUE-GREEN-RED-IR","578597","623301","908097","24.470074","10.142593","0.021271","716713","828514","838081","16.922036","6.487046","0.027133","722139","817296","832086","14.616395","5.380080","0.029119","762004","831853","889376","11.983349","4.245663","0.031594","696443","868337","964714","8.646034","2.629103","0.024712","3577","5850","7460","3217","4901","5948","3161","4641","5504","3174","4422","5108","3264","3881","4151","DualSpot on"
"MA200-0420","46388","75","1","1.10","1.6","2023-07-29T09:50:00","120","2023/07/29","09:50:00","-15.795682668685913","35.002753499662504","0.2","11","300","64","98","-241","-27250","-720","5","150","150.27","116.26","34.02","27.46","40.2","12.75","90616","27.94","DUALSPOT-UV-BLUE-GREEN-RED-IR","571637","618009","903279","25.148392","10.465256","0.020570","715519","829412","840727","17.401710","6.695355","0.025308","720648","817564","833800","15.028806","5.552809","0.027032","755192","826140","884480","12.320950","4.379701","0.028927","696126","869268","966535","8.879807","2.711685","0.025886","3427","5571","7099","3058","4539","5465","2945","4215","4960","2913","3953","4526","2809","3391","3647","DualSpot on"
"MA200-0420","46389","75","1","1.10","1.6","2023-07-29T09:55:00","120","2023/07/29","09:55:00","-15.79571783542633","35.002726833103225","0.2","13","300","64","97","-268","-27180","-628","5","150","150.08","116.31","33.77","27.56","40.2","12.81","90620","28.00","DUALSPOT-UV-BLUE-GREEN-RED-IR","571632","620129","909334","25.814946","10.786980","0.020617","710966","826255","839279","17.868668","6.900646","0.025509","717237","815601","833214","15.431320","5.720467","0.026470","758163","831023","890848","12.650507","4.509755","0.028315","693779","867688","965549","9.112747","2.791031","0.021920","3366","5595","7195","2976","4506","5469","2873","4121","4857","2842","3863","4429","2797","3282","3496","DualSpot on"
"MA200-0420","46390","75","1","1.10","1.6","2023-07-29T10:00:00","120","2023/07/29","10:00:00","-15.795713186264038","35.00273299938999","0.0","13","300","64","98","-296","-27252","-340","5","150","149.96","115.88","34.08","27.46","39.8","12.59","90608","27.75","DUALSPOT-UV-BLUE-GREEN-RED-IR","566763","617096","907968","26.521054","11.131542","0.020052","706396","823181","837997","18.359366","7.122220","0.025411","713677","813476","832546","15.853104","5.903228","0.027116","754899","829091","890057","12.990652","4.649866","0.029571","692054","866774","965306","9.343807","2.875179","0.027397","3579","5938","7644","3139","4819","5884","3021","4452","5300","2944","4124","4781","2785","3449","3743","DualSpot on"
"MA200-0420","46391","75","1","1.10","1.6","2023-07-29T10:05:00","120","2023/07/29","10:05:00","-15.795528054237366","35.00281766639091","0.3","13","300","64","98","-312","-27087","-595","5","150","150.02","116.07","33.94","27.35","39.8","12.49","90612","27.63","DUALSPOT-UV-BLUE-GREEN-RED-IR","561089","613247","905596","27.266864","11.493580","0.019544","700478","818712","835518","18.905072","7.366557","0.024613","708861","810154","830851","16.328581","6.110062","0.026819","749939","825578","887688","13.383955","4.810298","0.028495","689073","864525","963813","9.615417","2.976781","0.029947","3773","6264","8079","3485","5336","6518","3400","5059","6050","3399","4742","5495","3268","4181","4590","DualSpot on"
"MA200-0420","46392","75","1","1.10","1.6","2023-07-29T10:10:00","120","2023/07/29","10:10:00","-15.795634686946869","35.00278833298944","0.1","12","300","64","97","-195","-27091","-687","5","150","150.41","116.31","34.10","27.22","39.8","12.36","90616","27.50","DUALSPOT-UV-BLUE-GREEN-RED-IR","558376","612210","906988","27.906796","11.811523","0.019580","698459","818434","837023","19.373408","7.581692","0.024893","707036","809926","832154","16.737394","6.290512","0.026741","748711","825868","889257","13.721764","4.951000","0.028932","689007","865636","965897","9.843296","3.064797","0.032061","3231","5476","7124","2985","4677","5765","2918","4393","5282","2913","4140","4832","2736","3606","3998","DualSpot on"
"MA200-0420","46393","75","1","1.10","1.6","2023-07-29T10:15:00","120","2023/07/29","10:15:00","-15.795589804649353","35.00276116630994","0.0","12","300","64","98","-324","-26900","-844","5","150","149.86","115.79","34.07","27.22","40.1","12.50","90608","27.56","DUALSPOT-UV-BLUE-GREEN-RED-IR","555824","611655","909339","28.618568","12.164978","0.019027","696359","818359","838918","19.901844","7.821339","0.023678","705165","809878","833773","17.199248","6.492480","0.025489","747595","826455","891324","14.105066","5.111092","0.028122","683953","860750","961442","10.115131","3.166552","0.028037","3610","6092","7927","3383","5213","6398","3311","4920","5896","3321","4713","5504","3279","4171","4578","DualSpot on"
"MA200-0420","46394","75","1","1.10","1.6","2023-07-29T10:20:00","120","2023/07/29","10:20:00","-15.79563021659851","35.002780833048746","0.1","11","300","64","97","-284","-27075","-408","5","150","149.82","116.27","33.55","27.29","39.7","12.40","90600","27.75","DUALSPOT-UV-BLUE-GREEN-RED-IR","550358","607597","906343","29.281086","12.500011","0.019387","690724","813834","836251","20.397420","8.053109","0.024825","700330","806279","831663","17.636370","6.689336","0.026911","742597","822650","888584","14.470076","5.267102","0.029768","684560","862955","964843","10.381264","3.266436","0.029375","3346","5865","7741","3159","5121","6400","3121","4871","5940","3149","4665","5532","3197","4158","4600","DualSpot on"
"MA200-0420","46395","75","1","1.10","1.6","2023-07-29T10:25:00","120","2023/07/29","10:25:00","-15.795612752437592","35.002756499452516","0.1","11","300","64","97","-270","-27266","-420","5","150","150.15","115.72","34.43","27.36","39.0","12.18","90600","27.75","DUALSPOT-UV-BLUE-GREEN-RED-IR","548754","607222","908031","29.761722","12.747978","0.018889","689571","814033","837837","20.754674","8.222112","0.023812","698969","806080","832647","17.952146","6.831004","0.025095","742016","823231","890182","14.731623","5.379018","0.027720","684092","863379","966007","10.569695","3.338329","0.027640","2439","4230","5572","2288","3639","4524","2265","3416","4123","2267","3261","3832","2274","2917","3213","DualSpot on"
"MA200-0420","46396","75","1","1.10","1.6","2023-07-29T10:30:00","120","2023/07/29","10:30:00","-15.795587182044983","35.00273483293131","0.3","11","300","64","97","-253","-27069","-980","5","150","150.45","116.14","34.30","27.45","38.3","12.00","90596","27.94","DUALSPOT-UV-BLUE-GREEN-RED-IR","545068","604336","905534","30.166516","12.956253","0.018741","685294","810256","835179","21.060014","8.367218","0.023865","695603","803388","830880","18.220074","6.952812","0.025566","738353","820174","887767","14.955496","5.475456","0.028064","680998","860346","963171","10.732212","3.397646","0.023898","2047","3566","4709","1948","3135","3918","1915","2948","3585","1933","2820","3332","1954","2415","2628","DualSpot on"
"MA200-0420","46397","75","1","1.10","1.6","2023-07-29T10:35:00","120","2023/07/29","10:35:00","-15.79560399055481","35.002760333009064","0.8","11","300","64","97","-292","-27224","-552","5","150","149.96","115.92","34.04","27.55","38.5","12.14","90592","28.00","DUALSPOT-UV-BLUE-GREEN-RED-IR","544699","605164","908775","30.585656","13.170860","0.018514","685842","812282","838481","21.373194","8.511857","0.022811","695202","804149","832696","18.494942","7.074424","0.024363","739208","822268","890876","15.183977","5.570285","0.026005","681321","861669","965243","10.898407","3.457547","0.022910","2123","3702","4896","2002","3149","3908","1968","2965","3583","1977","2794","3267","2002","2457","2669","DualSpot on"
"MA200-0420","46398","75","1","1.10","1.6","2023-07-29T10:40:00","120","2023/07/29","10:40:00","-15.795585334300995","35.00277483300306","0.0","11","300","64","97","-228","-27091","-260","5","150","150.08","115.73","34.36","27.75","38.4","12.31","90600","28.38","DUALSPOT-UV-BLUE-GREEN-RED-IR","539638","600877","904559","31.059120","13.421272","0.018646","685229","813113","840757","21.730258","8.681293","0.022968","694287","804465","834221","18.808862","7.216268","0.024379","738389","822597","892227","15.446987","5.684156","0.027212","680512","861704","965971","11.094368","3.530645","0.024638","2403","4280","5709","2287","3655","4566","2252","3427","4159","2280","3325","3933","2365","2972","3255","DualSpot on"
"MA200-0420","46399","75","1","1.10","1.6","2023-07-29T10:45:00","120","2023/07/29","10:45:00","-15.795551061630249","35.00273483293131","0.3","11","300","64","98","-380","-27003","-800","5","150","149.77","115.42","34.35","27.97","37.8","12.26","90596","28.63","DUALSPOT-UV-BLUE-GREEN-RED-IR","538272","600539","906106","31.478348","13.643524","0.018416","679016","807057","835758","22.046018","8.833126","0.022988","692710","803869","834651","19.090328","7.344971","0.024402","737702","822897","893476","15.681145","5.786261","0.027066","679052","860840","965625","11.269012","3.593285","0.020551","2133","3800","5075","2028","3276","4111","2024","3110","3790","2035","2982","3536","2113","2547","2750","DualSpot on"
"MA200-0420","46400","75","1","1.10","1.6","2023-07-29T10:50:00","120","2023/07/29","10:50:00","-15.795607924461365","35.00275883311406","0.2","11","300","64","98","-270","-27070","-666","5","150","150.46","115.46","35.00","28.24","38.1","12.60","90584","29.13","DUALSPOT-UV-BLUE-GREEN-RED-IR","537256","600810","908779","31.957366","13.893757","0.017567","678727","808176","838292","22.394026","8.994415","0.020956","692151","804620","836545","19.392670","7.476838","0.021489","732660","818465","889597","15.932148","5.891775","0.023877","678497","861217","966665","11.458412","3.658681","0.014816","2436","4199","5555","2234","3416","4210","2173","3128","3727","2181","3024","3520","2291","2610","2760","DualSpot on"
"MA200-0420","46401","75","1","1.10","1.6","2023-07-29T10:55:00","120","2023/07/29","10:55:00","-15.795620203018188","35.00281549943611","0.3","11","300","64","98","-364","-27156","-204","5","150","150.28","115.28","34.99","28.67","38.1","13.00","90564","29.69","DUALSPOT-UV-BLUE-GREEN-RED-IR","533087","597416","905988","32.437728","14.151760","0.017793","674408","804579","835995","22.755740","9.166604","0.021428","687188","800246","833231","19.715898","7.622209","0.022310","732749","819820","892112","16.203402","6.007852","0.024341","677484","861116","967254","11.671371","3.731606","0.013580","2447","4330","5787","2325","3647","4539","2327","3449","4155","2360","3328","3898","2580","2911","3066","DualSpot on"
"MA200-0420","46402","75","1","1.10","1.6","2023-07-29T11:00:00","120","2023/07/29","11:00:00","-15.795646011829376","35.00279949954711","0.0","11","300","64","98","-212","-27072","-1924","5","150","150.02","115.48","34.54","29.12","36.8","12.86","90568","30.13","DUALSPOT-UV-BLUE-GREEN-RED-IR","532261","597420","907600","32.770302","14.332561","0.018079","673553","804540","836959","23.006386","9.291692","0.022982","686139","799950","833760","19.937254","7.726298","0.024230","731850","819680","892740","16.394402","6.095020","0.027799","675138","859050","965459","11.833656","3.784404","0.009671","1691","3074","4150","1609","2685","3414","1591","2502","3078","1659","2532","3048","1963","2135","2216","DualSpot on"
"MA200-0420","46403","75","1","1.10","1.6","2023-07-29T11:05:00","120","2023/07/29","11:05:00","-15.795633256435394","35.002756332745776","0.1","11","300","64","97","-332","-27119","136","5","150","150.02","115.24","34.79","29.53","35.7","12.77","90580","30.56","DUALSPOT-UV-BLUE-GREEN-RED-IR","530895","596544","907448","33.011166","14.464622","0.017943","671904","803321","836495","23.195696","9.386694","0.022705","684355","798603","832992","20.106366","7.805622","0.023632","729758","818000","891473","16.539953","6.160969","0.026839","672594","856519","962998","11.958881","3.824404","0.006585","1227","2229","3011","1217","2024","2572","1218","1893","2321","1267","1902","2278","1518","1606","1647","DualSpot on"
"MA200-0420","46404","75","1","1.10","1.6","2023-07-29T11:10:00","120","2023/07/29","11:10:00","-15.795595824718475","35.00279899965972","0.0","12","300","64","98","-237","-27183","-454","5","150","149.69","115.09","34.60","29.90","35.2","12.86","90576","30.94","DUALSPOT-UV-BLUE-GREEN-RED-IR","527837","593767","904396","33.250408","14.592930","0.017525","672721","805123","839133","23.385800","9.476755","0.021030","685381","800587","835686","20.276622","7.879846","0.020906","726465","814961","888723","16.684645","6.223360","0.024519","672822","857559","964523","12.079899","3.863346","0.007741","1221","2177","2926","1224","1929","2409","1228","1780","2131","1261","1808","2134","1468","1572","1620","DualSpot on"
"MA200-0420","46405","75","1","1.10","1.6","2023-07-29T11:15:00","120","2023/07/29","11:15:00","-15.795730292797089","35.002691166009754","0.1","12","300","64","97","-284","-27100","-472","5","150","150.08","114.93","35.15","30.23","34.8","12.96","90564","31.19","DUALSPOT-UV-BLUE-GREEN-RED-IR","526948","593740","906012","33.592344","14.771591","0.016621","672045","805465","840587","23.652000","9.604259","0.020630","680223","795579","831410","20.514982","7.987915","0.021510","725322","814595","889139","16.886000","6.310443","0.023566","670957","856132","963448","12.244617","3.917222","0.007555","1747","2985","3956","1717","2688","3353","1721","2552","3081","1757","2485","2919","2002","2140","2206","DualSpot on"
"MA200-0420","46406","75","1","1.10","1.6","2023-07-29T11:20:00","120","2023/07/29","11:20:00","-15.79578584432602","35.00270083290525","0.1","12","300","64","97","-264","-27175","-640","5","150","150.02","115.05","34.97","30.35","33.3","12.42","90560","30.94","DUALSPOT-UV-BLUE-GREEN-RED-IR","522851","590451","903438","34.091268","15.045116","0.017304","667597","801440","837892","24.000422","9.785814","0.022779","680238","796803","833916","20.817754","8.139520","0.024750","720735","810515","885708","17.137926","6.430618","0.027821","671347","857629","965861","12.437134","3.992309","0.023663","2547","4594","6211","2245","3848","4952","2184","3599","4507","2196","3447","4199","2337","2999","3312","DualSpot on"
"MA200-0420","46407","75","1","1.10","1.6","2023-07-29T11:25:00","120","2023/07/29","11:25:00","-15.79562658071518","35.00278799957596","0.0","12","300","64","97","-256","-27080","-648","5","150","149.84","114.59","35.24","30.23","32.7","12.03","90564","30.69","DUALSPOT-UV-BLUE-GREEN-RED-IR","522113","590477","905107","34.419276","15.226254","0.017082","667548","802343","839886","24.248064","9.912841","0.021876","679184","796456","834448","21.036916","8.246498","0.023354","719791","810245","886172","17.321740","6.515508","0.025733","671141","858017","966822","12.567162","4.045593","0.026180","1681","3018","4080","1602","2672","3411","1587","2520","3121","1609","2416","2903","1585","2112","2362","DualSpot on"
