"Serial number","Datum ID","Session ID","Data format version","Firmware version","App version","Date / time local","Timezone offset (mins)","Date local (yyyy/MM/dd)","Time local (hh:mm:ss)","GPS lat (ddmm.mmmmm)","GPS long (dddmm.mmmmm)","GPS speed (km/h)","GPS sat count","Timebase (s)","Status","Battery remaining (%)","Accel X","Accel Y","Accel Z","Tape position","Flow setpoint (mL/min)","Flow total (mL/min)","Flow1 (mL/min)","Flow2 (mL/min)","Sample temp (C)","Sample RH (%)","Sample dewpoint (C)","Internal pressure (Pa)","Internal temp (C)","Optical config","UV Sen1","UV Sen2","UV Ref","UV ATN1","UV ATN2","UV K","Blue Sen1","Blue Sen2","Blue Ref","Blue ATN1","Blue ATN2","Blue K","Green Sen1","Green Sen2","Green Ref","Green ATN1","Green ATN2","Green K","Red Sen1","Red Sen2","Red Ref","Red ATN1","Red ATN2","Red K","IR Sen1","IR Sen2","IR Ref","IR ATN1","IR ATN2","IR K","UV BC1","UV BC2","UV BCc","Blue BC1","Blue BC2","Blue BCc","Green BC1","Green BC2","Green BCc","Red BC1","Red BC2","Red BCc","IR BC1","IR BC2","IR BCc","Readable status"
"MA200-0420","50972","80","1","1.10","1.6","2023-08-14T14:40:06","120","2023/08/14","14:40:06","-15.795618891716003","35.00271216640249","0.4","13","300","66","97","-612","-27062","375","1","150","149.56","116.19","33.37","30.35","44.2","16.80","90212","30.75","DUALSPOT-UV-BLUE-GREEN-RED-IR","787848","691693","897867","0.000000","0.000000","0.000000","955018","956918","902183","0.000000","0.000000","0.000000","910824","911354","873895","0.000000","0.000000","0.000000","931632","919518","937345","0.000000","0.000000","0.000000","769495","893832","963133","0.000000","0.000000","0.000000","","","","","","","","","","","","","","","","Start up-DualSpot on"
"MA200-0420","50973","80","1","1.10","1.6","2023-08-14T14:45:06","120","2023/08/14","14:45:06","-15.795694053173065","35.00273466622457","0.1","13","300","66","97","-720","-27120","275","1","150","150.15","115.20","34.94","30.23","41.6","15.75","90212","30.50","DUALSPOT-UV-BLUE-GREEN-RED-IR","787751","696360","907428","0.000000","0.000000","0.000000","882912","888434","840064","0.000000","0.000000","0.000000","881235","884818","850647","0.000000","0.000000","0.000000","880630","871542","890356","0.000000","0.000000","0.000000","769156","895410","965690","0.000000","0.000000","0.000000","","","","","","","","","","","","","","","","Start up-DualSpot on"
"MA200-0420","50974","80","1","1.10","1.6","2023-08-14T14:50:06","120","2023/08/14","14:50:06","-15.795636534690857","35.00275799958035","0.1","14","300","64","97","-628","-27056","400","1","150","149.90","115.84","34.06","30.08","40.5","15.20","90216","30.31","DUALSPOT-UV-BLUE-GREEN-RED-IR","777797","692961","906787","0.000000","0.000000","0.000000","875185","885072","839228","0.000000","0.000000","0.000000","855529","862587","831232","0.000000","0.000000","0.000000","874854","868655","888992","0.000000","0.000000","0.000000","767187","894828","965991","0.000000","0.000000","0.000000","","","","","","","","","","","","","","","","DualSpot on"
"MA200-0420","50975","80","1","1.10","1.6","2023-08-14T14:55:06","120","2023/08/14","14:55:06","-15.79564779996872","35.002742499578744","0.3","13","300","64","97","-675","-27020","333","1","150","149.89","118.21","31.68","30.05","40.2","15.05","90216","30.44","DUALSPOT-UV-BLUE-GREEN-RED-IR","768676","691024","908686","1.391943","0.490266","0.000000","863115","877882","834913","0.875669","0.301826","0.000000","850359","861482","832214","0.725317","0.247633","0.000000","872179","869183","891209","0.557378","0.188212","0.000000","766158","895619","967871","0.328519","0.106366","0.000000","6916","9089","6916","5491","7062","5491","5094","6489","5094","4730","5960","4730","3882","4690","3882","DualSpot on"
"MA200-0420","50976","80","1","1.10","1.6","2023-08-14T15:00:06","120","2023/08/14","15:00:06","-15.795667827129364","35.00278466637246","0.1","14","300","64","97","-616","-27179","270","1","150","149.65","118.14","31.50","30.27","40.5","15.34","90212","30.94","DUALSPOT-UV-BLUE-GREEN-RED-IR","757416","686848","907621","2.755182","0.982387","0.000000","861045","880778","840183","1.744473","0.602299","0.000000","843015","858141","831033","1.449602","0.492823","0.000000","864999","865259","888857","1.120526","0.377686","0.000000","761467","892265","965315","0.676155","0.215734","0.000000","6777","9175","6777","5451","7070","5451","5089","6461","5089","4782","6033","4782","4110","4849","4110","DualSpot on"
"MA200-0420","50977","80","1","1.10","1.6","2023-08-14T15:05:06","120","2023/08/14","15:05:06","-15.795638859272003","35.00280899950303","0.2","14","300","64","97","-625","-27054","-145","1","150","149.82","117.85","31.97","30.61","40.0","15.46","90216","31.25","DUALSPOT-UV-BLUE-GREEN-RED-IR","751100","684969","908173","3.660083","1.319707","0.100849","854927","878094","839539","2.387333","0.829958","0.000000","838206","856289","830837","2.001714","0.684607","0.000000","860719","863509","888355","1.562973","0.526613","0.000000","758018","890016","963721","0.967454","0.302826","0.000000","4509","6197","7148","4043","5278","4043","3889","4980","3889","3766","4673","3766","3452","3805","3452","DualSpot on"
"MA200-0420","50978","80","1","1.10","1.6","2023-08-14T15:10:06","120","2023/08/14","15:10:06","-15.7956183552742","35.00283116614446","0.1","14","300","64","98","-729","-27079","-200","1","150","149.87","117.61","32.26","30.72","39.2","15.25","90216","31.19","DUALSPOT-UV-BLUE-GREEN-RED-IR","744052","682299","907662","4.540329","1.646596","0.078621","849376","875977","839404","3.017074","1.055967","0.106642","833697","854696","830850","2.539765","0.874024","0.000000","857500","862738","888878","1.994990","0.676191","0.000000","755455","888721","963146","1.244710","0.387436","0.000000","4395","5951","6836","3969","5193","5852","3798","4874","3798","3685","4651","3685","3293","3663","3293","DualSpot on"
"MA200-0420","50979","80","1","1.10","1.6","2023-08-14T15:15:06","120","2023/08/14","15:15:06","-15.795626044273376","35.00278583285399","0.1","14","300","64","97","-728","-27116","380","1","150","150.02","117.73","32.28","30.74","38.6","15.02","90212","31.13","DUALSPOT-UV-BLUE-GREEN-RED-IR","734661","677998","905383","5.558944","2.033199","0.067847","841542","871780","837557","3.724998","1.314777","0.091254","831807","856063","833986","3.143573","1.090622","0.101981","850680","858547","886062","2.476015","0.844212","0.000000","755765","890939","966450","1.550628","0.484349","0.000000","5081","7033","8159","4457","5942","6753","4257","5570","6267","4099","5221","4099","3629","4193","3629","DualSpot on"
"MA200-0420","50980","80","1","1.10","1.6","2023-08-14T15:20:06","120","2023/08/14","15:20:06","-15.795753300189972","35.002742499578744","0.1","14","300","64","97","-692","-27103","112","1","150","149.81","117.86","31.95","30.70","38.1","14.81","90212","31.06","DUALSPOT-UV-BLUE-GREEN-RED-IR","731078","678559","909391","6.489576","2.392980","0.062116","833714","867267","835268","4.384510","1.559382","0.082960","824393","851492","831273","3.710231","1.296800","0.092945","849359","859698","888695","2.927394","1.004173","0.000000","751091","887148","963249","1.835565","0.577706","0.000000","4637","6615","7769","4148","5676","6519","3991","5358","6092","3842","5023","3842","3377","4082","3377","DualSpot on"
"MA200-0420","50981","80","1","1.10","1.6","2023-08-14T15:25:06","120","2023/08/14","15:25:06","-15.795636355876923","35.002755832858384","0.5","13","300","64","97","-779","-27004","-50","1","150","150.71","117.35","33.36","30.70","38.1","14.80","90212","31.06","DUALSPOT-UV-BLUE-GREEN-RED-IR","725153","677060","910942","7.474252","2.779741","0.050585","828741","865888","836097","5.080521","1.816898","0.062895","820926","851143","832720","4.309749","1.515168","0.070226","847965","860971","891527","3.408423","1.172944","0.077231","750538","888324","965503","2.142835","0.677977","0.000000","4928","6810","7924","4396","5723","6461","4241","5435","6082","4112","5076","5581","3657","4199","3657","DualSpot on"
"MA200-0420","50982","80","1","1.10","1.6","2023-08-14T15:30:06","120","2023/08/14","15:30:06","-15.795595705509186","35.002789332997054","0.1","13","300","64","97","-737","-27045","87","1","150","150.67","117.30","33.37","30.69","38.0","14.73","90216","31.06","DUALSPOT-UV-BLUE-GREEN-RED-IR","715898","673084","909746","8.626461","3.237194","0.044942","820840","861943","834822","5.886253","2.119744","0.056776","814995","848735","832480","5.004266","1.769995","0.061853","842882","858908","891176","3.969088","1.373161","0.070726","747844","887313","965560","2.505035","0.796742","0.000000","5769","8051","9422","5092","6727","7648","4915","6340","7119","4795","6019","6667","4313","4971","4313","DualSpot on"
"MA200-0420","50983","80","1","1.10","1.6","2023-08-14T15:35:06","120","2023/08/14","15:35:06","-15.795547485351562","35.002818666165695","0.1","13","300","64","97","-654","-27004","-29","1","150","149.95","117.61","32.34","30.61","37.7","14.54","90228","30.88","DUALSPOT-UV-BLUE-GREEN-RED-IR","705195","667118","905454","9.663115","3.657995","0.044905","817312","862166","837444","6.635962","2.410448","0.059050","811234","848210","834044","5.654573","2.016645","0.065611","833810","852516","886247","4.497093","1.566333","0.074843","746652","887874","967289","2.846033","0.911973","0.000000","5177","7643","9145","4725","6664","7770","4590","6332","7298","4504","5993","6789","4050","4977","4050","DualSpot on"
"MA200-0420","50984","80","1","1.10","1.6","2023-08-14T15:40:06","120","2023/08/14","15:40:06","-15.795595169067383","35.002776499604806","0.2","13","300","64","97","-640","-27036","-56","1","150","150.65","117.39","33.26","30.45","37.4","14.27","90232","30.63","DUALSPOT-UV-BLUE-GREEN-RED-IR","698842","664769","905799","10.603558","4.048021","0.040433","812760","860939","838517","7.318593","2.681279","0.052919","806929","846738","834520","6.243829","2.246189","0.059167","830510","851676","886908","4.971303","1.742424","0.065105","741030","882897","962860","3.141639","1.014114","0.077977","4705","6888","8236","4310","6037","7035","4167","5730","6608","4052","5312","5992","3517","4290","4659","DualSpot on"
"MA200-0420","50985","80","1","1.10","1.6","2023-08-14T15:45:06","120","2023/08/14","15:45:06","-15.795550346374512","35.00279499986209","0.1","13","300","64","98","-566","-27116","395","1","150","150.02","117.50","32.52","30.25","37.4","14.10","90232","30.38","DUALSPOT-UV-BLUE-GREEN-RED-IR","691134","661961","906358","11.772509","4.531360","0.037835","806441","858712","839134","8.173179","3.016341","0.048662","800616","844031","834230","6.990824","2.532833","0.053981","825059","849389","886516","5.582323","1.967124","0.060316","738452","882146","963354","3.540378","1.153638","0.079553","5843","8729","10536","5391","7638","8952","5278","7317","8477","5217","6932","7865","4740","5993","6599","DualSpot on"
"MA200-0420","50986","80","1","1.10","1.6","2023-08-14T15:50:06","120","2023/08/14","15:50:06","-15.795640289783478","35.00273966626264","0.0","13","300","64","97","-624","-27132","368","1","150","150.15","117.07","33.07","30.09","37.5","14.01","90240","30.25","DUALSPOT-UV-BLUE-GREEN-RED-IR","684442","659713","907503","12.869932","4.994718","0.034732","800789","856810","839943","8.973262","3.334415","0.043825","792349","838834","831345","7.687733","2.804386","0.048635","822709","849973","889026","6.150490","2.180334","0.054823","738216","883954","966575","3.907419","1.279318","0.061358","5505","8229","9956","5066","7129","8349","4942","6816","7893","4868","6467","7345","4379","5308","5760","DualSpot on"
"MA200-0420","50987","80","1","1.10","1.6","2023-08-14T15:55:06","120","2023/08/14","15:55:06","-15.795609474182129","35.00279516656883","0.2","13","300","64","98","-658","-27000","29","1","150","149.60","117.36","32.24","29.96","37.6","13.94","90236","30.13","DUALSPOT-UV-BLUE-GREEN-RED-IR","679318","658704","910162","13.916834","5.443603","0.034458","790663","849831","835673","9.732822","3.638792","0.043454","789334","839043","833673","8.345740","3.060704","0.047654","821867","851914","892842","6.686336","2.380070","0.053340","733730","880548","963998","4.251308","1.398056","0.065135","5239","8178","10066","4797","6999","8314","4654","6601","7728","4580","6216","7120","4093","5145","5660","DualSpot on"
"MA200-0420","50988","80","1","1.10","1.6","2023-08-14T16:00:06","120","2023/08/14","16:00:06","-15.795648336410522","35.00273699965328","0.1","14","300","64","98","-628","-27163","596","1","150","150.47","117.42","33.06","29.86","37.7","13.87","90228","30.06","DUALSPOT-UV-BLUE-GREEN-RED-IR","670046","653475","906964","14.942474","5.890632","0.031791","788350","851161","839577","10.491113","3.948837","0.040073","782299","834882","831748","9.008496","3.324252","0.043880","814974","847685","890220","7.229784","2.585439","0.048083","730122","878246","962702","4.607893","1.524983","0.061463","5130","7943","9773","4787","6953","8260","4686","6619","7749","4643","6233","7117","4242","5363","5918","DualSpot on"
"MA200-0420","50989","80","1","1.10","1.6","2023-08-14T16:05:06","120","2023/08/14","16:05:06","-15.7955601811409","35.002814499428496","0.0","14","300","64","98","-637","-27158","295","1","150","149.67","117.24","32.43","29.76","37.6","13.77","90224","29.94","DUALSPOT-UV-BLUE-GREEN-RED-IR","666286","653329","910721","15.915503","6.321094","0.031324","780034","845759","836692","11.210246","4.243344","0.038897","775172","830393","829325","9.637640","3.575062","0.042774","808060","843157","887209","7.744577","2.781207","0.047648","729915","879935","965657","4.943973","1.642587","0.057473","4874","7796","9721","4547","6732","8063","4455","6420","7580","4405","6056","6981","4004","5065","5594","DualSpot on"
"MA200-0420","50990","80","1","1.10","1.6","2023-08-14T16:10:06","120","2023/08/14","16:10:06","-15.795551061630249","35.00285016652197","0.1","15","300","64","97","-695","-26958","370","1","150","150.15","117.10","33.05","29.65","37.8","13.72","90220","29.81","DUALSPOT-UV-BLUE-GREEN-RED-IR","655914","647209","906610","17.029294","6.812538","0.028442","775748","845306","839146","12.048252","4.587460","0.035159","771558","830228","831636","10.374812","3.869212","0.038328","805250","843441","889565","8.356031","3.013147","0.041873","724704","876003","962708","5.355753","1.784892","0.047046","5586","8734","10834","5305","7719","9204","5226","7389","8676","5238","7041","8058","4912","6015","6566","DualSpot on"
"MA200-0420","50991","80","1","1.10","1.6","2023-08-14T16:15:06","120","2023/08/14","16:15:06","-15.795585691928864","35.00277799973264","0.0","15","300","64","98","-683","-27050","50","1","150","149.95","117.10","32.85","29.53","37.8","13.65","90216","29.69","DUALSPOT-UV-BLUE-GREEN-RED-IR","651066","646273","909911","18.139942","7.320080","0.028294","767027","839677","836463","12.862165","4.933048","0.035332","768014","829895","833678","11.086751","4.160250","0.038114","803388","844472","892730","8.945601","3.243457","0.042600","724194","877606","965840","5.750595","1.926255","0.051029","5570","9074","11444","5152","7798","9444","5047","7355","8741","5051","7033","8161","4710","6011","6666","DualSpot on"
"MA200-0420","50992","80","1","1.10","1.6","2023-08-14T16:20:06","120","2023/08/14","16:20:06","-15.795634686946869","35.00275949970819","0.1","16","300","64","97","-752","-27000","172","1","150","150.35","117.07","33.28","29.35","38.0","13.55","90224","29.44","DUALSPOT-UV-BLUE-GREEN-RED-IR","644079","642874","909546","19.176064","7.802250","0.027008","761125","836839","836373","13.623499","5.260408","0.033406","763392","828085","834201","11.752630","4.438447","0.036603","799310","843010","893096","9.494535","3.459624","0.039757","722428","877513","967016","6.112364","2.058231","0.048982","5198","8510","10782","4820","7292","8847","4722","6940","8286","4704","6517","7556","4316","5540","6161","DualSpot on"
"MA200-0420","50993","80","1","1.10","1.6","2023-08-14T16:25:06","120","2023/08/14","16:25:06","-15.795611321926117","35.00279766647145","0.1","16","300","64","98","-729","-27045","104","1","150","150.02","117.53","32.48","29.19","38.2","13.51","90232","29.25","DUALSPOT-UV-BLUE-GREEN-RED-IR","634127","636395","904634","20.195740","8.280254","0.026803","757227","836079","838316","14.368912","5.585529","0.033831","755140","822242","830576","12.405023","4.714904","0.037281","790676","836578","888213","10.031367","3.676336","0.041973","717663","873621","963998","6.462927","2.188011","0.052488","5095","8643","11109","4701","7420","9149","4608","7066","8573","4582","6693","7914","4166","5581","6305","DualSpot on"
"MA200-0420","50994","80","1","1.10","1.6","2023-08-14T16:30:06","120","2023/08/14","16:30:06","-15.795643031597137","35.00280033308081","0.1","16","300","64","98","-725","-27000","387","1","150","150.40","117.12","33.27","29.04","38.5","13.47","90228","29.13","DUALSPOT-UV-BLUE-GREEN-RED-IR","629086","634898","906969","21.250694","8.774899","0.024736","752757","834852","839954","15.157728","5.929239","0.030823","751996","822060","832889","13.097444","5.008212","0.033822","788517","837144","890831","10.601622","3.904705","0.037112","716913","874793","966611","6.843057","2.327617","0.044919","5290","8732","11153","4992","7658","9370","4908","7318","8811","4884","6886","8053","4533","5861","6545","DualSpot on"
"MA200-0420","50995","80","1","1.10","1.6","2023-08-14T16:35:06","120","2023/08/14","16:35:06","-15.795669972896576","35.00276616611518","0.2","15","300","64","97","-688","-27008","288","1","150","149.56","117.42","32.14","28.90","38.6","13.40","90232","29.00","DUALSPOT-UV-BLUE-GREEN-RED-IR","623628","633476","910148","22.460418","9.340984","0.024416","742756","828123","836585","16.085855","6.333389","0.030676","743601","816761","830390","13.915678","5.354408","0.033772","779508","830989","886750","11.283732","4.180625","0.038231","712096","871497","964631","7.306114","2.500530","0.048761","6051","10343","13399","5859","9320","11568","5785","8941","10915","5828","8611","10250","5509","7514","8558","DualSpot on"
"MA200-0420","50996","80","1","1.10","1.6","2023-08-14T16:40:06","120","2023/08/14","16:40:06","-15.79559987783432","35.00278449966572","0.0","15","300","64","97","-600","-27020","641","1","150","150.41","117.38","33.03","28.79","38.8","13.39","90228","28.94","DUALSPOT-UV-BLUE-GREEN-RED-IR","612951","626975","906404","23.780468","9.962593","0.022573","738065","827566","839722","17.098824","6.775154","0.027873","739283","816242","833016","14.813452","5.733577","0.030356","777815","832905","891458","12.032362","4.482055","0.033832","707074","868116","962766","7.820345","2.691853","0.042122","6605","11053","14260","6397","9914","12223","6350","9530","11538","6398","9155","10792","6120","8091","9126","DualSpot on"
"MA200-0420","50997","80","1","1.10","1.6","2023-08-14T16:45:06","120","2023/08/14","16:45:06","-15.795609056949615","35.00276466622017","0.0","15","300","64","97","-608","-26954","237","1","150","150.52","117.16","33.36","28.70","38.9","13.32","90228","28.75","DUALSPOT-UV-BLUE-GREEN-RED-IR","606251","623852","907120","24.960118","10.539917","0.022213","731156","823957","839527","18.016290","7.192302","0.027663","734045","814144","833850","15.629251","6.092968","0.030253","767285","824880","885412","12.718997","4.769592","0.033779","704772","867856","964240","8.297125","2.874509","0.041684","5913","10165","13272","5805","9270","11572","5780","8944","10965","5879","8647","10308","5684","7649","8690","DualSpot on"
"MA200-0420","50998","80","1","1.10","1.6","2023-08-14T16:50:06","120","2023/08/14","16:50:06","-15.79564768075943","35.00274749961682","0.0","14","300","64","97","-658","-26933","216","1","150","149.56","117.14","32.42","28.56","39.1","13.29","90224","28.63","DUALSPOT-UV-BLUE-GREEN-RED-IR","597222","618526","904889","26.212406","11.153744","0.021861","722873","819016","838255","18.999394","7.639009","0.027247","726408","809685","832497","16.508539","6.479439","0.029795","766494","827622","891134","13.462557","5.080223","0.033426","700795","865737","963785","8.816343","3.072960","0.041854","6279","11120","14706","6221","10214","12899","6231","9896","12264","6368","9612","11578","6191","8550","9812","DualSpot on"
"MA200-0420","50999","80","1","1.10","1.6","2023-08-14T16:55:06","120","2023/08/14","16:55:06","-15.79572194814682","35.00269516627304","0.1","14","300","64","97","-812","-26952","208","1","150","150.41","117.34","33.07","28.41","39.2","13.19","90212","28.44","DUALSPOT-UV-BLUE-GREEN-RED-IR","590757","615695","906446","27.475646","11.784599","0.020919","717275","816919","839911","19.979508","8.093604","0.026050","721531","808126","834167","17.384866","6.872662","0.028459","762589","826873","893164","14.202021","5.396316","0.032006","698805","866003","966020","9.335289","3.276113","0.040142","6323","11204","14870","6192","10190","12913","6200","9871","12272","6322","9589","11591","6178","8581","9881","DualSpot on"
"MA200-0420","51000","80","1","1.10","1.6","2023-08-14T17:00:06","120","2023/08/14","17:00:06","-15.795683860778809","35.002718166215345","0.2","14","300","64","97","-692","-26996","220","1","150","150.15","117.06","33.09","28.24","39.4","13.12","90212","28.25","DUALSPOT-UV-BLUE-GREEN-RED-IR","582928","611952","907555","28.921258","12.513958","0.020072","710110","813624","840910","21.093800","8.613675","0.024842","711184","800902","830445","18.379514","7.321190","0.027063","751526","818845","887696","15.045895","5.756109","0.030016","691919","860621","962249","9.929638","3.506838","0.036864","7253","12947","17291","7056","11652","14825","7054","11254","14036","7232","10910","13188","7092","9741","11188","DualSpot on"
"MA200-0420","51001","80","1","1.10","1.6","2023-08-14T17:05:06","120","2023/08/14","17:05:06","-15.795682311058044","35.00267933309078","0.3","14","300","64","97","-700","-27012","408","1","150","150.41","117.02","33.39","28.06","39.6","13.02","90220","28.06","DUALSPOT-UV-BLUE-GREEN-RED-IR","573672","607341","909001","30.676578","13.423988","0.019309","695530","803127","836037","22.579876","9.326446","0.023789","702610","797159","831861","19.746234","7.955331","0.025926","743834","816020","889314","16.243729","6.282558","0.028841","687196","859304","964176","10.809334","3.857665","0.035358","8810","16010","21612","9414","15826","20339","9696","15769","19867","10269","15820","19321","10501","14679","16997","DualSpot on"
"MA200-0420","51002","80","1","1.10","1.6","2023-08-14T17:10:06","120","2023/08/14","17:10:06","-15.795635342597961","35.002740499563515","0.0","14","300","64","97","-700","-27080","20","1","150","150.46","117.20","33.26","27.91","39.7","12.96","90228","27.88","DUALSPOT-UV-BLUE-GREEN-RED-IR","564592","602778","910657","32.461162","14.362297","0.018628","686021","798478","837416","24.124092","10.073705","0.022703","693781","793141","833195","21.177686","8.620926","0.024484","736233","813387","891395","17.514472","6.840981","0.027048","682641","858528","967021","11.767303","4.239101","0.032850","8943","16571","22623","9767","16656","21595","10140","16615","21060","10878","16845","20670","11418","16021","18613","DualSpot on"
"MA200-0420","51003","80","1","1.10","1.6","2023-08-14T17:15:06","120","2023/08/14","17:15:06","-15.79564917087555","35.00273983273655","0.1","14","300","64","97","-840","-26840","-220","1","150","150.08","116.98","33.10","27.76","39.9","12.91","90236","27.81","DUALSPOT-UV-BLUE-GREEN-RED-IR","551095","593596","906083","34.369728","15.387493","0.018019","676930","794434","840049","25.771074","10.892649","0.022018","680981","784676","830343","22.700776","9.352048","0.023886","722941","804606","887221","18.862358","7.454340","0.026583","673584","852221","963924","12.783497","4.655562","0.032352","9582","18192","25171","10437","18341","24128","10809","18338","23613","11559","18591","23185","12135","17576","20693","DualSpot on"
"MA200-0420","51004","80","1","1.10","1.6","2023-08-14T17:20:06","120","2023/08/14","17:20:06","-15.795597970485687","35.002783166011795","0.0","14","300","64","97","-676","-26991","404","1","150","149.73","116.94","32.79","27.60","40.1","12.82","90236","27.63","DUALSPOT-UV-BLUE-GREEN-RED-IR","541158","587667","906093","36.196616","16.397644","0.017679","666495","788238","840185","27.345478","11.695395","0.021521","671446","779470","830782","24.161796","10.069839","0.023312","713999","800205","887674","20.160604","8.054398","0.025754","668068","850175","965565","13.777866","5.068134","0.031317","9176","18095","25483","9980","18150","24254","10372","18175","23751","11138","18361","23166","11878","17578","20894","DualSpot on"
"MA200-0420","51005","80","1","1.10","1.6","2023-08-14T17:25:06","120","2023/08/14","17:25:06","-15.795664131641388","35.00270733283833","0.1","14","300","64","97","-784","-27047","44","1","150","150.08","117.16","32.92","27.44","40.2","12.73","90240","27.44","DUALSPOT-UV-BLUE-GREEN-RED-IR","533204","583309","907811","37.866292","17.332416","0.017077","653037","777760","835215","28.794750","12.441663","0.020645","662994","774914","831469","25.511304","10.736866","0.022233","706397","796797","888876","21.367242","8.616000","0.024513","658637","842808","960845","14.708057","5.448663","0.028554","8370","16677","23688","9170","16804","22612","9562","16820","22095","10332","17114","21696","11090","16146","19121","DualSpot on"
"MA200-0420","51006","80","1","1.10","1.6","2023-08-14T17:30:06","120","2023/08/14","17:30:06","-15.79572194814682","35.002756166271865","0.2","14","300","64","98","-684","-27053","161","1","150","150.33","116.94","33.40","27.28","40.3","12.63","90240","27.25","DUALSPOT-UV-BLUE-GREEN-RED-IR","523620","576453","904818","39.357916","18.187618","0.016564","647303","775698","838790","30.100564","13.131968","0.019983","656957","772487","834002","26.730270","11.355840","0.021508","696329","789933","885810","22.460098","9.136523","0.023576","656053","843582","965124","15.551270","5.804212","0.027767","7492","15040","21524","8278","15322","20773","8654","15386","20359","9376","15636","19929","10073","14871","17728","DualSpot on"
"MA200-0420","51007","80","1","1.10","1.6","2023-08-14T17:35:06","120","2023/08/14","17:35:06","-15.795626699924469","35.00276666646823","0.0","14","300","64","98","-616","-26941","75","1","150","149.89","116.94","32.94","27.11","40.5","12.54","90244","27.06","DUALSPOT-UV-BLUE-GREEN-RED-IR","514948","571140","905715","41.121564","19.210686","0.016179","638104","770218","839923","31.663456","13.973345","0.019576","648240","767647","835051","28.191992","12.111989","0.021088","687730","785444","886441","23.771390","9.778278","0.023391","650692","841553","967082","16.569920","6.245503","0.027958","8858","18240","26466","9907","18933","26062","10377","19056","25592","11249","19544","25339","12168","18712","22671","DualSpot on"
"MA200-0420","51008","80","1","1.10","1.6","2023-08-14T17:40:06","120","2023/08/14","17:40:06","-15.795711517333984","35.002742666285485","0.1","14","300","64","97","-840","-26891","-224","1","150","150.28","116.95","33.33","26.93","40.7","12.44","90248","26.88","DUALSPOT-UV-BLUE-GREEN-RED-IR","507130","566172","906314","42.719324","20.153218","0.015670","629470","764768","840455","33.090806","14.750393","0.018781","636749","758885","831335","29.531938","12.813663","0.020202","680555","782086","887932","24.984844","10.374340","0.022133","645796","839658","968954","17.519058","6.663653","0.026729","8024","16608","24274","9047","17281","23903","9512","17476","23580","10409","17940","23287","11337","17524","21321","DualSpot on"
"MA200-0420","51009","80","1","1.10","1.6","2023-08-14T17:45:06","120","2023/08/14","17:45:06","-15.79560101032257","35.00277866655961","0.2","14","300","64","97","-637","-27000","-433","1","150","150.02","117.22","32.80","26.79","40.9","12.39","90248","26.75","DUALSPOT-UV-BLUE-GREEN-RED-IR","499932","562073","908801","44.417544","21.148678","0.015228","616988","754798","836425","34.612396","15.578675","0.018267","628540","754216","832446","30.966522","13.564631","0.019628","673776","779386","890606","26.284926","11.016679","0.021635","637058","833168","965762","18.551754","7.111178","0.025382","8509","17827","26296","9623","18721","26168","10160","19009","25907","11127","19649","25797","12307","19061","23259","DualSpot on"
"MA200-0420","51010","80","1","1.10","1.6","2023-08-14T17:50:06","120","2023/08/14","17:50:06","-15.795646011829376","35.002767166588455","0.3","14","300","64","97","-615","-27046","250","1","150","150.28","117.24","33.04","26.65","41.0","12.32","90248","26.63","DUALSPOT-UV-BLUE-GREEN-RED-IR","488520","553332","904636","46.276232","22.260464","0.014776","609321","750873","839820","36.266888","16.504471","0.017755","617199","745887","830210","32.519188","14.404219","0.019142","661979","771033","887383","27.691376","11.735409","0.021135","628486","827042","963537","19.675244","7.617374","0.025113","9311","19762","29448","10461","20770","29379","10995","21094","29125","12035","21822","29019","13386","21399","26462","DualSpot on"
"MA200-0420","51011","80","1","1.10","1.6","2023-08-14T17:55:06","120","2023/08/14","17:55:06","-15.795556843280792","35.002874666126445","0.1","14","300","64","97","-584","-27072","483","1","150","150.01","117.03","32.98","26.51","41.2","12.25","90248","26.50","DUALSPOT-UV-BLUE-GREEN-RED-IR","481447","548978","906722","47.957552","23.277446","0.014392","596536","739948","834617","37.768176","17.350618","0.017187","610190","742241","832501","33.932984","15.169455","0.018413","655229","768011","889711","28.974006","12.387557","0.020164","623884","825631","966315","20.693982","8.074190","0.023790","8438","18113","27238","9509","19021","27103","10029","19265","26731","10995","19840","26445","12160","19351","23951","DualSpot on"
"MA200-0420","51012","80","1","1.10","1.6","2023-08-14T18:00:06","120","2023/08/14","18:00:06","-15.795756459236145","35.002753666369244","0.1","14","300","64","98","-748","-26956","-260","1","150","149.84","116.97","32.86","26.36","41.4","12.19","90244","26.31","DUALSPOT-UV-BLUE-GREEN-RED-IR","473234","543632","908684","49.893516","24.467366","0.014025","587526","734118","836256","39.486860","18.336432","0.016725","601799","737326","834404","35.550188","16.062845","0.017948","647372","764148","892029","30.442086","13.153933","0.019768","614382","818265","962899","21.874530","8.615042","0.023312","9721","21268","32379","10892","22238","32075","11478","22570","31713","12591","23397","31619","14098","22991","28769","DualSpot on"
"MA200-0420","51013","80","1","1.10","1.6","2023-08-14T18:05:06","120","2023/08/14","18:05:06","-15.795585811138153","35.0027618331369","0.0","14","300","64","97","-704","-26928","-196","1","150","149.65","116.91","32.73","26.22","41.5","12.11","90244","26.13","DUALSPOT-UV-BLUE-GREEN-RED-IR","463781","535950","904491","51.458688","25.439248","0.013732","581252","730456","838679","40.854308","19.126236","0.016315","592264","729815","831769","36.834060","16.775860","0.017475","637594","756740","888742","31.605228","13.763062","0.019194","611161","818099","966793","22.810722","9.044353","0.022529","7863","17440","26804","8670","17888","26002","9117","18086","25587","9981","18671","25374","11186","18323","23012","DualSpot on"
"MA200-0420","51014","80","1","1.10","1.6","2023-08-14T18:10:06","120","2023/08/14","18:10:06","-15.79564356803894","35.00278399977833","0.2","14","300","68","97","-537","-26841","-533","2","150","150.08","114.56","35.53","26.06","42.0","12.13","90260","26.00","DUALSPOT-UV-BLUE-GREEN-RED-IR","763271","694023","905993","0.000000","0.000000","0.000000","864920","886959","841359","0.000000","0.000000","0.000000","842861","859600","830677","0.000000","0.000000","0.000000","864881","867320","891231","0.000000","0.000000","0.000000","757844","889506","965303","0.000000","0.000000","0.000000","","","","","","","","","","","","","","","","Tape advance-DualSpot on"
"MA200-0420","51015","80","1","1.10","1.6","2023-08-14T18:15:06","120","2023/08/14","18:15:06","-15.795617878437042","35.002813833067194","0.1","15","300","68","98","-675","-26950","383","2","150","149.95","114.41","35.54","25.95","42.9","12.36","90272","25.88","DUALSPOT-UV-BLUE-GREEN-RED-IR","747673","690457","908354","0.000000","0.000000","0.000000","848358","879035","837972","0.000000","0.000000","0.000000","834514","858650","833175","0.000000","0.000000","0.000000","851411","859878","886456","0.000000","0.000000","0.000000","754930","890047","967903","0.000000","0.000000","0.000000","","","","","","","","","","","","","","","","Tape advance-DualSpot on"
"MA200-0420","51016","80","1","1.10","1.6","2023-08-14T18:20:06","120","2023/08/14","18:20:06","-15.795573830604553","35.002849499695","0.1","15","300","64","98","-620","-27183","1050","2","150","150.15","114.77","35.38","25.71","44.1","12.56","90272","25.63","DUALSPOT-UV-BLUE-GREEN-RED-IR","734929","686054","907616","1.648956","0.564167","0.000000","839201","875850","837791","1.075196","0.346815","0.000000","826373","855560","832554","0.909268","0.289350","0.000000","845759","858395","886904","0.719522","0.221807","0.000000","747733","884276","962926","0.446249","0.138127","0.000000","8438","9366","8438","6944","7267","6944","6577","6790","6577","6289","6290","6289","5431","5454","5431","DualSpot on"
"MA200-0420","51017","80","1","1.10","1.6","2023-08-14T18:25:06","120","2023/08/14","18:25:06","-15.795688211917877","35.00267433305271","0.0","15","300","64","98","-880","-26960","272","2","150","149.69","114.38","35.32","25.52","45.0","12.72","90268","25.44","DUALSPOT-UV-BLUE-GREEN-RED-IR","726656","684588","910138","3.060407","1.051048","0.049487","833104","874864","839364","1.993275","0.645196","0.000000","817101","850390","829595","1.684765","0.536972","0.000000","842902","859141","889301","1.332470","0.410712","0.000000","747080","885836","965771","0.825151","0.253947","0.000000","7248","8097","8542","5950","6263","5950","5629","5821","5629","5376","5366","5376","4627","4581","4627","DualSpot on"
"MA200-0420","51018","80","1","1.10","1.6","2023-08-14T18:30:06","120","2023/08/14","18:30:06","-15.795597970485687","35.00279349973425","0.0","14","300","64","98","-712","-27003","500","2","150","149.81","114.55","35.26","25.43","45.6","12.81","90264","25.38","DUALSPOT-UV-BLUE-GREEN-RED-IR","715582","679710","907838","4.341997","1.513433","0.048166","823968","869991","837034","2.814494","0.921762","0.000000","815007","852162","833197","2.374803","0.765526","0.000000","836702","855969","887598","1.875720","0.584683","0.000000","743999","884237","965038","1.162191","0.358697","0.000000","6571","7703","8309","5314","5815","5314","5001","5382","5001","4757","4950","4757","4110","4150","4110","DualSpot on"
"MA200-0420","51019","80","1","1.10","1.6","2023-08-14T18:35:06","120","2023/08/14","18:35:06","-15.795599281787872","35.00285349949263","0.1","14","300","64","97","-587","-26991","-70","2","150","150.08","114.89","35.19","25.28","46.1","12.86","90272","25.19","DUALSPOT-UV-BLUE-GREEN-RED-IR","707242","678019","910356","5.785679","2.038318","0.038707","817713","868930","838762","3.779236","1.250034","0.037594","805914","847272","830720","3.195970","1.037544","0.033659","833872","856919","890463","2.534287","0.795702","0.000000","742989","885594","967778","1.582490","0.492644","0.000000","7380","8760","9510","6225","6915","7255","5934","6417","6649","5751","6015","5751","5110","5316","5110","DualSpot on"
"MA200-0420","51020","80","1","1.10","1.6","2023-08-14T18:40:06","120","2023/08/14","18:40:06","-15.795599102973938","35.00283099967055","0.1","14","300","64","98","-796","-26956","316","2","150","150.41","115.13","35.28","25.10","46.7","12.90","90284","25.06","DUALSPOT-UV-BLUE-GREEN-RED-IR","689217","669200","905206","7.796835","2.778968","0.030604","801952","860519","834862","5.253737","1.756006","0.029010","796771","844937","832078","4.489723","1.473224","0.028569","825609","854629","891193","3.607212","1.144336","0.022495","734479","879773","963671","2.302438","0.722041","0.000000","10260","12330","13476","9494","10631","11202","9329","10252","10702","9350","9913","10175","8735","9082","8735","DualSpot on"
"MA200-0420","51021","80","1","1.10","1.6","2023-08-14T18:45:06","120","2023/08/14","18:45:06","-15.795615255832672","35.00278466637246","0.0","14","300","64","98","-766","-26933","-300","2","150","150.02","114.89","35.13","24.97","47.2","12.92","90284","24.88","DUALSPOT-UV-BLUE-GREEN-RED-IR","675654","664892","906975","9.979303","3.619245","0.028973","791091","857824","837180","6.892633","2.344226","0.030254","786776","842235","833604","5.939422","1.982748","0.030862","812422","847777","887683","4.820429","1.556202","0.029061","726407","874912","961044","3.137216","1.005441","0.044530","11157","14050","15695","10575","12413","13361","10476","12042","12827","10594","11763","12320","10150","11270","11798","DualSpot on"
"MA200-0420","51022","80","1","1.10","1.6","2023-08-14T18:50:06","120","2023/08/14","18:50:06","-15.795571148395538","35.00284833321348","0.3","13","300","64","98","-670","-26937","233","2","150","149.65","114.74","34.90","24.86","47.5","12.94","90284","24.81","DUALSPOT-UV-BLUE-GREEN-RED-IR","665032","662568","911033","12.005144","4.413938","0.026165","782227","856377","840243","8.386322","2.883553","0.026446","774759","836470","831783","7.255810","2.445805","0.026309","807343","848606","891905","5.920552","1.929825","0.024887","724186","876676","965353","3.890958","1.253266","0.027397","10369","13373","15119","9650","11454","12400","9524","11014","11771","9619","10739","11281","9176","9918","10271","DualSpot on"
"MA200-0420","51023","80","1","1.10","1.6","2023-08-14T18:55:06","120","2023/08/14","18:55:06","-15.795704305171967","35.002740166382864","0.3","14","300","64","98","-736","-26996","328","2","150","149.89","114.49","35.39","24.76","47.8","12.93","90300","24.75","DUALSPOT-UV-BLUE-GREEN-RED-IR","648392","654729","908267","14.247368","5.304157","0.021884","767450","848863","837757","9.999436","3.466463","0.020551","762967","831349","830778","8.674054","2.943760","0.019661","796608","843890","890480","7.107511","2.328845","0.016202","717558","873432","964368","4.712578","1.519118","0.013694","11502","14773","16713","10444","12209","13146","10284","11680","12398","10400","11311","11754","10024","10493","10716","DualSpot on"
"MA200-0420","51024","80","1","1.10","1.6","2023-08-14T19:00:06","120","2023/08/14","19:00:06","-15.795612633228302","35.00273033301346","0.3","14","300","64","98","-641","-26908","312","2","150","149.57","114.70","34.87","24.69","48.0","12.95","90300","24.69","DUALSPOT-UV-BLUE-GREEN-RED-IR","636820","649360","906971","15.902454","5.983822","0.022628","757501","844086","836711","11.177483","3.903746","0.022667","758269","831721","834239","9.705067","3.313860","0.022178","786951","838395","887270","7.963537","2.621118","0.019448","711781","869876","962257","5.300150","1.710024","0.017350","8475","11447","13239","7614","9295","10197","7462","8810","9509","7487","8408","8859","7156","7647","7880","DualSpot on"
"MA200-0420","51025","80","1","1.10","1.6","2023-08-14T19:05:06","120","2023/08/14","19:05:06","-15.795621573925018","35.002766999881715","0.1","13","300","64","98","-696","-26944","59","2","150","150.42","114.96","35.46","24.62","48.2","12.94","90308","24.63","DUALSPOT-UV-BLUE-GREEN-RED-IR","623900","641767","902220","17.433334","6.639175","0.022100","751355","842618","838651","12.227312","4.308521","0.022789","748848","826067","831358","10.616432","3.653696","0.022769","784035","839323","890620","8.715352","2.888039","0.021161","710309","870957","965154","5.810341","1.888258","0.028284","7821","10856","12723","6769","8463","9384","6581","7957","8679","6560","7552","8044","6199","7022","7418","DualSpot on"
"MA200-0420","51026","80","1","1.10","1.6","2023-08-14T19:10:06","120","2023/08/14","19:10:06","-15.795594155788422","35.002766999881715","0.4","13","300","64","97","-732","-26875","-8","2","150","150.08","115.16","34.92","24.58","48.3","12.94","90308","24.56","DUALSPOT-UV-BLUE-GREEN-RED-IR","620551","643322","909713","18.800042","7.220585","0.021030","744455","839787","838911","13.185648","4.677164","0.022279","742622","823481","831352","11.451626","3.963867","0.022325","779544","838257","891683","9.408160","3.132910","0.021127","707303","870023","965714","6.287208","2.047791","0.021099","6970","9778","11528","6169","7825","8735","6021","7373","8089","6035","7034","7533","5784","6381","6669","DualSpot on"
"MA200-0420","51027","80","1","1.10","1.6","2023-08-14T19:15:06","120","2023/08/14","19:15:06","-15.795653879642487","35.00277666654438","0.1","13","300","64","98","-656","-27044","312","2","150","149.63","115.05","34.58","24.53","48.5","12.94","90308","24.50","DUALSPOT-UV-BLUE-GREEN-RED-IR","611465","638690","908240","20.116016","7.784569","0.020378","735749","834985","837247","14.164625","5.055611","0.021741","735215","819722","830228","12.315641","4.285325","0.021702","772417","834512","889954","10.135365","3.390421","0.020835","703364","868104","965212","6.797519","2.218277","0.020893","6718","9579","11386","6308","8113","9115","6235","7718","8509","6341","7471","8039","6196","6887","7222","DualSpot on"
"MA200-0420","51028","80","1","1.10","1.6","2023-08-14T19:20:06","120","2023/08/14","19:20:06","-15.795697629451752","35.00274633290246","0.2","13","300","64","98","-660","-26924","112","2","150","150.02","115.16","34.86","24.47","48.6","12.94","90316","24.44","DUALSPOT-UV-BLUE-GREEN-RED-IR","603528","634656","907146","21.293892","8.298336","0.019696","728909","831513","836511","15.007565","5.384945","0.020781","733206","821273","834095","13.054952","4.563475","0.020821","765800","830642","887787","10.751053","3.610367","0.019838","698954","865134","963274","7.223610","2.360645","0.018482","6007","8656","10347","5426","7003","7885","5329","6624","7319","5363","6329","6818","5168","5704","5965","DualSpot on"
"MA200-0420","51029","80","1","1.10","1.6","2023-08-14T19:25:06","120","2023/08/14","19:25:06","-15.79564356803894","35.00276633282192","0.0","13","300","64","97","-744","-26908","-56","2","150","149.50","115.05","34.45","24.43","48.7","12.91","90324","24.44","DUALSPOT-UV-BLUE-GREEN-RED-IR","594186","629488","905139","22.634446","8.891415","0.019447","726180","833009","841076","15.925225","5.746304","0.020730","726556","817828","833120","13.849847","4.864633","0.020950","759672","827516","886526","11.410690","3.845574","0.019579","695218","863117","962461","7.677303","2.510355","0.017134","6844","10111","12225","5913","7775","8827","5736","7257","8081","5752","6849","7407","5508","6070","6343","DualSpot on"
"MA200-0420","51030","80","1","1.10","1.6","2023-08-14T19:30:06","120","2023/08/14","19:30:06","-15.795665681362152","35.002720666117966","0.0","13","300","64","98","-662","-26958","233","2","150","149.84","115.31","34.52","24.39","48.8","12.91","90336","24.38","DUALSPOT-UV-BLUE-GREEN-RED-IR","584530","624463","903887","24.131874","9.555416","0.018371","717665","828583","840090","16.985144","6.164059","0.019538","719490","814581","832736","14.777944","5.214689","0.019383","759304","831256","893017","12.187307","4.121703","0.018119","691186","861274","962144","8.223808","2.690925","0.016223","7627","11296","13702","6814","8970","10198","6682","8418","9364","6757","8024","8671","6620","7306","7639","DualSpot on"
"MA200-0420","51031","80","1","1.10","1.6","2023-08-14T19:35:06","120","2023/08/14","19:35:06","-15.795741081237793","35.002724832855165","0.4","13","300","64","98","-641","-27045","229","2","150","150.67","115.20","35.46","24.33","48.9","12.90","90336","24.31","DUALSPOT-UV-BLUE-GREEN-RED-IR","576665","622634","909398","26.070508","10.442451","0.017182","707160","822954","838865","18.297372","6.689222","0.017551","710473","810090","831818","15.915161","5.650631","0.017314","749888","825977","890423","13.134237","4.463039","0.015664","689646","863177","966458","8.885441","2.912855","0.013246","9883","14691","17904","8444","10978","12438","8195","10205","11312","8246","9656","10382","8022","8742","9093","DualSpot on"
"MA200-0420","51032","80","1","1.10","1.6","2023-08-14T19:40:06","120","2023/08/14","19:40:06","-15.795779287815094","35.00277749961242","0.2","13","300","64","98","-576","-27180","427","2","150","149.71","115.42","34.29","24.29","48.9","12.85","90340","24.25","DUALSPOT-UV-BLUE-GREEN-RED-IR","562393","614774","908038","28.450036","11.574245","0.017693","694970","816234","837554","19.894244","7.358779","0.019860","699892","804567","830600","17.280724","6.196016","0.020221","740849","821763","889553","14.254728","4.882641","0.019918","684045","860425","965826","9.644577","3.172819","0.019236","12108","19388","24381","10256","14477","16954","9822","13206","15097","9739","12278","13601","9187","10591","11280","DualSpot on"
"MA200-0420","51033","80","1","1.10","1.6","2023-08-14T19:45:06","120","2023/08/14","19:45:06","-15.795623660087585","35.00270599941723","0.3","13","300","64","98","-780","-26836","-448","2","150","150.22","115.57","34.65","24.28","48.8","12.80","90344","24.31","DUALSPOT-UV-BLUE-GREEN-RED-IR","549175","607626","907679","30.769726","12.696541","0.016605","684382","810799","837084","21.364556","7.966081","0.017591","690670","800150","830217","18.552096","6.695292","0.017597","733624","819266","890350","15.319494","5.273263","0.016597","679275","858831","966485","10.402939","3.423061","0.012529","11789","19024","24106","9431","12992","15110","9133","11962","13560","9243","11310","12394","9166","10088","10540","DualSpot on"
"MA200-0420","51034","80","1","1.10","1.6","2023-08-14T19:50:06","120","2023/08/14","19:50:06","-15.79570084810257","35.00272099953145","0.4","13","300","64","98","-692","-26900","-304","2","150","150.27","115.65","34.62","24.24","48.8","12.77","90364","24.19","DUALSPOT-UV-BLUE-GREEN-RED-IR","538063","601049","906210","32.668164","13.628120","0.016012","674669","805358","836124","22.687418","8.528449","0.017734","686282","800558","834575","19.720086","7.169060","0.018158","724226","813758","887689","16.313717","5.651635","0.017982","672941","854826","964375","11.129627","3.673207","0.016429","9641","15805","20216","8479","12042","14187","8384","11361","13061","8624","10965","12205","8777","10093","10741","DualSpot on"
"MA200-0420","51035","80","1","1.10","1.6","2023-08-14T19:55:06","120","2023/08/14","19:55:06","-15.795738160610199","35.00267866649665","0.2","12","300","64","97","-764","-27188","724","2","150","150.02","116.39","33.63","24.17","49.0","12.78","90368","24.13","DUALSPOT-UV-BLUE-GREEN-RED-IR","532363","599116","909950","34.153196","14.366016","0.016223","670752","805406","839891","23.720096","8.975192","0.018738","678574","795816","832710","20.631058","7.543717","0.019404","722177","815284","892002","17.089026","5.949378","0.019636","668023","851678","962731","11.695808","3.870389","0.020084","7494","12888","16805","6577","9848","11839","6498","9250","10836","6683","8883","10058","6795","8191","8881","DualSpot on"
"MA200-0420","51036","80","1","1.10","1.6","2023-08-14T20:00:06","120","2023/08/14","20:00:06","-15.795684397220612","35.002702332800254","0.1","12","300","64","98","-664","-26980","376","2","150","150.02","116.94","33.07","24.11","49.2","12.79","90368","24.06","DUALSPOT-UV-BLUE-GREEN-RED-IR","523235","593305","907844","35.641496","15.104366","0.015904","661964","799484","837354","24.735192","9.408833","0.018261","671469","791650","831375","21.518502","7.905735","0.019123","715440","811485","890403","17.839530","6.235897","0.019605","667910","854590","967833","12.237389","4.058294","0.020701","7475","13112","17258","6434","9719","11736","6300","9087","10706","6438","8691","9901","6469","7936","8664","DualSpot on"
"MA200-0420","51037","80","1","1.10","1.6","2023-08-14T20:05:06","120","2023/08/14","20:05:06","-15.795585215091705","35.00280849961564","0.3","13","300","64","98","-704","-26819","236","2","150","150.34","116.94","33.40","24.00","49.4","12.75","90364","23.94","DUALSPOT-UV-BLUE-GREEN-RED-IR","514146","586791","903583","36.938312","15.746487","0.015192","652565","792253","833146","25.667244","9.815024","0.017917","667751","791064","833626","22.347342","8.251394","0.018875","707083","805401","886165","18.547634","6.512236","0.019457","662291","850205","964658","12.754513","4.245229","0.022330","6513","11292","14842","5908","9015","10939","5884","8592","10177","6074","8300","9505","6177","7818","8637","DualSpot on"
"MA200-0420","51038","80","1","1.10","1.6","2023-08-14T20:10:06","120","2023/08/14","20:10:06","-15.795660734176636","35.00278899958357","0.2","13","300","64","98","-770","-26962","187","2","150","149.53","116.74","32.79","23.91","49.6","12.73","90372","23.88","DUALSPOT-UV-BLUE-GREEN-RED-IR","511455","587094","909177","38.080480","16.310764","0.014978","651988","795244","839318","26.492750","10.176993","0.017996","661948","787476","832416","23.075716","8.557885","0.019150","707262","808641","891874","19.163156","6.755059","0.020067","658857","848169","963882","13.196796","4.405362","0.022930","5746","10107","13375","5242","8183","10018","5179","7760","9281","5289","7429","8594","5292","6822","7588","DualSpot on"
"MA200-0420","51039","80","1","1.10","1.6","2023-08-14T20:15:06","120","2023/08/14","20:15:06","-15.795646369457245","35.0026748329401","0.1","14","300","64","97","-792","-27032","176","2","150","149.56","117.18","32.38","23.87","49.6","12.70","90372","23.81","DUALSPOT-UV-BLUE-GREEN-RED-IR","505245","583207","908088","39.178600","16.855884","0.014879","645425","790789","837616","27.302578","10.532916","0.017952","656752","784568","831824","23.791350","8.858191","0.019015","702061","805661","890767","19.771524","6.995561","0.020225","655358","846044","962996","13.635868","4.564512","0.023397","5504","9887","13197","5123","8148","10048","5070","7699","9259","5208","7451","8679","5234","6865","7686","DualSpot on"
"MA200-0420","51040","80","1","1.10","1.6","2023-08-14T20:20:06","120","2023/08/14","20:20:06","-15.795666694641113","35.002671999624","0.4","14","300","64","98","-740","-27008","-276","2","150","149.38","117.18","32.20","23.82","49.7","12.68","90380","23.81","DUALSPOT-UV-BLUE-GREEN-RED-IR","498955","579161","906939","40.309516","17.424660","0.014734","639033","786618","836283","28.138442","10.904215","0.017830","651389","781502","831175","24.534754","9.173726","0.018963","697202","803128","890181","20.402852","7.247345","0.020184","652311","844550","962909","14.094856","4.731033","0.023083","5668","10375","13959","5288","8548","10612","5267","8136","9849","5405","7845","9189","5471","7224","8110","DualSpot on"
"MA200-0420","51041","80","1","1.10","1.6","2023-08-14T20:25:06","120","2023/08/14","20:25:06","-15.795625567436218","35.00275199953467","0.2","14","300","64","98","-688","-26984","248","2","150","150.08","117.50","32.59","23.82","49.7","12.67","90380","23.81","DUALSPOT-UV-BLUE-GREEN-RED-IR","493040","575569","906398","41.441576","17.989220","0.014119","634136","784313","837021","28.997772","11.285953","0.017114","646182","778642","830890","25.304014","9.501668","0.018273","692170","800473","889591","21.061108","7.512359","0.019585","652477","847400","967859","14.577721","4.909507","0.022916","5659","10176","13640","5421","8684","10763","5435","8355","10110","5620","8159","9566","5740","7651","8620","DualSpot on"
"MA200-0420","51042","80","1","1.10","1.6","2023-08-14T20:30:06","120","2023/08/14","20:30:06","-15.795633375644684","35.002738499548286","0.1","14","300","64","98","-900","-26888","916","2","150","149.95","117.69","32.26","23.79","49.7","12.64","90384","23.75","DUALSPOT-UV-BLUE-GREEN-RED-IR","487366","571860","905291","42.480352","18.515666","0.014143","627709","779803","835294","29.809642","11.655071","0.017431","640936","775537","830178","26.034814","9.821401","0.018787","687088","797560","888665","21.693326","7.771879","0.020133","649081","845392","967284","15.044395","5.082968","0.023246","5184","9585","12986","5113","8482","10645","5155","8228","10090","5389","8071","9568","5539","7511","8518","DualSpot on"
"MA200-0420","51043","80","1","1.10","1.6","2023-08-14T20:35:06","120","2023/08/14","20:35:06","-15.79568499326706","35.00277133285999","0.2","14","300","64","98","-748","-26896","-136","2","150","150.28","117.65","32.62","23.75","49.8","12.64","90388","23.75","DUALSPOT-UV-BLUE-GREEN-RED-IR","481649","567667","902839","43.394120","18.982716","0.013823","625987","780832","839170","30.548540","11.990256","0.016742","639182","776356","833499","26.705044","10.111106","0.017731","680922","793090","885771","22.272272","8.007614","0.018967","644993","842334","965368","15.472637","5.244558","0.022820","4561","8408","11400","4655","7616","9529","4729","7372","8983","4936","7249","8547","5084","6919","7859","DualSpot on"
"MA200-0420","51044","80","1","1.10","1.6","2023-08-14T20:40:06","120","2023/08/14","20:40:06","-15.795590996742249","35.0027498328127","0.2","13","300","64","98","-728","-26872","-107","2","150","150.15","117.34","32.81","23.72","49.8","12.61","90388","23.69","DUALSPOT-UV-BLUE-GREEN-RED-IR","481215","569582","910001","44.270848","19.433178","0.013527","622075","779041","840082","31.279462","12.323997","0.016333","635151","774336","833775","27.372934","10.404657","0.017530","677338","791676","886301","22.857246","8.246666","0.018343","642219","841035","965407","15.913464","5.407408","0.020565","4388","8064","10940","4617","7540","9441","4725","7428","9085","5001","7309","8612","5248","6933","7801","DualSpot on"
"MA200-0420","51045","80","1","1.10","1.6","2023-08-14T20:45:06","120","2023/08/14","20:45:06","-15.795642018318176","35.00279333326034","0.1","13","300","64","98","-754","-26850","4","2","150","149.94","117.57","32.37","23.70","49.8","12.61","90396","23.69","DUALSPOT-UV-BLUE-GREEN-RED-IR","476886","566671","909277","45.092752","19.863868","0.013694","616758","775227","838676","31.975842","12.648177","0.016679","630429","771315","832893","28.009520","10.687462","0.017779","673243","789453","885904","23.417026","8.481852","0.019299","639267","839342","965018","16.333370","5.566728","0.022313","4106","7814","10734","4390","7423","9408","4495","7253","8954","4776","7288","8715","4989","6875","7850","DualSpot on"
"MA200-0420","51046","80","1","1.10","1.6","2023-08-14T20:50:06","120","2023/08/14","20:50:06","-15.795640289783478","35.002690999535844","0.2","13","300","64","98","-540","-26875","-172","2","150","150.28","117.30","32.98","23.67","49.8","12.58","90396","23.63","DUALSPOT-UV-BLUE-GREEN-RED-IR","472234","563616","908862","46.024260","20.357616","0.013330","611720","772096","838419","32.763534","13.021783","0.016260","626003","768957","833053","28.735578","11.016930","0.017362","673309","792396","891605","24.052990","8.752700","0.018596","635840","837318","964482","16.813110","5.753595","0.021974","4664","8793","12068","4978","8398","10654","5139","8294","10255","5439","8239","9841","5713","7915","9060","DualSpot on"
"MA200-0420","51047","80","1","1.10","1.6","2023-08-14T20:55:06","120","2023/08/14","20:55:06","-15.79565167427063","35.00271883280948","0.5","13","300","64","98","-580","-27052","284","2","150","149.50","117.22","32.28","23.64","49.8","12.55","90400","23.63","DUALSPOT-UV-BLUE-GREEN-RED-IR","466645","559588","907213","47.034628","20.893372","0.013284","605371","767517","836772","33.605604","13.420881","0.016234","620479","765383","832124","29.507076","11.369033","0.017513","668028","789236","890689","24.732904","9.044886","0.018968","631950","834814","963530","17.324886","5.953096","0.022378","5062","9748","13493","5325","9165","11719","5464","9056","11307","5819","9081","10962","6099","8633","9960","DualSpot on"
"MA200-0420","51048","80","1","1.10","1.6","2023-08-14T21:00:06","120","2023/08/14","21:00:06","-15.795638859272003","35.00280399946496","0.0","13","300","64","97","-644","-26996","52","2","150","149.82","117.50","32.33","23.59","49.8","12.51","90400","23.56","DUALSPOT-UV-BLUE-GREEN-RED-IR","460623","555236","905431","48.138144","21.475258","0.012949","603341","768610","841587","34.515020","13.851072","0.015813","614776","761754","831284","30.336662","11.744830","0.016922","662372","785807","889546","25.459934","9.354244","0.018207","628047","832423","962799","17.875130","6.165572","0.021325","5516","10572","14645","5737","9865","12632","5861","9651","12045","6208","9601","11572","6542","9182","10572","DualSpot on"
"MA200-0420","51049","80","1","1.10","1.6","2023-08-14T21:05:06","120","2023/08/14","21:05:06","-15.795621156692505","35.002690999535844","0.2","14","300","64","97","-695","-26962","29","2","150","150.60","117.89","32.71","23.53","50.0","12.48","90412","23.44","DUALSPOT-UV-BLUE-GREEN-RED-IR","455967","551872","904229","49.025908","21.957184","0.012932","598195","764859","840323","35.224420","14.192769","0.015673","613304","762652","834740","30.986250","12.042376","0.016640","656736","781649","886971","26.027976","9.598503","0.017883","627839","834307","966557","18.301926","6.332319","0.020991","4423","8653","12084","4460","7743","9958","4574","7551","9443","4834","7491","9043","5057","7120","8212","DualSpot on"
"MA200-0420","51050","80","1","1.10","1.6","2023-08-14T21:10:06","120","2023/08/14","21:10:06","-15.795651853084564","35.002760832896456","0.2","14","300","64","98","-644","-26888","304","2","150","150.21","117.73","32.48","23.42","50.3","12.50","90416","23.31","DUALSPOT-UV-BLUE-GREEN-RED-IR","452822","550489","906599","49.977164","22.464936","0.012593","590498","758118","836080","36.015812","14.569744","0.015260","606809","757534","831874","31.711510","12.374536","0.016392","654875","782314","890190","26.666234","9.873495","0.017680","623090","830480","964013","18.790242","6.526034","0.021370","4745","9182","12804","4983","8604","11064","5114","8490","10651","5439","8494","10290","5794","8331","9681","DualSpot on"
"MA200-0420","51051","80","1","1.10","1.6","2023-08-14T21:15:06","120","2023/08/14","21:15:06","-15.795623362064362","35.00273716612719","0.4","14","300","64","98","-704","-27204","666","2","150","149.75","117.89","31.85","23.36","50.4","12.46","90420","23.31","DUALSPOT-UV-BLUE-GREEN-RED-IR","447861","546547","904219","50.814628","22.921982","0.012794","585242","753993","834248","36.694724","14.897765","0.015540","601989","754023","830406","32.331624","12.661977","0.016717","649256","777984","887324","27.211494","10.108068","0.017828","619301","827482","962104","19.205398","6.687661","0.021009","4172","8427","11924","4269","7633","9933","4366","7491","9503","4640","7388","9012","4919","7088","8246","DualSpot on"
"MA200-0420","51052","80","1","1.10","1.6","2023-08-14T21:20:06","120","2023/08/14","21:20:06","-15.795671045780182","35.002684666309506","0.1","14","300","68","97","-744","-26872","184","3","150","150.41","117.18","33.23","23.32","50.5","12.45","90416","23.31","DUALSPOT-UV-BLUE-GREEN-RED-IR","781708","696418","909280","0.000000","0.000000","0.000000","879441","885185","839730","0.000000","0.000000","0.000000","858089","859438","830907","0.000000","0.000000","0.000000","875183","862591","886990","0.000000","0.000000","0.000000","769449","885912","963837","0.000000","0.000000","0.000000","","","","","","","","","","","","","","","","Tape advance-DualSpot on"
"MA200-0420","51053","80","1","1.10","1.6","2023-08-14T21:25:06","120","2023/08/14","21:25:06","-15.795660018920898","35.00275083305314","0.0","14","300","68","98","-575","-26837","70","3","150","150.33","117.09","33.25","23.28","50.6","12.44","90412","23.25","DUALSPOT-UV-BLUE-GREEN-RED-IR","767187","690049","905687","0.000000","0.000000","0.000000","868182","878910","836272","0.000000","0.000000","0.000000","855303","860710","834183","0.000000","0.000000","0.000000","874596","865178","891269","0.000000","0.000000","0.000000","769924","888445","967630","0.000000","0.000000","0.000000","","","","","","","","","","","","","","","","Tape advance-DualSpot on"
"MA200-0420","51054","80","1","1.10","1.6","2023-08-14T21:30:06","120","2023/08/14","21:30:06","-15.795655310153961","35.002744666300714","0.1","14","300","64","97","-648","-26847","212","3","150","149.95","117.02","32.93","23.22","50.7","12.44","90420","23.19","DUALSPOT-UV-BLUE-GREEN-RED-IR","757426","687179","906202","1.341314","0.477758","0.000000","862078","877390","837145","0.809413","0.276297","0.000000","849287","858460","833858","0.669491","0.225180","0.000000","869478","863098","890640","0.514832","0.169211","0.000000","767361","887370","967405","0.307844","0.097511","0.000000","6732","8521","6732","5127","6220","5127","4749","5677","4749","4413","5155","4413","3674","4136","3674","DualSpot on"
"MA200-0420","51055","80","1","1.10","1.6","2023-08-14T21:35:06","120","2023/08/14","21:35:06","-15.79563820362091","35.00269399955869","0.1","14","300","64","98","-572","-27000","4","3","150","149.56","116.98","32.58","23.22","50.8","12.45","90416","23.19","DUALSPOT-UV-BLUE-GREEN-RED-IR","747943","683961","906133","2.596723","0.938892","0.000000","854975","874558","836675","1.580280","0.544083","0.000000","843720","856459","833733","1.310908","0.444072","0.000000","865721","862209","891217","1.012437","0.335038","0.000000","765063","886566","967441","0.614168","0.194375","0.000000","6303","8313","6303","4885","6093","4885","4552","5578","4552","4267","5106","4267","3658","4153","3658","DualSpot on"
"MA200-0420","51056","80","1","1.10","1.6","2023-08-14T21:40:06","120","2023/08/14","21:40:06","-15.795685350894928","35.00267216633074","0.2","14","300","64","97","-624","-26912","-80","3","150","150.15","117.39","32.76","23.21","50.9","12.46","90420","23.19","DUALSPOT-UV-BLUE-GREEN-RED-IR","737406","679324","903922","3.765590","1.372861","0.090859","847104","870738","835219","2.332210","0.809008","0.000000","837551","853694","832835","1.940900","0.661098","0.000000","858974","858302","888646","1.509447","0.502103","0.000000","761640","884441","966084","0.921438","0.292247","0.000000","5848","7781","8890","4748","5995","4748","4455","5500","4455","4247","5116","4247","3656","4173","3656","DualSpot on"
"MA200-0420","51057","80","1","1.10","1.6","2023-08-14T21:45:06","120","2023/08/14","21:45:06","-15.795715272426605","35.00272299954668","0.3","14","300","64","98","-708","-26928","340","3","150","150.28","116.99","33.29","23.18","50.9","12.45","90420","23.19","DUALSPOT-UV-BLUE-GREEN-RED-IR","729504","676962","904804","4.941993","1.819776","0.070117","841014","868843","835778","3.120952","1.090682","0.090216","832205","852003","833155","2.615176","0.897294","0.000000","855637","858016","889968","2.046921","0.684444","0.000000","759370","883891","966536","1.265186","0.402935","0.000000","5906","7884","9037","4997","6272","6956","4785","5890","4785","4609","5494","4609","4104","4644","4104","DualSpot on"
"MA200-0420","51058","80","1","1.10","1.6","2023-08-14T21:50:06","120","2023/08/14","21:50:06","-15.795716643333435","35.00277733313851","0.1","14","300","64","98","-684","-26936","28","3","150","149.67","116.75","32.92","23.13","51.1","12.48","90412","23.13","DUALSPOT-UV-BLUE-GREEN-RED-IR","725429","677866","910070","6.087362","2.264330","0.061564","838679","870984","840307","3.936790","1.386380","0.077672","825701","849157","832494","3.322503","1.149302","0.086428","849663","855264","888890","2.623229","0.882702","0.000000","756137","882365","966074","1.642988","0.525440","0.000000","5762","7931","9216","5180","6658","7462","5030","6355","7056","4952","6041","4952","4520","5198","4520","DualSpot on"
"MA200-0420","51059","80","1","1.10","1.6","2023-08-14T21:55:06","120","2023/08/14","21:55:06","-15.795655190944672","35.00275699957274","0.0","14","300","64","97","-672","-26828","59","3","150","149.96","117.28","32.68","23.11","51.1","12.45","90420","23.13","DUALSPOT-UV-BLUE-GREEN-RED-IR","717622","675101","910397","7.200018","2.706047","0.056219","833089","869451","841303","4.728779","1.681000","0.072293","819582","846614","832038","4.010822","1.397758","0.077738","844320","853014","888272","3.185848","1.078896","0.086413","753062","880956","965691","2.013067","0.646735","0.000000","5572","7937","9362","5006","6682","7606","4872","6311","7080","4813","6022","6641","4408","5184","4408","DualSpot on"
"MA200-0420","51060","80","1","1.10","1.6","2023-08-14T22:00:06","120","2023/08/14","22:00:06","-15.795612335205078","35.002800999674946","0.1","13","300","64","98","-792","-27019","144","3","150","149.89","117.22","32.67","23.10","51.2","12.46","90416","23.06","DUALSPOT-UV-BLUE-GREEN-RED-IR","709595","671700","909581","8.240696","3.124622","0.050548","825860","865938","840162","5.464463","1.952153","0.061146","814348","844635","831998","4.649375","1.629644","0.068428","840436","851967","888820","3.709386","1.260876","0.073465","750085","879520","965189","2.359262","0.758236","0.000000","5214","7525","8937","4652","6153","6987","4522","5893","6632","4480","5588","6159","4125","4768","4125","DualSpot on"
"MA200-0420","51061","80","1","1.10","1.6","2023-08-14T22:05:06","120","2023/08/14","22:05:06","-15.795679152011871","35.00277899974026","0.3","13","300","64","97","-644","-27003","328","3","150","150.15","116.70","33.45","23.08","51.3","12.49","90412","23.06","DUALSPOT-UV-BLUE-GREEN-RED-IR","702705","669080","909629","9.221094","3.524044","0.043986","820035","863661","840241","6.181303","2.223861","0.054203","809001","842422","831740","5.276048","1.857519","0.055577","834402","848688","886991","4.226480","1.441753","0.059339","747237","878253","964906","2.705776","0.872676","0.000000","4934","7014","8301","4553","6022","6848","4458","5656","6307","4445","5425","5933","4147","4779","4147","DualSpot on"
"MA200-0420","51062","80","1","1.10","1.6","2023-08-14T22:10:06","120","2023/08/14","22:10:06","-15.795740962028503","35.00275083305314","0.1","14","300","64","98","-712","-26916","45","3","150","150.47","116.94","33.53","23.06","51.5","12.53","90412","23.00","DUALSPOT-UV-BLUE-GREEN-RED-IR","694583","665321","908213","10.228004","3.931760","0.039213","812538","859839","838949","6.943371","2.509928","0.046990","802941","839691","831080","5.948453","2.104032","0.050644","829515","846817","886796","4.788430","1.639349","0.053474","744030","876726","964450","3.090602","0.998892","0.056732","5057","7142","8444","4830","6324","7170","4773","6103","6831","4821","5912","6480","4597","5258","5574","DualSpot on"
"MA200-0420","51063","80","1","1.10","1.6","2023-08-14T22:15:06","120","2023/08/14","22:15:06","-15.795716643333435","35.00274383299984","0.2","13","300","64","98","-616","-27096","176","3","150","149.81","117.03","32.77","23.01","52.0","12.62","90408","22.94","DUALSPOT-UV-BLUE-GREEN-RED-IR","688839","662928","907993","11.039322","4.267921","0.039749","806851","857115","838207","7.560426","2.742034","0.046300","798617","838041","831084","6.493110","2.303105","0.049453","831971","851830","893466","5.242411","1.796668","0.050626","741718","875821","964379","3.397646","1.097738","0.053274","4071","6024","7255","3908","5250","6013","3863","5043","5691","3891","4815","5297","3665","4213","4475","DualSpot on"
"MA200-0420","51064","80","1","1.10","1.6","2023-08-14T22:20:06","120","2023/08/14","22:20:06","-15.795633912086487","35.00276666646823","0.3","13","300","64","97","-708","-26980","312","3","150","150.15","116.93","33.22","23.01","52.2","12.69","90412","23.00","DUALSPOT-UV-BLUE-GREEN-RED-IR","682095","659163","905615","11.759983","4.572794","0.037803","800911","853637","836571","8.102733","2.952457","0.045085","797649","839545","834059","6.970425","2.481299","0.047036","826136","848009","890679","5.638737","1.939673","0.051729","738444","873531","962730","3.665065","1.185907","0.052348","3620","5390","6517","3438","4696","5417","3389","4453","5042","3400","4319","4800","3194","3707","3953","DualSpot on"
"MA200-0420","51065","80","1","1.10","1.6","2023-08-14T22:25:06","120","2023/08/14","22:25:06","-15.795732617378235","35.002697832882404","0.2","14","300","64","97","-680","-27075","504","3","150","150.34","116.94","33.40","23.02","52.2","12.69","90408","23.06","DUALSPOT-UV-BLUE-GREEN-RED-IR","679257","659071","908216","12.465157","4.876518","0.036494","798736","854029","838671","8.625604","3.159171","0.043758","791053","834955","830951","7.427476","2.656853","0.047033","819714","843471","887153","6.019504","2.078168","0.048949","738408","874968","965156","3.922487","1.273247","0.055500","3541","5341","6497","3314","4588","5324","3244","4363","4986","3266","4160","4631","3075","3653","3930","DualSpot on"
"MA200-0420","51066","80","1","1.10","1.6","2023-08-14T22:30:06","120","2023/08/14","22:30:06","-15.795756936073303","35.00277433288284","0.1","14","300","64","97","-808","-26920","262","3","150","150.21","116.67","33.55","23.05","52.1","12.68","90404","23.06","DUALSPOT-UV-BLUE-GREEN-RED-IR","673862","656432","907378","13.170187","5.183922","0.034920","793994","851585","838005","9.145499","3.368771","0.042531","786850","832820","830327","7.883142","2.834946","0.045590","814747","840326","885096","6.395631","2.218852","0.049308","735191","872642","963411","4.179260","1.361623","0.054103","3549","5382","6572","3303","4631","5406","3242","4407","5061","3234","4207","4724","3074","3680","3972","DualSpot on"
"MA200-0420","51067","80","1","1.10","1.6","2023-08-14T22:35:06","120","2023/08/14","22:35:06","-15.795644044876099","35.00276649952866","0.1","14","300","64","98","-754","-26891","20","3","150","149.47","116.54","32.93","23.03","52.0","12.65","90400","23.00","DUALSPOT-UV-BLUE-GREEN-RED-IR","669666","654930","907995","13.867014","5.486099","0.033844","790350","850302","838533","9.667327","3.577083","0.040936","783846","831977","830945","8.343029","3.012323","0.043564","813022","840596","886604","6.777660","2.360150","0.047430","733977","872648","964314","4.434845","1.449697","0.055427","3512","5389","6618","3319","4689","5493","3276","4471","5147","3288","4304","4847","3063","3735","4062","DualSpot on"
"MA200-0420","51068","80","1","1.10","1.6","2023-08-14T22:40:06","120","2023/08/14","22:40:06","-15.795680284500122","35.00274583301507","0.2","14","300","64","98","-664","-26932","164","3","150","150.28","116.95","33.33","22.99","52.2","12.66","90400","22.94","DUALSPOT-UV-BLUE-GREEN-RED-IR","663083","650920","905116","14.533552","5.780845","0.032889","783639","845633","835625","10.172162","3.782898","0.039971","783366","833731","834185","8.789059","3.188998","0.043182","813407","842915","890321","7.148563","2.499859","0.046285","730447","869870","962067","4.687853","1.537862","0.053082","3347","5193","6412","3200","4577","5392","3166","4400","5103","3181","4205","4755","3022","3694","4023","DualSpot on"
"MA200-0420","51069","80","1","1.10","1.6","2023-08-14T22:45:06","120","2023/08/14","22:45:06","-15.795662999153137","35.00276999967173","0.1","14","300","64","98","-696","-26852","-16","3","150","149.47","117.05","32.42","22.95","52.3","12.66","90392","22.94","DUALSPOT-UV-BLUE-GREEN-RED-IR","658685","648876","904829","15.164886","6.060955","0.033016","779882","843904","835540","10.644677","3.976244","0.040630","779872","832057","833882","9.203599","3.353429","0.043976","810983","842252","890745","7.494225","2.629740","0.047321","728981","869469","962373","4.920265","1.616709","0.051002","3168","5075","6344","2992","4421","5273","2940","4211","4939","2962","4019","4590","2773","3397","3703","DualSpot on"
"MA200-0420","51070","80","1","1.10","1.6","2023-08-14T22:50:06","120","2023/08/14","22:50:06","-15.795677721500397","35.0027151661925","0.1","14","300","64","98","-412","-27708","1900","3","150","150.54","117.14","33.40","22.92","52.5","12.67","90396","22.88","DUALSPOT-UV-BLUE-GREEN-RED-IR","653536","646097","903614","15.819397","6.354870","0.030981","781154","847764","841062","11.136862","4.178643","0.037220","776278","830427","833671","9.637924","3.526495","0.039987","807306","840287","889922","7.857657","2.768085","0.043395","726702","868158","961778","5.170372","1.704479","0.049545","3281","5169","6436","3114","4492","5320","3078","4302","5008","3112","4155","4723","2982","3671","4009","DualSpot on"
"MA200-0420","51071","80","1","1.10","1.6","2023-08-14T22:55:06","120","2023/08/14","22:55:06","-15.795669376850128","35.00273016630672","0.3","14","300","64","98","-800","-26763","-640","3","150","150.01","116.95","33.06","22.87","52.7","12.71","90396","22.81","DUALSPOT-UV-BLUE-GREEN-RED-IR","654796","649613","911146","16.453758","6.642097","0.030525","777269","845969","840979","11.628695","4.382122","0.036679","771771","827753","832452","10.075302","3.701576","0.039377","802742","837452","888163","8.226345","2.907392","0.041619","728625","871875","966736","5.421037","1.791903","0.047741","3185","5102","6400","3117","4562","5436","3104","4396","5146","3162","4227","4809","2994","3694","4039","DualSpot on"
"MA200-0420","51072","80","1","1.10","1.6","2023-08-14T23:00:06","120","2023/08/14","23:00:06","-15.795688807964325","35.0028013328556","0.1","14","300","64","98","-711","-26761","-273","3","150","149.81","116.70","33.10","22.84","52.8","12.69","90392","22.81","DUALSPOT-UV-BLUE-GREEN-RED-IR","649590","646773","909923","17.120198","6.948192","0.029807","772008","842797","839648","12.148132","4.600912","0.036084","767993","825966","832254","10.538985","3.891664","0.039262","799593","836200","888193","8.618107","3.060150","0.042635","726313","870611","966274","5.690950","1.889166","0.050624","3354","5431","6849","3299","4899","5874","3298","4767","5627","3367","4629","5324","3230","4104","4538","DualSpot on"
"MA200-0420","51073","80","1","1.10","1.6","2023-08-14T23:05:06","120","2023/08/14","23:05:06","-15.795763790607452","35.00265633291565","0.4","14","300","64","98","-800","-27029","4","3","150","149.32","116.74","32.57","22.83","52.8","12.68","90396","22.81","DUALSPOT-UV-BLUE-GREEN-RED-IR","644399","643765","908239","17.740478","7.231296","0.029183","766868","839538","838131","12.635271","4.805547","0.035563","763510","823244","830978","10.971535","4.067049","0.038164","794024","832183","885161","8.981747","3.200904","0.041833","723124","868207","964465","5.944685","1.979215","0.048730","3120","5105","6470","3093","4657","5617","3076","4470","5291","3125","4335","5005","3036","3862","4274","DualSpot on"
"MA200-0420","51074","80","1","1.10","1.6","2023-08-14T23:10:06","120","2023/08/14","23:10:06","-15.795680820941925","35.002755999565125","0.0","14","300","64","98","-704","-27063","-236","3","150","149.76","116.78","32.97","22.80","53.0","12.70","90388","22.75","DUALSPOT-UV-BLUE-GREEN-RED-IR","640415","641714","907717","18.299294","7.490413","0.028469","763179","837597","837759","13.072021","4.990775","0.034288","760339","821736","830743","11.362882","4.226122","0.036241","797919","837986","892453","9.313016","3.328666","0.038968","721741","867817","964842","6.172645","2.058772","0.042381","2810","4615","5867","2772","4164","5024","2782","4005","4729","2845","3887","4467","2726","3370","3692","DualSpot on"
"MA200-0420","51075","80","1","1.10","1.6","2023-08-14T23:15:06","120","2023/08/14","23:15:06","-15.795646369457245","35.00276333326474","0.2","13","300","64","97","-668","-26912","188","3","150","150.08","116.59","33.49","22.79","52.9","12.68","90384","22.75","DUALSPOT-UV-BLUE-GREEN-RED-IR","636709","639796","907308","18.835018","7.745758","0.028042","759486","835512","837159","13.487169","5.171040","0.033615","757300","820185","830479","11.732223","4.381489","0.036275","794868","836360","891872","9.626058","3.453133","0.038906","719795","866697","964317","6.391163","2.137325","0.042881","2698","4477","5720","2639","3989","4829","2630","3851","4578","2693","3728","4306","2618","3276","3606","DualSpot on"
"MA200-0420","51076","80","1","1.10","1.6","2023-08-14T23:20:06","120","2023/08/14","23:20:06","-15.795669376850128","35.00273749954067","0.0","13","300","64","98","-696","-26932","72","3","150","149.76","117.06","32.70","22.78","52.9","12.66","90384","22.75","DUALSPOT-UV-BLUE-GREEN-RED-IR","633202","638365","907928","19.451274","8.034317","0.027527","756361","834439","837875","13.982792","5.383811","0.033340","754102","818871","830713","12.177301","4.567010","0.036189","786509","829449","885820","10.006006","3.603697","0.039537","718268","866358","964922","6.661186","2.235883","0.047430","3092","5183","6655","3138","4824","5879","3156","4710","5643","3256","4620","5387","3222","4211","4710","DualSpot on"
"MA200-0420","51077","80","1","1.10","1.6","2023-08-14T23:25:06","120","2023/08/14","23:25:06","-15.795635044574738","35.002709166146815","0.1","13","300","64","97","-788","-27172","844","3","150","150.04","116.85","33.20","22.76","52.9","12.66","90384","22.75","DUALSPOT-UV-BLUE-GREEN-RED-IR","627980","635015","905582","20.027482","8.306946","0.026565","750680","830296","835385","14.441532","5.584622","0.032445","749819","816154","829388","12.590676","4.741598","0.034815","788175","832994","890857","10.359715","3.745462","0.037785","715387","864203","963398","6.911432","2.327228","0.043459","2896","4823","6189","2910","4484","5476","2937","4366","5229","3037","4284","4990","2991","3843","4276","DualSpot on"
"MA200-0420","51078","80","1","1.10","1.6","2023-08-14T23:30:06","120","2023/08/14","23:30:06","-15.795606911182404","35.00265033310279","0.1","13","300","64","98","-579","-26754","-1000","3","150","150.02","116.98","33.03","22.72","52.9","12.63","90380","22.69","DUALSPOT-UV-BLUE-GREEN-RED-IR","625005","633729","906016","20.549182","8.554996","0.026252","748578","829881","836459","14.849081","5.763126","0.031910","747195","815004","829484","12.953605","4.894844","0.034217","785691","831894","890788","10.668612","3.869148","0.037123","714072","863868","963757","7.128010","2.406090","0.042659","2619","4410","5687","2582","4005","4908","2575","3851","4626","2649","3756","4386","2586","3334","3716","DualSpot on"
"MA200-0420","51079","80","1","1.10","1.6","2023-08-14T23:35:06","120","2023/08/14","23:35:06","-15.79565167427063","35.0027679996565","0.6","13","300","64","98","-750","-26654","-687","3","150","150.21","116.86","33.35","22.70","53.0","12.62","90380","22.69","DUALSPOT-UV-BLUE-GREEN-RED-IR","621372","631686","905310","21.054554","8.799179","0.025817","750483","833879","841946","15.248255","5.937110","0.030392","748771","818436","834236","13.313231","5.047196","0.032925","783137","830708","890611","10.973598","3.991786","0.035664","712369","862988","963539","7.343525","2.484877","0.040603","2540","4300","5564","2532","3867","4719","2554","3792","4548","2618","3689","4301","2576","3300","3670","DualSpot on"
"MA200-0420","51080","80","1","1.10","1.6","2023-08-14T23:40:06","120","2023/08/14","23:40:06","-15.7956383228302","35.002829832723364","0.3","13","300","64","98","-716","-26847","-192","3","150","149.76","116.74","33.01","22.71","52.9","12.62","90376","22.69","DUALSPOT-UV-BLUE-GREEN-RED-IR","619076","630995","906576","21.564278","9.047153","0.025682","742570","826861","836372","15.650023","6.118343","0.031584","741915","812576","829571","13.673212","5.201935","0.033380","780904","829840","890804","11.281745","4.117734","0.036545","710888","862331","963604","7.562959","2.565261","0.040857","2564","4412","5747","2551","4069","5044","2560","3891","4709","2648","3827","4505","2625","3401","3799","DualSpot on"
"MA200-0420","51081","80","1","1.10","1.6","2023-08-14T23:45:06","120","2023/08/14","23:45:06","-15.795643389225006","35.00280499947257","0.2","14","300","64","98","-760","-26888","-232","3","150","150.21","116.86","33.35","22.65","53.2","12.63","90380","22.56","DUALSPOT-UV-BLUE-GREEN-RED-IR","617503","631615","910244","22.221408","9.353878","0.023550","741290","828071","839591","16.201794","6.354616","0.027876","740917","813895","832606","14.173824","5.410495","0.030096","775786","826534","888789","11.714907","4.288797","0.032197","711565","864868","967530","7.874349","2.679710","0.038592","3302","5402","6928","3500","5252","6382","3556","5192","6202","3718","5146","5970","3722","4794","5347","DualSpot on"
"MA200-0420","51082","80","1","1.10","1.6","2023-08-14T23:50:06","120","2023/08/14","23:50:06","-15.795620203018188","35.00282716634683","0.2","12","300","64","98","-729","-26912","29","3","150","149.87","117.49","32.39","22.62","53.3","12.63","90384","22.56","DUALSPOT-UV-BLUE-GREEN-RED-IR","615007","630577","910941","22.702218","9.592499","0.025588","738973","827236","840196","16.586641","6.528690","0.030978","738834","813195","833157","14.521904","5.561974","0.033329","773028","825076","888294","12.013614","4.412285","0.036731","710041","864201","967571","8.087188","2.760530","0.045052","2403","4327","5735","2428","3984","4994","2459","3883","4766","2550","3825","4565","2530","3486","3981","DualSpot on"
"MA200-0420","51083","80","1","1.10","1.6","2023-08-14T23:55:06","120","2023/08/14","23:55:06","-15.79563969373703","35.00272566615604","0.2","12","300","64","98","-536","-27316","1024","3","150","150.58","117.13","33.44","22.61","53.2","12.58","90388","22.63","DUALSPOT-UV-BLUE-GREEN-RED-IR","611075","628295","910012","23.241546","9.857975","0.023964","735215","824981","839554","17.021624","6.724402","0.028649","735331","811133","832492","14.914497","5.732791","0.030824","769855","823326","887670","12.352390","4.551384","0.033154","708341","863439","967595","8.331897","2.851943","0.038304","2704","4662","6104","2753","4338","5373","2782","4240","5150","2901","4172","4914","2918","3818","4286","DualSpot on"
"MA200-0420","51084","80","1","1.10","1.6","2023-08-15T00:00:06","120","2023/08/15","00:00:06","-15.795687675476074","35.002686999505386","0.1","12","300","64","98","-871","-26960","-264","3","150","149.81","117.03","32.77","22.60","53.0","12.52","90384","22.63","DUALSPOT-UV-BLUE-GREEN-RED-IR","608150","627034","910848","23.814430","10.147854","0.024539","732242","823644","839999","17.478004","6.939292","0.030355","732699","810027","832921","15.325291","5.919833","0.032948","767314","822236","887839","12.704152","4.702685","0.036188","707037","863138","968245","8.582792","2.952636","0.046339","2875","5195","6917","2890","4860","6157","2914","4738","5886","3015","4631","5581","2994","4292","4972","DualSpot on"
"MA200-0420","51085","80","1","1.10","1.6","2023-08-15T00:05:06","120","2023/08/15","00:05:06","-15.795673489570618","35.00273883296177","0.1","12","300","64","98","-725","-27122","5","3","150","149.89","116.74","33.14","22.57","52.8","12.45","90372","22.50","DUALSPOT-UV-BLUE-GREEN-RED-IR","602549","623255","908200","24.444358","10.459328","0.023096","726568","819478","837689","17.981930","7.169778","0.028033","732486","811897","836505","15.781177","6.120674","0.030043","768513","825435","892749","13.095337","4.867210","0.033132","703416","860267","966036","8.865578","3.057648","0.036082","3169","5520","7278","3199","5155","6452","3242","5031","6164","3361","4980","5938","3383","4426","4975","DualSpot on"
"MA200-0420","51086","80","1","1.10","1.6","2023-08-15T00:10:06","120","2023/08/15","00:10:06","-15.795641124248505","35.002746999729425","0.0","12","300","64","98","-736","-26980","500","3","150","149.90","116.90","33.00","22.54","52.8","12.41","90368","22.50","DUALSPOT-UV-BLUE-GREEN-RED-IR","598033","620764","907725","25.147712","10.811459","0.022892","721303","816108","836413","18.557010","7.432336","0.027338","723869","804690","831007","16.304346","6.351583","0.029440","764929","823746","892601","13.548001","5.055189","0.031668","701098","859187","965981","9.192482","3.179739","0.035960","3534","6267","8328","3647","5898","7402","3715","5809","7145","3885","5715","6804","3906","5168","5835","DualSpot on"
"MA200-0420","51087","80","1","1.10","1.6","2023-08-15T00:15:06","120","2023/08/15","00:15:06","-15.795605301856995","35.00277733313851","0.1","12","300","64","98","-744","-26944","-172","3","150","149.77","117.09","32.69","22.49","52.7","12.33","90352","22.44","DUALSPOT-UV-BLUE-GREEN-RED-IR","590444","615234","902994","25.902050","11.185516","0.022292","719143","816403","839140","19.179250","7.716191","0.026841","721273","804344","832717","16.869932","6.599894","0.028733","756983","817556","887697","14.040862","5.259944","0.031222","695841","854702","962238","9.555439","3.315466","0.035799","3784","6721","8954","3939","6437","8119","4010","6307","7782","4223","6284","7519","4330","5800","6581","DualSpot on"
"MA200-0420","51088","80","1","1.10","1.6","2023-08-15T00:20:06","120","2023/08/15","00:20:06","-15.795624375343323","35.002729166299105","0.1","12","300","64","97","-728","-26996","239","3","150","150.15","117.16","32.99","22.46","52.6","12.29","90352","22.44","DUALSPOT-UV-BLUE-GREEN-RED-IR","587147","613996","904599","26.635674","11.561783","0.022229","715909","815341","840393","19.777030","7.998543","0.026907","718480","803602","834032","17.414288","6.848515","0.029068","755143","817737","889729","14.512838","5.463772","0.031777","694604","854935","963829","9.900986","3.450744","0.037839","3677","6699","9016","3782","6344","8084","3857","6256","7811","4041","6198","7501","4120","5728","6588","DualSpot on"
"MA200-0420","51089","80","1","1.10","1.6","2023-08-15T00:25:06","120","2023/08/15","00:25:06","-15.79562920331955","35.00276816636324","0.1","12","300","64","98","-768","-27012","472","3","150","150.01","116.87","33.14","22.42","52.5","12.22","90340","22.38","DUALSPOT-UV-BLUE-GREEN-RED-IR","586071","615211","910045","27.413880","11.959541","0.021424","711106","812541","839996","20.399838","8.290926","0.025723","713369","800375","832814","17.980028","7.104031","0.027522","749715","814183","887712","15.005943","5.674656","0.029963","690862","852261","962174","10.265244","3.592141","0.035260","3911","7049","9477","3950","6539","8312","4019","6400","7956","4233","6383","7691","4354","5959","6824","DualSpot on"
"MA200-0420","51090","80","1","1.10","1.6","2023-08-15T00:30:06","120","2023/08/15","00:30:06","-15.79569697380066","35.00271633267403","0.2","12","300","64","97","-837","-26908","-104","3","150","150.58","117.28","33.31","22.39","52.5","12.19","90344","22.38","DUALSPOT-UV-BLUE-GREEN-RED-IR","576594","609059","906667","28.669738","12.594662","0.020300","700148","804705","836162","21.492350","8.803130","0.024395","704803","795191","831268","18.996698","7.565727","0.026260","740805","808713","885270","15.917988","6.069301","0.028794","689201","853856","966679","10.970058","3.871608","0.034614","6289","11200","15047","6906","11400","14518","7197","11508","14361","7802","11887","14404","8395","11721","13535","DualSpot on"
"MA200-0420","51091","80","1","1.10","1.6","2023-08-15T00:35:06","120","2023/08/15","00:35:06","-15.795587956905365","35.00275799958035","0.1","11","300","64","97","-628","-27019","92","3","150","149.99","116.88","33.11","22.35","52.5","12.15","90336","22.31","DUALSPOT-UV-BLUE-GREEN-RED-IR","570440","605868","907225","29.807114","13.181389","0.019979","694467","802192","837381","22.457382","9.262959","0.023925","698263","791609","830925","19.892532","7.977227","0.025603","740396","811897","891824","16.716904","6.418272","0.028000","684726","851434","966364","11.591824","4.120263","0.033634","5715","10409","14130","6120","10296","13228","6363","10319","12967","6857","10575","12892","7431","10492","12180","DualSpot on"
"MA200-0420","51092","80","1","1.10","1.6","2023-08-15T00:40:06","120","2023/08/15","00:40:06","-15.795621037483215","35.00273549952544","0.1","11","300","64","98","-412","-27388","116","3","150","149.38","116.39","32.99","22.29","52.5","12.10","90332","22.25","DUALSPOT-UV-BLUE-GREEN-RED-IR","561771","600030","903957","30.976142","13.785019","0.019270","689885","801056","840126","23.437056","9.729036","0.022916","694661","791366","834156","20.794318","8.393870","0.024708","732550","806918","889510","17.517054","6.770106","0.027023","679086","847602","964387","12.208248","4.366813","0.031972","5899","10748","14635","6239","10474","13479","6432","10486","13230","6897","10700","13096","7398","10441","12135","DualSpot on"
"MA200-0420","51093","80","1","1.10","1.6","2023-08-15T00:45:06","120","2023/08/15","00:45:06","-15.795681118965149","35.002722666133195","0.1","10","300","64","98","-832","-27156","1096","3","150","149.32","116.82","32.49","22.28","52.6","12.13","90336","22.19","DUALSPOT-UV-BLUE-GREEN-RED-IR","555283","596732","905095","32.266114","14.468513","0.019256","683293","797911","841437","24.556392","10.280478","0.023221","687695","787727","834456","21.840278","8.891850","0.024980","726045","803888","889952","18.461048","7.198004","0.027514","674331","845353","964811","12.953953","4.675267","0.033394","6485","12355","17127","7102","12581","16526","7433","12724","16357","8106","13212","16475","8916","13261","15715","DualSpot on"
"MA200-0420","51094","80","1","1.10","1.6","2023-08-15T00:50:06","120","2023/08/15","00:50:06","-15.795609474182129","35.00277233286761","0.1","10","300","64","98","-748","-27080","264","3","150","149.35","116.60","32.75","22.22","52.9","12.14","90336","22.19","DUALSPOT-UV-BLUE-GREEN-RED-IR","551885","595790","908667","33.277096","15.017200","0.018914","674965","791525","838203","25.402170","10.701674","0.022509","680607","782764","832292","22.621430","9.267666","0.024177","718896","798942","887251","19.154586","7.512372","0.026226","669613","842047","963136","13.490520","4.896012","0.031255","5092","9839","13742","5377","9532","12557","5562","9525","12276","5967","9629","11991","6428","9414","11115","DualSpot on"
"MA200-0420","51095","80","1","1.10","1.6","2023-08-15T00:55:06","120","2023/08/15","00:55:06","-15.795697331428528","35.0027304997202","0.0","10","300","64","98","-700","-26763","-716","3","150","149.77","116.97","32.80","22.20","53.2","12.21","90328","22.13","DUALSPOT-UV-BLUE-GREEN-RED-IR","548807","594530","910686","34.061624","15.449924","0.018759","672153","790718","839996","26.040110","11.020083","0.022077","677645","781720","833487","23.203482","9.545383","0.023435","716213","798186","888448","19.665002","7.742285","0.025428","667543","841406","963889","13.879543","5.053575","0.029640","3939","7748","10911","4043","7196","9510","4131","7029","9055","4377","7032","8756","4645","6710","7892","DualSpot on"
"MA200-0420","51096","80","1","1.10","1.6","2023-08-15T01:00:06","120","2023/08/15","01:00:06","-15.79567152261734","35.00276599940844","0.2","10","300","64","98","-688","-27003","180","3","150","149.41","116.45","32.95","22.18","53.4","12.26","90328","22.13","DUALSPOT-UV-BLUE-GREEN-RED-IR","544549","591618","909574","34.718444","15.819977","0.018592","667657","787447","838803","26.569120","11.289522","0.021896","674190","779625","833232","23.685956","9.781889","0.023435","713291","796754","888558","20.087100","7.936311","0.025288","665465","840341","963946","14.198441","5.185551","0.029688","3312","6596","9344","3367","6061","8052","3439","5958","7730","3636","5907","7390","3825","5594","6612","DualSpot on"
"MA200-0420","51097","80","1","1.10","1.6","2023-08-15T01:05:06","120","2023/08/15","01:05:06","-15.795616745948792","35.00273416633718","0.0","11","300","64","98","-665","-26934","65","3","150","150.42","117.07","33.35","22.17","53.6","12.30","90324","22.13","DUALSPOT-UV-BLUE-GREEN-RED-IR","541472","589951","910342","35.369180","16.185581","0.018151","664706","785987","839522","27.099110","11.562526","0.021591","670878","777703","833151","24.168960","10.020229","0.022996","709783","794644","887990","20.513724","8.134842","0.024972","663045","838865","963548","14.521519","5.319004","0.028604","3264","6439","9118","3355","6069","8088","3425","5934","7710","3655","5973","7496","3855","5590","6593","DualSpot on"
"MA200-0420","51098","80","1","1.10","1.6","2023-08-15T01:10:06","120","2023/08/15","01:10:06","-15.795644164085388","35.002814332954586","0.3","11","300","64","98","-800","-26847","4","3","150","150.21","117.14","33.07","22.17","53.7","12.32","90316","22.13","DUALSPOT-UV-BLUE-GREEN-RED-IR","536218","586204","908421","36.135020","16.613998","0.017849","659118","781783","837731","27.729520","11.884041","0.021107","666103","774462","832089","24.748208","10.306145","0.022703","705595","792128","887299","21.026148","8.373445","0.024683","659683","836549","962462","14.915424","5.483545","0.028915","3840","7608","10816","3989","7206","9619","4105","7177","9369","4388","7238","9124","4697","6950","8259","DualSpot on"
"MA200-0420","51099","80","1","1.10","1.6","2023-08-15T01:15:06","120","2023/08/15","01:15:06","-15.795739829540253","35.00269449944608","0.1","11","300","64","98","-492","-27580","1440","3","150","150.02","116.94","33.09","22.18","53.8","12.38","90316","22.13","DUALSPOT-UV-BLUE-GREEN-RED-IR","528855","580630","904546","37.088568","17.143230","0.017292","656024","781326","840816","28.558756","12.305363","0.020414","662385","773224","833925","25.526204","10.687196","0.021822","701973","791066","889036","21.732398","8.702292","0.023858","657186","836167","964389","15.489670","5.727061","0.028519","4789","9395","13353","5257","9440","12606","5523","9561","12469","6059","9971","12584","6860","10281","12288","DualSpot on"
"MA200-0420","51100","80","1","1.10","1.6","2023-08-15T01:20:06","120","2023/08/15","01:20:06","-15.795736491680145","35.00271316617727","0.1","11","300","64","98","-800","-27225","433","3","150","149.94","116.99","32.95","22.21","53.8","12.41","90316","22.19","DUALSPOT-UV-BLUE-GREEN-RED-IR","526252","580419","909703","38.143744","17.743744","0.017202","648332","775554","838720","29.491542","12.797203","0.020562","656081","769188","833277","26.406504","11.133901","0.021999","696076","787675","888712","22.539680","9.093506","0.024272","652263","832989","963618","16.160419","6.024109","0.029525","5297","10704","15407","5910","11065","15016","6247","11255","14906","6922","11911","15285","8009","12593","15317","DualSpot on"
"MA200-0420","51101","80","1","1.10","1.6","2023-08-15T01:25:06","120","2023/08/15","01:25:06","-15.795739948749542","35.00269249943085","0.0","11","300","64","98","-592","-27040","24","3","150","149.67","116.58","33.09","22.23","53.9","12.45","90316","22.19","DUALSPOT-UV-BLUE-GREEN-RED-IR","518012","574198","905822","39.292580","18.394412","0.016586","639080","768330","835558","30.544330","13.352743","0.019779","651005","767035","835279","27.412914","11.649852","0.021291","690709","785377","890205","23.475152","9.550978","0.023397","648575","831954","965764","16.948776","6.372909","0.027871","5788","11549","16619","6694","12445","16911","7167","12944","17214","8050","13869","17861","9446","14724","17904","DualSpot on"
"MA200-0420","51102","80","1","1.10","1.6","2023-08-15T01:30:06","120","2023/08/15","01:30:06","-15.795624673366547","35.00279683317058","0.2","11","300","64","98","-664","-26944","-232","3","150","149.89","117.02","32.86","22.25","54.1","12.51","90308","22.19","DUALSPOT-UV-BLUE-GREEN-RED-IR","511394","570091","906021","40.601672","19.132950","0.016159","631083","763216","835504","31.799428","14.016856","0.019263","639358","757732","830288","28.627344","12.272744","0.020653","683337","781554","890871","24.625868","10.116326","0.022733","642052","828088","965622","17.946206","6.825238","0.027750","6570","13199","19106","7951","14980","20521","8616","15735","21077","9865","17258","22413","11906","19226","23718","DualSpot on"
"MA200-0420","51103","80","1","1.10","1.6","2023-08-15T01:35:06","120","2023/08/15","01:35:06","-15.795701324939728","35.0027234996669","0.1","12","300","64","97","-600","-27232","556","3","150","149.63","116.51","33.12","22.26","54.3","12.58","90312","22.25","DUALSPOT-UV-BLUE-GREEN-RED-IR","508193","568294","907198","41.371244","19.583744","0.016152","627604","761418","836693","32.507908","14.399630","0.019007","635645","755750","831004","29.306972","12.627370","0.020298","679569","779709","891515","25.260058","10.429617","0.022047","639149","826774","966383","18.487712","7.069219","0.026313","3879","7995","11694","4507","8568","11796","4843","8890","11953","5461","9490","12324","6492","10291","12643","DualSpot on"
"MA200-0420","51104","80","1","1.10","1.6","2023-08-15T01:40:06","120","2023/08/15","01:40:06","-15.795647978782654","35.00280233263038","0.0","12","300","64","98","-704","-26875","133","3","150","150.28","116.74","33.53","22.28","54.3","12.61","90312","22.31","DUALSPOT-UV-BLUE-GREEN-RED-IR","505620","566642","907566","41.917188","19.914928","0.016207","625293","760168","837446","32.966186","14.653359","0.018972","632884","753993","830984","29.737986","12.857083","0.020215","672465","773054","885654","25.651736","10.627637","0.022019","637268","825797","966686","18.810338","7.214349","0.025450","2746","5801","8565","2910","5609","7769","3065","5687","7684","3365","5924","7734","3860","6046","7405","DualSpot on"
"MA200-0420","51105","80","1","1.10","1.6","2023-08-15T01:45:06","120","2023/08/15","01:45:06","-15.795695304870605","35.00270349951461","0.2","12","300","64","98","-795","-26945","-12","3","150","150.15","116.98","33.16","22.33","54.2","12.63","90304","22.31","DUALSPOT-UV-BLUE-GREEN-RED-IR","504231","566249","909728","42.430440","20.220794","0.015979","623810","759856","838967","33.384224","14.878777","0.018553","631723","754015","832651","30.122276","13.057042","0.019782","670917","772599","886647","25.997212","10.797669","0.021437","636536","826122","968206","19.086300","7.333665","0.024114","2577","5416","8002","2649","5038","6959","2727","5005","6748","2962","5143","6692","3295","5025","6105","DualSpot on"
"MA200-0420","51106","80","1","1.10","1.6","2023-08-15T01:50:06","120","2023/08/15","01:50:06","-15.795662701129913","35.002776499604806","0.2","11","300","64","98","-648","-27100","-215","3","150","150.07","116.74","33.33","22.34","54.2","12.64","90308","22.31","DUALSPOT-UV-BLUE-GREEN-RED-IR","501261","564169","909291","42.970316","20.539112","0.015617","620893","757642","838283","33.773100","15.089995","0.018355","629307","752368","832413","30.478458","13.242659","0.019468","669224","771865","887189","26.312506","10.952527","0.020990","634744","825001","967941","19.337468","7.440863","0.023051","2716","5609","8257","2469","4697","6497","2533","4623","6229","2709","4661","6052","3005","4492","5422","DualSpot on"
"MA200-0420","51107","80","1","1.10","1.6","2023-08-15T01:55:06","120","2023/08/15","01:55:06","-15.795586168766022","35.002789332997054","0.1","10","300","64","98","-656","-27091","416","3","150","150.42","117.28","33.14","22.33","54.3","12.65","90304","22.31","DUALSPOT-UV-BLUE-GREEN-RED-IR","498965","562761","909692","43.477536","20.836648","0.015499","618967","756691","838982","34.162480","15.296679","0.017974","627301","751306","832784","30.837638","13.426027","0.019077","667491","771166","887733","26.631218","11.106260","0.020582","629576","819420","962438","19.587070","7.549524","0.023895","2540","5273","7789","2461","4623","6376","2542","4593","6175","2726","4654","6033","2973","4580","5588","DualSpot on"
"MA200-0420","51108","80","1","1.10","1.6","2023-08-15T02:00:06","120","2023/08/15","02:00:06","-15.795631051063538","35.002751332940534","0.1","10","300","64","97","-652","-26840","-88","3","150","150.92","117.19","33.73","22.32","54.4","12.67","90296","22.31","DUALSPOT-UV-BLUE-GREEN-RED-IR","494822","559356","907189","44.026716","21.163430","0.015278","614457","752677","836515","34.597936","15.534852","0.017928","623426","748094","830963","31.241866","13.639046","0.019072","668421","773679","892292","26.997852","11.290019","0.020750","630311","821725","966437","19.881454","7.681951","0.024061","2752","5689","8408","2754","5234","7254","2863","5242","7086","3138","5465","7137","3509","5484","6727","DualSpot on"
"MA200-0420","51109","80","1","1.10","1.6","2023-08-15T02:05:06","120","2023/08/15","02:05:06","-15.795656502246857","35.00267383316532","0.1","10","300","64","98","-712","-26916","-75","3","150","150.15","117.65","32.49","22.33","54.4","12.69","90292","22.31","DUALSPOT-UV-BLUE-GREEN-RED-IR","491480","557476","908440","44.838336","21.634076","0.015165","610798","750487","837071","35.259364","15.890326","0.017942","619923","746138","831511","31.867148","13.966604","0.019295","660039","766145","886170","27.571308","11.579123","0.021301","627697","820453","967072","20.359096","7.902176","0.025663","4051","8507","12661","4167","8110","11344","4412","8369","11456","4890","8926","11848","5671","9467","11876","DualSpot on"
"MA200-0420","51110","80","1","1.10","1.6","2023-08-15T02:10:06","120","2023/08/15","02:10:06","-15.7956183552742","35.00277766631916","0.1","10","300","64","98","-744","-27075","308","3","150","149.44","115.92","33.52","22.35","54.4","12.69","90288","22.38","DUALSPOT-UV-BLUE-GREEN-RED-IR","486952","554494","908481","45.771060","22.173774","0.014420","606769","748110","837656","35.988392","16.276604","0.016757","615876","743731","831824","32.560466","14.323128","0.017858","655823","763726","886154","28.210252","11.893468","0.019425","620687","813588","961314","20.887726","8.142605","0.023180","4726","9456","13901","4662","8542","11746","4965","8830","11864","5530","9408","12234","6370","10019","12350","DualSpot on"
"MA200-0420","51111","80","1","1.10","1.6","2023-08-15T02:15:06","120","2023/08/15","02:15:06","-15.795669853687286","35.002785166259855","0.2","10","300","64","98","-520","-26803","-215","3","150","150.15","117.32","32.83","22.35","54.3","12.66","90284","22.38","DUALSPOT-UV-BLUE-GREEN-RED-IR","479660","548458","903594","46.747072","22.735100","0.014387","603096","746488","839480","36.815136","16.712114","0.016779","612446","742501","833818","33.353240","14.730241","0.017967","653205","763526","889152","28.952504","12.258269","0.019597","618329","813311","963755","21.521164","8.433537","0.023847","4886","10042","14923","5224","9833","13665","5610","10294","14000","6347","11147","14672","7542","12378","15495","DualSpot on"
"MA200-0420","51112","80","1","1.10","1.6","2023-08-15T02:20:06","120","2023/08/15","02:20:06","-15.795644164085388","35.00278166634962","0.4","10","300","64","98","-744","-27008","316","3","150","150.54","117.22","33.32","22.36","54.3","12.68","90288","22.38","DUALSPOT-UV-BLUE-GREEN-RED-IR","480218","550465","910279","47.366760","23.106370","0.014437","600169","744577","839672","37.327300","16.990138","0.016756","608882","739825","832900","33.835252","14.983911","0.017865","649614","761023","888204","29.396476","12.481646","0.019470","615329","810947","962566","21.889198","8.603340","0.023144","3105","6544","9821","3239","6185","8647","3413","6320","8631","3799","6726","8885","4386","7119","8889","DualSpot on"
"MA200-0420","51113","80","1","1.10","1.6","2023-08-15T02:25:06","120","2023/08/15","02:25:06","-15.795839071273804","35.002736332826316","0.3","11","300","64","98","-672","-27040","-332","3","150","150.49","116.95","33.54","22.37","54.3","12.68","90284","22.38","DUALSPOT-UV-BLUE-GREEN-RED-IR","477153","548278","909923","47.966316","23.465722","0.014196","597059","742271","839072","37.774760","17.231924","0.016392","606604","738531","833259","34.251468","15.202105","0.017465","647402","759879","888543","29.771020","12.668720","0.018929","613801","810280","963105","22.191350","8.739197","0.021797","3011","6293","9437","2836","5344","7448","2954","5401","7353","3213","5596","7361","3609","5658","6990","DualSpot on"
"MA200-0420","51114","80","1","1.10","1.6","2023-08-15T02:30:06","120","2023/08/15","02:30:06","-15.795662522315979","35.00273516634479","0.3","11","300","64","98","-784","-26900","100","3","150","149.38","116.82","32.55","22.38","54.2","12.66","90280","22.38","DUALSPOT-UV-BLUE-GREEN-RED-IR","470244","542047","903898","48.755532","23.941692","0.014272","593911","740622","840493","38.469660","17.619250","0.016860","602552","735883","833284","34.911392","15.559059","0.018027","643426","757442","888520","30.375904","12.981931","0.019746","610518","808099","962813","22.687462","8.973967","0.023626","3967","8588","13045","4409","8820","12548","4689","9103","12652","5194","9653","12980","5932","10074","12785","DualSpot on"
"MA200-0420","51115","80","1","1.10","1.6","2023-08-15T02:35:06","120","2023/08/15","02:35:06","-15.795681536197662","35.002742332872","0.1","11","300","64","97","-736","-27136","336","3","150","149.95","116.78","33.17","22.39","54.1","12.64","90280","22.38","DUALSPOT-UV-BLUE-GREEN-RED-IR","468545","542096","908833","49.665176","24.482556","0.013757","587251","735166","838322","39.342460","18.104572","0.016257","596788","731624","832176","35.748348","16.009449","0.017299","637591","753357","887264","31.158646","13.388800","0.019025","605913","804705","961777","23.345592","9.291445","0.023007","4575","9578","14442","5540","10847","15371","5950","11274","15592","6724","12307","16514","7872","13371","17007","DualSpot on"
"MA200-0420","51116","80","1","1.10","1.6","2023-08-15T02:40:06","120","2023/08/15","02:40:06","-15.795669674873352","35.00279749976471","0.1","11","300","64","98","-704","-26863","-176","3","150","149.44","116.51","32.93","22.40","54.0","12.63","90276","22.38","DUALSPOT-UV-BLUE-GREEN-RED-IR","464006","537904","904797","50.204864","24.816678","0.013980","586134","735290","840811","39.834232","18.384044","0.016378","594971","730890","833491","36.216016","16.267624","0.017500","635867","752860","888728","31.592892","13.616632","0.019017","604619","804520","963209","23.712570","9.464771","0.022250","2720","5959","9125","3129","6291","9002","3332","6509","9099","3739","6941","9367","4400","7352","9314","DualSpot on"
"MA200-0420","51117","80","1","1.10","1.6","2023-08-15T02:45:06","120","2023/08/15","02:45:06","-15.795640528202057","35.002713333116844","0.1","12","300","68","97","-748","-26756","320","4","150","150.08","116.55","33.53","22.39","54.1","12.66","90272","22.38","DUALSPOT-UV-BLUE-GREEN-RED-IR","778536","691437","907349","0.000000","0.000000","0.000000","878025","882019","840738","0.000000","0.000000","0.000000","859386","859866","835350","0.000000","0.000000","0.000000","873819","861171","889760","0.000000","0.000000","0.000000","765191","883794","965243","0.000000","0.000000","0.000000","","","","","","","","","","","","","","","","Tape advance-DualSpot on"
"MA200-0420","51118","80","1","1.10","1.6","2023-08-15T02:50:06","120","2023/08/15","02:50:06","-15.795675873756409","35.00275733298622","0.3","12","300","68","98","-887","-27229","533","4","150","150.08","116.86","33.22","22.38","54.4","12.73","90268","22.38","DUALSPOT-UV-BLUE-GREEN-RED-IR","771421","689364","907346","0.000000","0.000000","0.000000","872900","880381","840735","0.000000","0.000000","0.000000","855199","858634","835492","0.000000","0.000000","0.000000","869073","858881","888511","0.000000","0.000000","0.000000","762837","882656","964699","0.000000","0.000000","0.000000","","","","","","","","","","","","","","","","Tape advance-DualSpot on"
"MA200-0420","51119","80","1","1.10","1.6","2023-08-15T02:55:06","120","2023/08/15","02:55:06","-15.795627534389496","35.00271649938077","0.3","12","300","64","97","-637","-26891","62","4","150","150.15","116.63","33.52","22.36","54.7","12.79","90272","22.31","DUALSPOT-UV-BLUE-GREEN-RED-IR","764533","686613","905926","0.746963","0.245967","0.000000","867056","877520","839377","0.508195","0.164771","0.000000","845484","851373","829593","0.432467","0.138157","0.000000","865546","857391","887942","0.344549","0.107085","0.000000","760797","881640","964203","0.213138","0.063392","0.000000","3761","4309","3761","3230","3644","3230","3078","3421","3078","2963","3205","2963","2552","2641","2552","DualSpot on"
"MA200-0420","51120","80","1","1.10","1.6","2023-08-15T03:00:06","120","2023/08/15","03:00:06","-15.795632183551788","35.00272533297539","0.1","12","300","64","98","-760","-27068","435","4","150","149.73","117.15","32.58","22.36","54.7","12.80","90272","22.31","DUALSPOT-UV-BLUE-GREEN-RED-IR","758509","684583","905450","1.482255","0.493957","0.000000","862026","875385","838741","1.013278","0.330883","0.000000","846670","855040","834320","0.861954","0.278985","0.000000","861406","855282","886719","0.686572","0.218216","0.000000","758565","880373","963457","0.427171","0.128561","0.000000","3686","4470","3686","3196","3779","3196","3043","3588","3043","2929","3421","2929","2552","2794","2552","DualSpot on"
"MA200-0420","51121","80","1","1.10","1.6","2023-08-15T03:05:06","120","2023/08/15","03:05:06","-15.795633554458618","35.00272316602059","0.2","12","300","64","98","-836","-26800","-212","4","150","149.81","116.45","33.35","22.37","54.9","12.85","90268","22.31","DUALSPOT-UV-BLUE-GREEN-RED-IR","754280","683949","906858","2.196712","0.735282","0.000000","859262","875498","840185","1.509219","0.491738","0.000000","844071","854869","835305","1.287657","0.415223","0.000000","860436","856307","888733","1.024155","0.322443","0.000000","757928","880918","964653","0.636333","0.190496","0.000000","3603","4249","3603","3157","3575","3157","3034","3391","3034","2908","3135","2908","2509","2594","2509","DualSpot on"
"MA200-0420","51122","80","1","1.10","1.6","2023-08-15T03:10:06","120","2023/08/15","03:10:06","-15.795606076717377","35.00271983281709","0.1","12","300","64","98","-716","-26963","-8","4","150","150.15","117.24","32.91","22.40","54.7","12.84","90272","22.44","DUALSPOT-UV-BLUE-GREEN-RED-IR","750846","684054","909225","2.911226","0.982858","0.000000","850889","869821","836167","2.005237","0.658625","0.000000","836765","849876","831604","1.709640","0.555205","0.000000","859841","857665","891112","1.361558","0.432154","0.000000","757757","882010","966481","0.850318","0.255446","0.000000","3579","4418","3579","3136","3759","3136","2988","3531","2988","2887","3344","2887","2549","2757","2549","DualSpot on"
"MA200-0420","51123","80","1","1.10","1.6","2023-08-15T03:15:06","120","2023/08/15","03:15:06","-15.79564356803894","35.00271999952383","0.2","12","300","64","98","-728","-27056","1012","4","150","149.81","116.95","32.86","22.42","54.7","12.84","90268","22.44","DUALSPOT-UV-BLUE-GREEN-RED-IR","745483","682511","909545","3.663147","1.244327","0.072272","846446","868367","836242","2.538836","0.837618","0.000000","833236","848929","831904","2.170652","0.705158","0.000000","856343","856387","890860","1.737199","0.552425","0.000000","756041","881562","966725","1.097782","0.330453","0.000000","3776","4674","5136","3382","4038","3382","3272","3789","3272","3222","3672","3222","2955","3189","2955","DualSpot on"
"MA200-0420","51124","80","1","1.10","1.6","2023-08-15T03:20:06","120","2023/08/15","03:20:06","-15.795625030994415","35.002736166119576","0.1","12","300","64","98","-652","-26968","-20","4","150","150.41","117.30","33.11","22.42","54.6","12.83","90268","22.44","DUALSPOT-UV-BLUE-GREEN-RED-IR","739210","680552","909640","4.516773","1.543083","0.059128","840743","865979","835623","3.139865","1.038140","0.068072","828806","847439","831903","2.698557","0.879675","0.000000","853371","855972","891701","2.177121","0.693838","0.000000","753914","880944","966905","1.397934","0.420142","0.000000","4274","5299","5832","3798","4489","4831","3736","4376","3736","3762","4285","3762","3574","3784","3574","DualSpot on"
"MA200-0420","51125","80","1","1.10","1.6","2023-08-15T03:25:06","120","2023/08/15","03:25:06","-15.7956303358078","35.002753499662504","0.5","12","300","64","98","-736","-27084","-220","4","150","149.81","117.49","32.32","22.42","54.6","12.83","90268","22.44","DUALSPOT-UV-BLUE-GREEN-RED-IR","730516","677189","908746","5.594940","1.936784","0.059647","841084","870600","842243","3.885686","1.296538","0.072137","822801","844944","831332","3.358027","1.103651","0.077137","847518","853226","890450","2.727170","0.875289","0.000000","750098","878779","965710","1.777492","0.542302","0.000000","5390","7155","8089","4706","5927","6538","4660","5753","6289","4697","5632","4697","4513","5280","4513","DualSpot on"
"MA200-0420","51126","80","1","1.10","1.6","2023-08-15T03:30:06","120","2023/08/15","03:30:06","-15.79565304517746","35.002753999549896","0.1","11","300","64","97","-704","-26929","108","4","150","149.87","118.44","31.43","22.42","54.5","12.81","90276","22.44","DUALSPOT-UV-BLUE-GREEN-RED-IR","720467","672975","907136","6.805305","2.381881","0.054711","826211","859667","833972","4.688511","1.572334","0.065468","816460","842379","830763","4.066948","1.342397","0.070426","841726","850776","889652","3.322734","1.071740","0.079413","746428","876944","964996","2.197511","0.674121","0.000000","6002","8316","9562","5025","6504","7250","4969","6305","6963","5044","6269","6853","4953","5858","4953","DualSpot on"
"MA200-0420","51127","80","1","1.10","1.6","2023-08-15T03:35:06","120","2023/08/15","03:35:06","-15.795711815357208","35.0027109994553","0.1","11","300","64","98","-829","-27000","275","4","150","150.15","118.09","32.06","22.41","54.5","12.80","90272","22.38","DUALSPOT-UV-BLUE-GREEN-RED-IR","713501","671130","908251","7.902637","2.781376","0.043627","821370","859178","835809","5.486262","1.844603","0.050894","810745","840445","830796","4.770694","1.576846","0.053097","836910","849329","889801","3.911550","1.261409","0.055184","743984","876550","965729","2.603458","0.799246","0.000000","5458","7319","8329","5008","6295","6948","4947","6071","6626","5002","5935","6379","4802","5452","4802","DualSpot on"
"MA200-0420","51128","80","1","1.10","1.6","2023-08-15T03:40:06","120","2023/08/15","03:40:06","-15.79564082622528","35.00273266597651","0.1","11","300","64","98","-712","-26988","0","4","150","149.82","118.52","31.30","22.39","54.6","12.78","90276","22.38","DUALSPOT-UV-BLUE-GREEN-RED-IR","703948","667564","907769","9.192413","3.259054","0.041779","818587","861676","841021","6.453232","2.182191","0.050720","803702","837802","830594","5.617890","1.865333","0.053816","831276","847572","890042","4.611304","1.493851","0.059879","740730","875537","966058","3.074749","0.947594","0.070640","6391","8964","10377","6048","7995","8991","5934","7652","8506","5923","7450","8182","5554","6621","7096","DualSpot on"
"MA200-0420","51129","80","1","1.10","1.6","2023-08-15T03:45:06","120","2023/08/15","03:45:06","-15.795673787593842","35.00271016638726","0.2","12","300","64","98","-620","-26928","215","4","150","149.89","118.96","30.93","22.39","54.5","12.77","90276","22.38","DUALSPOT-UV-BLUE-GREEN-RED-IR","695249","664710","908421","10.506754","3.757280","0.039609","804808","852577","835146","7.445349","2.537602","0.048932","796879","835398","830765","6.490912","2.172970","0.053633","824825","845030","889565","5.336847","1.741026","0.059076","736435","873394","965210","3.565197","1.105557","0.072104","6489","9461","11115","6182","8518","9726","6093","8257","9347","6119","8017","8936","5759","7134","7752","DualSpot on"
"MA200-0420","51130","80","1","1.10","1.6","2023-08-15T03:50:06","120","2023/08/15","03:50:06","-15.795659363269806","35.002697999589145","0.3","12","300","64","98","-784","-27016","112","4","150","150.15","118.44","31.70","22.39","54.5","12.77","90284","22.38","DUALSPOT-UV-BLUE-GREEN-RED-IR","685340","660735","907667","11.856277","4.273178","0.033822","802007","855275","840878","8.475108","2.907258","0.040325","789275","832384","830424","7.402680","2.490627","0.042212","818825","843151","889912","6.102039","2.000389","0.046502","732318","871635","964921","4.093828","1.275327","0.054943","6692","9557","11172","6445","8643","9791","6391","8318","9295","6481","8207","9049","6234","7480","8044","DualSpot on"
"MA200-0420","51131","80","1","1.10","1.6","2023-08-15T03:55:06","120","2023/08/15","03:55:06","-15.79555869102478","35.002769832732156","0.2","12","300","64","97","-570","-26895","-412","4","150","149.44","118.68","30.76","22.42","54.4","12.77","90280","22.44","DUALSPOT-UV-BLUE-GREEN-RED-IR","666771","653557","907479","14.562113","5.332443","0.030637","787243","849687","841093","10.343504","3.584444","0.036625","776442","827535","830338","9.016937","3.059457","0.039093","806642","838001","888503","7.432087","2.449924","0.041994","725579","868981","964747","4.994140","1.558047","0.047112","13391","20228","24178","11670","16321","18788","11292","15354","17440","11243","14663","16345","10597","12840","13857","DualSpot on"
"MA200-0420","51132","80","1","1.10","1.6","2023-08-15T04:00:06","120","2023/08/15","04:00:06","-15.795581936836243","35.00271533289924","0.4","12","300","64","98","-668","-27172","52","4","150","149.84","118.64","31.20","22.42","54.4","12.77","90284","22.38","DUALSPOT-UV-BLUE-GREEN-RED-IR","641263","643696","908098","18.484070","6.904209","0.024637","755542","832654","834893","13.664676","4.845811","0.029832","753319","818689","830963","12.070890","4.190966","0.031902","785898","830869","889671","10.124719","3.418645","0.035275","711268","863539","965444","7.025127","2.245335","0.042204","19417","29589","35654","20753","29970","35035","21372","30109","34756","22771","31150","35422","23915","30772","33994","DualSpot on"
"MA200-0420","51133","80","1","1.10","1.6","2023-08-15T04:05:06","120","2023/08/15","04:05:06","-15.795659482479095","35.002818499458954","0.2","12","300","64","98","-775","-26883","620","4","150","150.09","118.63","31.46","22.42","54.3","12.75","90288","22.44","DUALSPOT-UV-BLUE-GREEN-RED-IR","607990","629613","909442","23.972764","9.265717","0.021010","721791","817916","835885","18.364646","6.753054","0.024840","721996","805529","831808","16.429407","5.913945","0.026418","756265","818941","889974","14.014248","4.902525","0.028751","690677","854962","966199","10.046276","3.324956","0.034039","27175","44094","54753","29370","44947","54007","30502","45474","53894","32894","47327","55092","35576","47945","54063","DualSpot on"
"MA200-0420","51134","80","1","1.10","1.6","2023-08-15T04:10:06","120","2023/08/15","04:10:06","-15.795620203018188","35.002661999780685","0.1","13","300","64","97","-750","-26916","-104","4","150","150.62","118.44","32.19","22.42","54.3","12.74","90288","22.38","DUALSPOT-UV-BLUE-GREEN-RED-IR","584564","617662","907939","27.775730","11.031109","0.019449","705290","812906","841338","21.365722","8.033491","0.022345","701848","795630","830798","19.173616","7.045036","0.023450","737913","810757","889427","16.441526","5.858905","0.025024","677276","848394","965270","11.935478","4.008466","0.027890","18859","32217","41017","18784","29492","35945","19236","29177","34951","20561","29812","34934","22282","29666","33401","DualSpot on"
"MA200-0420","51135","80","1","1.10","1.6","2023-08-15T04:15:06","120","2023/08/15","04:15:06","-15.795690178871155","35.002722499426454","0.0","13","300","64","98","-637","-26995","-125","4","150","150.40","118.60","31.80","22.41","54.2","12.70","90296","22.38","DUALSPOT-UV-BLUE-GREEN-RED-IR","570553","610625","908028","30.212844","12.190205","0.018691","691788","806034","841448","23.309566","8.895449","0.022048","689496","789593","830782","20.945118","7.805602","0.023366","726649","805781","889642","18.002042","6.499017","0.025182","669539","845036","965772","13.134289","4.460763","0.029039","12069","21410","27727","12150","20095","24998","12401","19857","24287","13201","20196","24148","14120","19870","22827","DualSpot on"
"MA200-0420","51136","80","1","1.10","1.6","2023-08-15T04:20:06","120","2023/08/15","04:20:06","-15.795579314231873","35.002762832911685","0.0","12","300","64","98","-676","-27136","308","4","150","149.76","118.56","31.19","22.41","54.0","12.65","90292","22.44","DUALSPOT-UV-BLUE-GREEN-RED-IR","558001","603061","905183","32.134006","13.130581","0.018443","678334","797416","838733","24.961548","9.650397","0.021863","681581","787196","833920","22.486280","8.487452","0.023241","714670","798784","887089","19.383638","7.084251","0.025286","660645","839371","963400","14.227669","4.886814","0.029720","9517","17706","23364","10329","17941","22738","10792","18147","22606","11691","18822","22929","12882","19079","22321","DualSpot on"
