"Serial number","Datum ID","Session ID","Data format version","Firmware version","App version","Date / time local","Timezone offset (mins)","Date local (yyyy/MM/dd)","Time local (hh:mm:ss)","GPS lat (ddmm.mmmmm)","GPS long (dddmm.mmmmm)","GPS speed (km/h)","GPS sat count","Timebase (s)","Status","Battery remaining (%)","Accel X","Accel Y","Accel Z","Tape position","Flow setpoint (mL/min)","Flow total (mL/min)","Flow1 (mL/min)","Flow2 (mL/min)","Sample temp (C)","Sample RH (%)","Sample dewpoint (C)","Internal pressure (Pa)","Internal temp (C)","Optical config","UV Sen1","UV Sen2","UV Ref","UV ATN1","UV ATN2","UV K","Blue Sen1","Blue Sen2","Blue Ref","Blue ATN1","Blue ATN2","Blue K","Green Sen1","Green Sen2","Green Ref","Green ATN1","Green ATN2","Green K","Red Sen1","Red Sen2","Red Ref","Red ATN1","Red ATN2","Red K","IR Sen1","IR Sen2","IR Ref","IR ATN1","IR ATN2","IR K","UV BC1","UV BC2","UV BCc","Blue BC1","Blue BC2","Blue BCc","Green BC1","Green BC2","Green BCc","Red BC1","Red BC2","Red BCc","IR BC1","IR BC2","IR BCc","Readable status"
"MA200-0420","21576","50","1","1.10","1.4","2023-05-03T16:02:31","120","2023/05/03","16:02:31","-15.791713297367096","35.01420883182436","0.1","15","30","194","40","-23375","-10850","3591","10","150","142.87","105.58","37.29","34.29","40.4","18.92","90292","33.31","DUALSPOT-UV-BLUE-GREEN-RED-IR","772409","679674","865338","0.000000","0.000000","0.000000","879905","881814","813381","0.000000","0.000000","0.000000","877148","875460","824736","0.000000","0.000000","0.000000","936609","919966","927088","0.000000","0.000000","0.000000","777691","900142","967329","0.000000","0.000000","0.000000","","","","","","","","","","","","","","","","Start up-Flow unstable"
"MA200-0420","21577","50","1","1.10","1.4","2023-05-03T16:03:01","120","2023/05/03","16:03:01","-15.791675448417664","35.01423149742186","0.1","16","30","66","40","-23344","-11148","3344","10","150","150.08","111.45","38.63","34.30","39.1","18.39","90288","33.56","DUALSPOT-UV-BLUE-GREEN-RED-IR","808092","711693","906832","0.000000","0.000000","0.000000","906699","909110","839020","0.000000","0.000000","0.000000","885758","884390","833607","0.000000","0.000000","0.000000","899508","883780","891103","0.000000","0.000000","0.000000","776992","899821","967212","0.000000","0.000000","0.000000","","","","","","","","","","","","","","","","Start up"
"MA200-0420","21578","50","1","1.10","1.4","2023-05-03T16:03:31","120","2023/05/03","16:03:31","-15.791667103767395","35.01424899790436","0.1","16","30","66","40","-22929","-11591","4145","10","150","149.95","111.45","38.50","34.27","38.1","17.97","90288","33.56","DUALSPOT-UV-BLUE-GREEN-RED-IR","807161","711527","907043","0.000000","0.000000","0.000000","906354","909175","839348","0.000000","0.000000","0.000000","885117","884122","833567","0.000000","0.000000","0.000000","898305","882845","890373","0.000000","0.000000","0.000000","776186","899118","966522","0.000000","0.000000","0.000000","","","","","","","","","","","","","","","","Start up"
"MA200-0420","21579","50","1","1.10","1.4","2023-05-03T16:04:01","120","2023/05/03","16:04:01","-15.791657328605652","35.014257497154176","0.1","16","30","66","40","-22770","-11616","4129","10","150","150.08","111.12","38.97","34.24","37.4","17.64","90292","33.56","DUALSPOT-UV-BLUE-GREEN-RED-IR","805982","711014","906691","0.000000","0.000000","0.000000","905405","908628","839005","0.000000","0.000000","0.000000","884123","883403","833061","0.000000","0.000000","0.000000","897673","882458","890108","0.000000","0.000000","0.000000","775825","898892","966336","0.000000","0.000000","0.000000","","","","","","","","","","","","","","","","Start up"
"MA200-0420","21580","50","1","1.10","1.4","2023-05-03T16:04:31","120","2023/05/03","16:04:31","-15.791661500930786","35.014214331284165","0.1","16","30","66","40","-22866","-11620","4187","10","150","149.60","111.12","38.48","34.21","36.8","17.36","90284","33.56","DUALSPOT-UV-BLUE-GREEN-RED-IR","803864","709552","905033","0.000000","0.000000","0.000000","902948","906425","837131","0.000000","0.000000","0.000000","882915","882427","832243","0.000000","0.000000","0.000000","896737","881720","889434","0.000000","0.000000","0.000000","775535","898691","966168","0.000000","0.000000","0.000000","","","","","","","","","","","","","","","","Start up"
"MA200-0420","21581","50","1","1.10","1.4","2023-05-03T16:05:01","120","2023/05/03","16:05:01","-15.791664838790894","35.01421749778092","0.1","16","30","64","40","-22770","-11608","4116","10","150","149.63","111.22","38.41","34.20","36.4","17.17","90288","33.50","DUALSPOT-UV-BLUE-GREEN-RED-IR","803011","709179","904793","0.000000","0.000000","0.000000","902510","906222","837077","0.000000","0.000000","0.000000","882938","882648","832562","0.000000","0.000000","0.000000","895116","880275","888129","0.000000","0.000000","0.000000","774799","897939","965387","0.000000","0.000000","0.000000","","","","","","","","","","","","","","","",""
"MA200-0420","21582","50","1","1.10","1.4","2023-05-03T16:05:31","120","2023/05/03","16:05:31","-15.791643857955933","35.01420749723911","0.0","16","30","64","39","-22828","-11528","4084","10","150","150.08","110.74","39.34","34.16","36.0","16.97","90288","33.50","DUALSPOT-UV-BLUE-GREEN-RED-IR","801729","708462","904111","0.083218","0.026952","0.000000","900645","904668","835781","0.046998","0.016885","0.000000","881822","881795","831915","0.039350","0.015628","0.000000","894495","879877","887802","0.030553","0.011582","0.000000","774357","897540","965059","0.017601","0.006497","0.000000","4413","4023","4413","3146","3181","3146","2950","3297","2950","2768","2953","2768","2220","2307","2220",""
"MA200-0420","21583","50","1","1.10","1.4","2023-05-03T16:06:01","120","2023/05/03","16:06:01","-15.791648507118225","35.014211998321116","0.0","16","30","64","39","-22860","-11472","4100","10","150","150.28","111.18","39.10","34.11","35.7","16.79","90288","33.44","DUALSPOT-UV-BLUE-GREEN-RED-IR","806052","712778","909938","0.186687","0.059087","0.000000","899429","903780","835148","0.107216","0.037145","0.000000","880535","880761","831087","0.089806","0.033426","0.000000","892457","878074","886093","0.069433","0.025066","0.000000","773463","896616","964123","0.040023","0.013522","0.000000","5466","4827","5466","4015","3841","4015","3767","3779","3767","3508","3459","3508","2817","2509","2817",""
"MA200-0420","21584","50","1","1.10","1.4","2023-05-03T16:06:31","120","2023/05/03","16:06:31","-15.791661858558655","35.01421549823135","0.0","16","30","64","39","-22950","-11537","3875","10","150","149.63","110.94","38.69","34.07","35.4","16.64","90288","33.38","DUALSPOT-UV-BLUE-GREEN-RED-IR","803570","711097","908097","0.291058","0.091337","0.000000","903920","908733","839910","0.176125","0.061702","0.000000","884176","884748","834993","0.147050","0.052302","0.000000","899008","884828","893062","0.116336","0.040525","0.000000","772753","895968","963528","0.069997","0.024060","0.000000","5525","4896","5525","4604","4705","4604","4283","4051","4283","4241","4009","4241","3774","3805","3774",""
"MA200-0420","21585","50","1","1.10","1.4","2023-05-03T16:07:01","120","2023/05/03","16:07:01","-15.79167777299881","35.01422466430813","0.0","16","30","64","39","-22876","-11676","4284","10","150","149.89","110.98","38.91","34.03","35.2","16.49","90292","33.38","DUALSPOT-UV-BLUE-GREEN-RED-IR","802540","710667","907840","0.394068","0.122396","0.000000","903075","908378","839789","0.250649","0.084799","0.000000","882923","883914","834390","0.211626","0.072419","0.000000","896684","882852","891228","0.167697","0.055384","0.000000","772073","895413","963036","0.103340","0.033367","0.000000","5451","4688","5451","4978","4400","4978","4830","4292","4830","4643","3831","4643","4196","3341","4196",""
"MA200-0420","21586","50","1","1.10","1.4","2023-05-03T16:07:31","120","2023/05/03","16:07:31","-15.7916778922081","35.0142173320055","0.0","15","30","64","39","-22950","-11570","3816","10","150","149.63","111.14","38.49","33.99","35.0","16.36","90296","33.38","DUALSPOT-UV-BLUE-GREEN-RED-IR","798203","707398","903907","0.500557","0.156158","0.000000","898691","904388","836307","0.323992","0.107747","0.000000","880076","881420","832224","0.275838","0.095110","0.000000","893755","880300","888771","0.220465","0.072834","0.000000","770137","893375","960958","0.136205","0.044854","0.000000","5627","5152","5627","4892","4419","4892","4796","4894","4796","4763","4548","4763","4131","4169","4131",""
"MA200-0420","21587","50","1","1.10","1.4","2023-05-03T16:08:01","120","2023/05/03","16:08:01","-15.791673302650452","35.014193831942976","0.1","15","30","64","39","-22888","-11594","4122","10","150","149.87","111.45","38.43","33.94","34.8","16.22","90296","33.31","DUALSPOT-UV-BLUE-GREEN-RED-IR","798596","708395","905627","0.632134","0.198757","0.000000","899244","905590","837728","0.424676","0.143194","0.000000","880160","882088","833118","0.366658","0.125300","0.000000","894024","881030","889758","0.294417","0.097725","0.000000","774995","899326","967518","0.186862","0.061116","0.000000","6934","6511","6934","6697","6838","6697","6765","6522","6765","6657","6498","6657","6349","5911","6349",""
"MA200-0420","21588","50","1","1.10","1.4","2023-05-03T16:08:31","120","2023/05/03","16:08:31","-15.791675925254822","35.01421216502786","0.1","15","30","64","39","-22896","-11660","4039","10","150","149.50","110.98","38.52","33.90","34.5","16.07","90296","33.25","DUALSPOT-UV-BLUE-GREEN-RED-IR","795823","706853","904175","0.818113","0.254837","0.000000","896444","903669","836357","0.570291","0.189405","0.000000","877942","880607","832071","0.492912","0.165879","0.000000","890890","878566","887587","0.400394","0.130944","0.000000","773282","897791","966099","0.258344","0.084279","0.000000","9842","8551","9842","9726","8893","9726","9445","8746","9445","9580","8652","9580","8997","8400","8997",""
"MA200-0420","21589","50","1","1.10","1.4","2023-05-03T16:09:01","120","2023/05/03","16:09:01","-15.79168027639389","35.01421283185482","0.0","15","30","64","39","-22066","-12908","4554","10","150","150.54","111.26","39.28","33.86","34.3","15.95","90300","33.25","DUALSPOT-UV-BLUE-GREEN-RED-IR","799186","710511","909310","0.970542","0.304538","0.000000","900532","908432","841033","0.682389","0.227189","0.000000","875647","878843","830674","0.590676","0.199139","0.000000","889440","877562","886782","0.480866","0.157861","0.000000","772450","897130","965561","0.310987","0.103445","0.000000","8047","7431","8047","7469","7130","7469","7295","7029","7295","7256","6874","7256","6609","6815","6609",""
"MA200-0420","21590","50","1","1.10","1.4","2023-05-03T16:09:31","120","2023/05/03","16:09:31","-15.791581928730011","35.01426916383207","1.8","15","30","64","39","-22680","-13051","2792","10","150","149.35","110.85","38.50","33.80","34.2","15.85","90300","33.19","DUALSPOT-UV-BLUE-GREEN-RED-IR","797160","709391","908201","1.103363","0.345872","0.000000","898205","906684","839695","0.781529","0.258737","0.000000","874286","878022","830114","0.680500","0.228703","0.000000","894410","882916","892411","0.554287","0.181232","0.000000","771640","896481","964991","0.359153","0.119060","0.000000","7037","6306","7037","6629","6075","6629","6727","6375","6727","6644","6090","6644","6069","5666","6069",""
"MA200-0420","21591","50","1","1.10","1.4","2023-05-03T16:10:01","120","2023/05/03","16:10:01","-15.79098105430603","35.01436549797654","2.5","15","30","64","39","-22795","-11491","4408","10","150","149.94","111.24","38.70","33.77","34.3","15.84","90312","33.19","DUALSPOT-UV-BLUE-GREEN-RED-IR","793935","707493","906378","1.278222","0.401496","0.000000","895608","905094","838660","0.922381","0.305604","0.000000","876758","881369","833687","0.802916","0.268745","0.000000","892527","881785","891605","0.657469","0.214563","0.000000","770150","895179","963912","0.430967","0.144830","0.000000","9232","8441","9232","9386","8977","9386","9136","8589","9136","9305","8640","9305","9018","9301","9018",""
"MA200-0420","21592","50","1","1.10","1.4","2023-05-03T16:10:31","120","2023/05/03","16:10:31","-15.788794219493866","35.013784332200885","3.6","15","30","64","39","-23792","-7811","6475","10","150","150.15","111.18","38.97","33.74","34.3","15.83","90396","33.13","DUALSPOT-UV-BLUE-GREEN-RED-IR","791330","706824","906514","1.641348","0.517433","0.000000","893371","904466","838835","1.210719","0.397110","0.000000","874241","880226","833252","1.060867","0.351553","0.000000","889174","879644","890030","0.872818","0.283718","0.000000","768306","893897","962933","0.578252","0.190804","0.000000","19184","17474","19184","19226","17407","19226","19262","17641","19262","19433","17803","19433","18506","16480","18506",""
"MA200-0420","21593","50","1","1.10","1.4","2023-05-03T16:11:01","120","2023/05/03","16:11:01","-15.78797334432602","35.01338966563344","4.0","15","30","64","39","-23996","-11176","1388","10","150","149.63","111.22","38.41","33.72","34.4","15.87","90408","33.13","DUALSPOT-UV-BLUE-GREEN-RED-IR","787244","704899","905074","1.976563","0.623216","0.000000","889388","902113","837395","1.466351","0.479882","0.000000","872297","879689","833392","1.284444","0.423574","0.000000","887635","879346","890281","1.057891","0.344099","0.000000","767684","894009","963476","0.706226","0.230619","0.000000","17703","16176","17703","17039","15975","17039","16690","15567","16690","16695","15771","16695","16074","14480","16074",""
"MA200-0420","21594","50","1","1.10","1.4","2023-05-03T16:11:31","120","2023/05/03","16:11:31","-15.786994516849518","35.014503666199744","9.9","15","30","64","38","-21388","-14540","4472","10","150","150.15","111.14","39.01","33.71","34.5","15.91","90332","33.13","DUALSPOT-UV-BLUE-GREEN-RED-IR","775024","700235","903097","3.304632","1.062624","-0.027961","877895","896975","835625","2.543091","0.837307","0.000000","862527","875568","832143","2.242869","0.742316","0.000000","878459","875028","888264","1.861360","0.609460","0.000000","762021","890879","961884","1.267423","0.412085","0.000000","70188","66160","64251","71823","67924","71823","71597","67836","71597","72532","68247","72532","70540","64983","70540",""
"MA200-0420","21595","50","1","1.10","1.4","2023-05-03T16:12:01","120","2023/05/03","16:12:01","-15.785837888717651","35.0160248298198","8.4","15","30","64","39","-21992","-13364","4264","10","150","149.32","111.10","38.22","33.68","34.5","15.90","90208","33.13","DUALSPOT-UV-BLUE-GREEN-RED-IR","773354","700783","905077","3.742426","1.205949","-0.020517","876755","897796","837318","2.878666","0.948524","0.000000","861394","876118","833461","2.535599","0.836980","0.000000","878337","876315","890306","2.102224","0.688261","0.000000","761937","891786","963328","1.434595","0.464464","0.000000","23145","22027","21495","22392","21572","22392","21875","20564","21875","21751","20686","21751","21020","19145","21020",""
"MA200-0420","21596","50","1","1.10","1.4","2023-05-03T16:12:31","120","2023/05/03","16:12:31","-15.785688519477844","35.01788882724941","11.0","15","30","64","38","-22480","-12764","4328","10","150","149.53","111.12","38.42","33.67","34.5","15.86","90152","33.13","DUALSPOT-UV-BLUE-GREEN-RED-IR","768067","699509","905736","4.468263","1.448173","-0.012129","872145","896633","837822","3.439462","1.134598","-0.018595","856912","874537","833374","3.025723","0.999939","-0.020057","874563","875018","890228","2.506320","0.820522","0.000000","759888","891134","963542","1.714901","0.555013","0.000000","38367","37034","36395","37414","35907","35165","36620","35217","34525","36486","34541","36486","35240","32926","35240",""
"MA200-0420","21597","50","1","1.10","1.4","2023-05-03T16:13:01","120","2023/05/03","16:13:01","-15.785667538642883","35.02065316028893","9.8","15","30","64","39","-23620","-10000","3904","10","150","150.00","111.75","38.26","33.67","34.4","15.82","90080","33.13","DUALSPOT-UV-BLUE-GREEN-RED-IR","765478","698688","905600","4.843834","1.570253","-0.016702","870254","896097","838020","3.720683","1.226621","-0.018985","854591","873394","832853","3.270900","1.079285","-0.027204","872256","873700","889370","2.709365","0.887537","0.000000","758563","890306","963014","1.853160","0.597359","0.000000","19740","18742","18263","18656","17831","17425","18215","17218","16727","18229","17573","18229","17284","15462","17284",""
"MA200-0420","21598","50","1","1.10","1.4","2023-05-03T16:13:31","120","2023/05/03","16:13:31","-15.784077823162079","35.02258783020079","6.6","16","30","64","39","-22629","-12233","4083","10","150","149.73","111.21","38.52","33.66","34.3","15.76","90084","33.13","DUALSPOT-UV-BLUE-GREEN-RED-IR","763871","698107","905405","5.046324","1.634807","-0.026440","868757","895419","837752","3.871077","1.275563","-0.025608","853633","873134","832950","3.405953","1.122939","-0.032481","872368","874409","890400","2.818670","0.922282","0.000000","758671","890900","963849","1.929994","0.620158","0.000000","10694","9843","9435","10025","9419","9121","10082","9409","9078","9860","9049","9860","9651","8268","9651",""
"MA200-0420","21599","50","1","1.10","1.4","2023-05-03T16:14:01","120","2023/05/03","16:14:01","-15.784596383571625","35.024079164490104","11.4","15","30","64","38","-23372","-10800","3696","10","150","150.08","111.97","38.12","33.66","34.2","15.72","90160","33.13","DUALSPOT-UV-BLUE-GREEN-RED-IR","761432","697742","906101","5.415210","1.758634","-0.003887","866639","895079","838294","4.157841","1.371413","-0.006684","851517","872582","833155","3.654629","1.204824","-0.014035","869988","873391","890010","3.026166","0.990544","-0.017371","757145","890064","963420","2.075393","0.666376","0.000000","19351","19081","18952","18986","18642","18473","18439","17836","17539","18592","17968","17664","18140","16939","18140",""
"MA200-0420","21600","50","1","1.10","1.4","2023-05-03T16:14:31","120","2023/05/03","16:14:31","-15.785037577152252","35.02525216341019","9.9","15","30","64","39","-22924","-13464","2560","10","150","150.21","111.82","38.40","33.66","34.0","15.65","90132","33.19","DUALSPOT-UV-BLUE-GREEN-RED-IR","759875","697568","906666","5.665508","1.837707","-0.023689","864882","894542","838335","4.355347","1.432478","-0.039996","851027","873211","834207","3.830361","1.258760","-0.049025","870256","874575","891631","3.172826","1.032991","-0.095707","757307","890951","964657","2.180631","0.695294","0.000000","13147","12096","11591","13094","11790","11151","13047","11662","10984","13158","11091","10093","13147","10521","13147",""
"MA200-0420","21601","50","1","1.10","1.4","2023-05-03T16:15:01","120","2023/05/03","16:15:01","-15.786322832107544","35.028440829366446","14.3","14","30","64","38","-23004","-12129","3233","10","150","150.56","111.90","38.65","33.66","33.9","15.57","89976","33.19","DUALSPOT-UV-BLUE-GREEN-RED-IR","757719","697194","907185","6.028545","1.952819","-0.022911","863315","894533","839055","4.632592","1.519537","-0.033780","849044","872591","834250","4.075509","1.336395","-0.034660","868349","873831","891401","3.376031","1.096842","-0.045757","756300","890679","964765","2.326805","0.737506","0.000000","19055","17491","16742","18366","16696","15881","18188","16675","15936","18218","16572","15780","18247","15255","18247",""
"MA200-0420","21602","50","1","1.10","1.4","2023-05-03T16:15:31","120","2023/05/03","16:15:31","-15.787161827087402","35.03032166324556","4.7","14","30","64","38","-22133","-13362","4300","10","150","150.50","112.27","38.24","33.67","33.8","15.53","89916","33.19","DUALSPOT-UV-BLUE-GREEN-RED-IR","754773","696288","907160","6.421877","2.083292","-0.006259","860365","893314","838737","4.947561","1.622670","-0.012331","847402","872498","834893","4.354447","1.425099","-0.025127","860481","867282","885372","3.610962","1.170637","-0.036012","755466","890740","965328","2.496294","0.788558","0.000000","20578","20041","19783","20798","19994","19602","20627","19259","18593","20994","19362","18578","21089","18651","21089",""
"MA200-0420","21603","50","1","1.10","1.4","2023-05-03T16:16:01","120","2023/05/03","16:16:01","-15.787563621997833","35.031021328642964","5.2","14","30","64","38","-21587","-14429","4062","10","150","149.81","111.82","37.99","33.67","33.6","15.47","89884","33.25","DUALSPOT-UV-BLUE-GREEN-RED-IR","753284","696239","908007","6.690504","2.173088","-0.003623","859577","893888","839924","5.160725","1.692837","-0.009379","840868","866938","830144","4.544032","1.488459","-0.005432","865866","873728","892469","3.770014","1.222170","-0.019482","754833","890721","965687","2.610893","0.823922","0.000000","14110","13884","13776","14132","13693","13479","14076","13848","13737","14270","13610","13294","14316","13005","14316",""
"MA200-0420","21604","50","1","1.10","1.4","2023-05-03T16:16:31","120","2023/05/03","16:16:31","-15.788239598274231","35.031967494636774","6.1","14","30","64","38","-22056","-13159","4372","10","150","150.15","112.15","38.00","33.67","33.6","15.45","89812","33.25","DUALSPOT-UV-BLUE-GREEN-RED-IR","748214","694704","907984","7.355873","2.389030","-0.009030","854618","892052","839673","5.709421","1.869934","-0.013259","841785","870832","835176","5.038613","1.645833","-0.019698","856013","866314","886038","4.194795","1.355140","-0.030167","752471","889945","965720","2.930976","0.917305","0.000000","34846","33381","32676","36269","34553","33717","36612","34386","33307","37999","35110","33731","39869","34333","39869",""
"MA200-0420","21605","50","1","1.10","1.4","2023-05-03T16:17:01","120","2023/05/03","16:17:01","-15.789830207824707","35.03353815898299","5.0","14","30","64","38","-22529","-11012","5629","10","150","149.44","111.81","37.63","33.68","33.6","15.46","89688","33.25","DUALSPOT-UV-BLUE-GREEN-RED-IR","745145","694207","908944","7.742059","2.519863","0.001258","851922","891644","840508","6.011283","1.971447","-0.000190","834250","865124","830727","5.302960","1.733756","-0.003340","860786","872886","893692","4.412895","1.427370","-0.005471","751268","889830","966288","3.083231","0.965563","-0.030035","20287","20422","20487","20014","19999","19991","19629","19399","19287","19570","19258","19109","19022","17915","17410",""
"MA200-0420","21606","50","1","1.10","1.4","2023-05-03T16:17:31","120","2023/05/03","16:17:31","-15.790433645248413","35.033995158970356","3.7","14","30","64","38","-22466","-12358","4412","10","150","149.92","111.98","37.94","33.68","33.6","15.44","89700","33.25","DUALSPOT-UV-BLUE-GREEN-RED-IR","736394","690505","907219","8.794014","2.885492","0.004229","843880","887973","839302","6.866413","2.260130","-0.000766","831789","866751","834256","6.066756","1.986789","-0.005607","853096","868680","891158","5.060830","1.638126","-0.012377","746350","886578","964138","3.547977","1.119254","-0.010177","55175","56607","57307","56609","56411","56313","56627","55374","54764","58049","55735","54628","57975","56592","55955",""
"MA200-0420","21607","50","1","1.10","1.4","2023-05-03T16:18:01","120","2023/05/03","16:18:01","-15.791311204433441","35.034535992890596","4.8","14","30","64","38","-22512","-12880","3056","10","150","150.15","111.57","38.58","33.68","33.6","15.45","89728","33.25","DUALSPOT-UV-BLUE-GREEN-RED-IR","734697","690634","908552","9.283606","3.056841","0.001933","842341","888140","840297","7.259661","2.395749","-0.000523","825946","862182","830681","6.421459","2.107453","-0.003821","846768","863572","886570","5.360908","1.738654","-0.008987","746817","888162","966366","3.761762","1.186934","-0.037363","25774","26090","26245","26129","26062","26030","26394","25969","25762","26983","26145","25743","26767","24509","23468",""
"MA200-0420","21608","50","1","1.10","1.4","2023-05-03T16:18:31","120","2023/05/03","16:18:31","-15.791400849819183","35.03565115854144","5.8","14","30","64","38","-22541","-12641","3616","10","150","149.94","111.78","38.16","33.70","33.5","15.43","89744","33.31","DUALSPOT-UV-BLUE-GREEN-RED-IR","734047","690467","908683","9.417280","3.102367","-0.000394","841958","888179","840574","7.359308","2.429139","-0.003871","825485","862112","830774","6.510806","2.138996","0.007407","846749","863859","887035","5.434370","1.764661","0.009535","746724","888297","966596","3.813255","1.202056","-0.067292","7024","7006","6998","6608","6486","6425","6636","6861","6972","6593","6836","6953","6435","5535","5121",""
"MA200-0420","21609","50","1","1.10","1.4","2023-05-03T16:19:01","120","2023/05/03","16:19:01","-15.79055118560791","35.03638665750623","6.1","14","30","64","38","-22712","-13300","1508","10","150","150.22","111.89","38.33","33.71","33.4","15.40","89712","33.31","DUALSPOT-UV-BLUE-GREEN-RED-IR","734366","691077","909675","9.481207","3.122968","-0.010225","835884","882014","834858","7.403332","2.444058","-0.002207","825162","862009","830770","6.547138","2.149844","-0.036105","845989","863272","886525","5.463894","1.772691","-0.080301","746407","888033","966353","3.832130","1.206648","-0.191334","3355","3156","3059","2916","2885","2869","2695","2349","2180","2647","2101","1839","2356","1673","1359",""
"MA200-0420","21610","50","1","1.10","1.4","2023-05-03T16:19:31","120","2023/05/03","16:19:31","-15.788598477840424","35.035998325794935","7.3","14","30","64","37","-22629","-12300","3608","10","150","150.52","111.89","38.63","33.71","33.3","15.36","89596","33.31","DUALSPOT-UV-BLUE-GREEN-RED-IR","728859","686070","903166","9.518513","3.136966","0.012039","842134","888722","841279","7.429737","2.453356","0.003889","825842","862820","831620","6.569654","2.158111","0.013138","847167","864547","887876","5.482196","1.779449","0.016993","746898","888708","967111","3.847082","1.210800","-0.104005","1958","2128","2211","1749","1784","1801","1670","1776","1828","1641","1754","1809","1866","1501","1333",""
"MA200-0420","21611","50","1","1.10","1.4","2023-05-03T16:20:01","120","2023/05/03","16:20:01","-15.787610173225403","35.03591649234295","4.6","14","30","64","38","-21891","-13341","4066","10","150","149.81","111.70","38.11","33.71","33.3","15.32","89552","33.31","DUALSPOT-UV-BLUE-GREEN-RED-IR","728779","686075","903242","9.542665","3.144752","-0.009404","835794","882182","835150","7.446820","2.458024","-0.056841","825715","862747","831603","6.585668","2.163297","-0.012466","847127","864613","887917","5.493328","1.781652","-0.298692","747173","889083","967560","3.853969","1.212189","-0.383184","1270","1199","1165","1133","907","796","1190","1129","1100","999","580","378","861","509","347",""
"MA200-0420","21612","50","1","1.10","1.4","2023-05-03T16:20:31","120","2023/05/03","16:20:31","-15.786975860595703","35.03440833091736","6.4","14","30","64","38","-23354","-10875","3129","10","150","150.34","112.05","38.30","33.72","33.2","15.29","89652","33.38","DUALSPOT-UV-BLUE-GREEN-RED-IR","729091","686523","903985","9.576151","3.158907","0.027259","836611","883166","836148","7.470423","2.468097","0.036242","825897","863043","831939","6.605240","2.170562","0.017224","846949","864492","887898","5.510423","1.789059","0.051504","747403","889422","967969","3.866691","1.216976","0.033153","1755","2170","2375","1561","1949","2141","1450","1575","1636","1530","1940","2137","1586","1745","1819",""
"MA200-0420","21613","50","1","1.10","1.4","2023-05-03T16:21:01","120","2023/05/03","16:21:01","-15.786642491817474","35.032972663640976","5.4","15","30","64","38","-22929","-11829","3262","10","150","149.44","111.93","37.51","33.72","33.1","15.25","89768","33.38","DUALSPOT-UV-BLUE-GREEN-RED-IR","729186","686802","904516","9.611702","3.172266","0.015945","836175","882886","836019","7.496404","2.477800","0.019472","826323","863684","832621","6.627252","2.178353","0.011617","847644","865379","888890","5.529344","1.795965","0.021075","747683","889869","968508","3.878025","1.220115","-0.087354","1865","2091","2203","1720","1917","2014","1632","1724","1769","1695","1847","1919","1414","1169","1056",""
"MA200-0420","21614","50","1","1.10","1.4","2023-05-03T16:21:31","120","2023/05/03","16:21:31","-15.786467015743256","35.03211649507284","0.6","14","30","64","37","-21466","-15504","1891","10","150","149.82","111.81","38.01","33.72","33.0","15.21","89824","33.38","DUALSPOT-UV-BLUE-GREEN-RED-IR","727403","685347","902715","9.668610","3.192846","0.008985","834741","881553","834827","7.537114","2.491181","-0.006925","824623","862069","831152","6.664804","2.190566","-0.010368","845055","862844","886340","5.558960","1.805602","-0.012209","745608","887467","965981","3.899473","1.227861","0.021355","2989","3180","3273","2699","2609","2565","2788","2667","2608","2657","2543","2488","2679","2846","2923",""
"MA200-0420","21615","50","1","1.10","1.4","2023-05-03T16:22:01","120","2023/05/03","16:22:01","-15.78585422039032","35.032370161265135","2.2","14","30","64","37","-22260","-13148","3536","10","150","149.86","111.44","38.42","33.72","32.9","15.18","89784","33.31","DUALSPOT-UV-BLUE-GREEN-RED-IR","728666","686741","904680","9.715040","3.208755","-0.000946","836326","883417","836684","7.571920","2.503770","0.009030","825580","863221","832361","6.693080","2.201211","0.018026","847364","865333","888993","5.582593","1.813610","-0.004633","742868","884323","962562","3.915737","1.232624","-0.071929","2447","2432","2424","2315","2429","2485","2106","2300","2395","2127","2091","2073","2038","1731","1590",""
"MA200-0420","21616","50","1","1.10","1.4","2023-05-03T16:22:31","120","2023/05/03","16:22:31","-15.786040842533112","35.03305749222636","4.6","14","30","64","38","-21695","-15304","4258","10","150","149.50","111.45","38.04","33.73","32.9","15.17","89716","33.38","DUALSPOT-UV-BLUE-GREEN-RED-IR","727855","686131","903995","9.750507","3.220487","-0.004970","835292","882428","835840","7.593842","2.512252","0.021898","825556","863275","832491","6.712552","2.207136","-0.028771","847545","865637","889314","5.599653","1.819354","-0.003687","747296","889723","968449","3.927816","1.234101","-3.707175","1869","1811","1782","1458","1652","1748","1450","1292","1215","1535","1514","1504","1514","542","97",""
"MA200-0420","21617","50","1","1.10","1.4","2023-05-03T16:23:01","120","2023/05/03","16:23:01","-15.78617388010025","35.03412916138768","2.0","14","30","64","37","-19908","-15787","3736","10","150","149.62","111.75","37.86","33.73","32.9","15.15","89616","33.38","DUALSPOT-UV-BLUE-GREEN-RED-IR","727819","686204","904217","9.781679","3.232456","0.016966","835440","882739","836155","7.614170","2.518582","-0.018073","825546","863384","832608","6.729803","2.214062","0.032107","847595","865757","889488","5.613263","1.824486","0.025524","747357","889835","968583","3.936626","1.235776","-0.450363","1638","1856","1964","1348","1239","1185","1281","1518","1634","1221","1359","1426","1101","618","397",""
"MA200-0420","21618","50","1","1.10","1.4","2023-05-03T16:23:31","120","2023/05/03","16:23:31","-15.786749482154846","35.0354824885726","6.1","14","30","64","37","-23362","6245","-7470","10","150","149.90","111.84","38.06","33.74","32.8","15.12","89560","33.38","DUALSPOT-UV-BLUE-GREEN-RED-IR","729316","687753","906385","9.807571","3.242427","0.016751","837058","884578","837986","7.633488","2.525448","0.008151","825920","863912","833172","6.745229","2.218455","-0.047674","846675","864894","888659","5.626099","1.829091","0.013201","743028","884752","963065","3.944208","1.237516","-0.229243","1359","1538","1627","1280","1337","1365","1145","958","866","1151","1213","1243","947","638","497",""
"MA200-0420","21619","50","1","1.10","1.4","2023-05-03T16:24:01","120","2023/05/03","16:24:01","-15.786312401294708","35.03603798896074","5.5","14","30","64","37","-22060","10648","-5132","10","150","150.21","111.85","38.36","33.74","32.7","15.08","89524","33.38","DUALSPOT-UV-BLUE-GREEN-RED-IR","727942","686925","905569","9.904320","3.274486","-0.005391","835834","883737","837377","7.707275","2.548468","-0.020275","824801","863116","832589","6.810232","2.238804","-0.021959","846866","865416","889373","5.679224","1.844636","-0.048980","742228","884012","962393","3.978037","1.248584","-0.018107","5080","4908","4823","4890","4448","4229","4825","4403","4197","4765","4065","3728","4225","4030","3941",""
"MA200-0420","21620","50","1","1.10","1.4","2023-05-03T16:24:31","120","2023/05/03","16:24:31","-15.78541362285614","35.03558665886521","5.2","14","30","64","37","-23684","6456","-6600","10","150","149.56","111.49","38.07","33.74","32.7","15.08","89576","33.44","DUALSPOT-UV-BLUE-GREEN-RED-IR","728298","687457","906435","9.956560","3.292636","0.002569","836151","884248","837967","7.743836","2.560341","-0.010173","825680","864203","833700","6.841377","2.248418","-0.024362","847588","866304","890311","5.703061","1.852243","-0.018764","743150","885203","963699","3.995884","1.252556","-0.257510","2752","2800","2824","2431","2312","2253","2319","2096","1987","2145","2004","1937","2236","1457","1102",""
"MA200-0420","21621","50","1","1.10","1.4","2023-05-03T16:25:01","120","2023/05/03","16:25:01","-15.784678399562836","35.034945990890265","1.8","14","30","64","37","-22484","9968","-6352","10","150","149.93","111.61","38.32","33.74","32.7","15.06","89652","33.44","DUALSPOT-UV-BLUE-GREEN-RED-IR","727298","686724","905652","10.003138","3.310369","0.014004","835481","883763","837589","7.778020","2.572864","0.011715","824287","862906","832559","6.871256","2.258211","-0.010519","845894","864697","888774","5.727593","1.860035","-0.021739","741890","883807","962263","4.012228","1.257928","-0.016473","2451","2718","2850","2270","2422","2498","2222","2121","2072","2205","2040","1960","2045","1958","1918",""
"MA200-0420","21622","50","1","1.10","1.4","2023-05-03T16:25:31","120","2023/05/03","16:25:31","-15.784070312976837","35.03513365983963","4.8","14","30","64","36","-23458","7516","-6200","10","150","149.82","111.65","38.17","33.74","32.7","15.06","89672","33.44","DUALSPOT-UV-BLUE-GREEN-RED-IR","729038","688595","908237","10.051285","3.325555","-0.013013","836798","885344","839195","7.812324","2.583897","-0.012427","825821","864691","834352","6.899951","2.268058","0.000799","848084","867052","891225","5.750853","1.867926","-0.002010","743156","885433","964042","4.028219","1.261303","-0.312236","2532","2336","2239","2277","2142","2076","2133","2141","2145","2090","2073","2066","2000","1235","886",""
"MA200-0420","21623","50","1","1.10","1.4","2023-05-03T16:26:01","120","2023/05/03","16:26:01","-15.784476101398468","35.0342378243804","4.8","15","30","64","37","-22062","10170","-5841","10","150","149.84","111.61","38.23","33.74","32.6","15.05","89684","33.44","DUALSPOT-UV-BLUE-GREEN-RED-IR","728397","688136","907735","10.084616","3.336813","-0.002103","836506","885170","839113","7.834933","2.591776","0.003272","825593","864569","834286","6.920921","2.275234","-0.000171","847848","866934","891179","5.768268","1.874580","0.025351","743115","885438","964100","4.040222","1.265444","0.002591","1754","1729","1717","1501","1528","1541","1559","1558","1558","1565","1746","1833","1502","1513","1518",""
"MA200-0420","21624","50","1","1.10","1.4","2023-05-03T16:26:31","120","2023/05/03","16:26:31","-15.785322368144989","35.03369599580765","2.4","15","30","64","37","-20341","14012","-6295","10","150","150.02","111.57","38.44","33.75","32.6","15.03","89660","33.44","DUALSPOT-UV-BLUE-GREEN-RED-IR","728827","688795","908778","10.140974","3.357898","0.011210","837260","886182","840152","7.874554","2.605247","-0.002585","825693","864898","834691","6.956029","2.286672","-0.012700","847626","866835","891141","5.795974","1.883599","-0.015398","743039","885473","964188","4.060218","1.270443","-0.163967","2966","3221","3347","2632","2597","2580","2612","2470","2400","2491","2353","2287","2503","1816","1503",""
"MA200-0420","21625","50","1","1.10","1.4","2023-05-03T16:27:01","120","2023/05/03","16:27:01","-15.785495162010193","35.03453432768583","5.6","15","30","64","37","-21312","11420","-4980","10","150","149.82","111.77","38.05","33.75","32.5","15.01","89588","33.44","DUALSPOT-UV-BLUE-GREEN-RED-IR","728795","688889","909007","10.171377","3.367605","-0.010088","837233","886269","840339","7.897201","2.614081","0.022645","825725","865008","834857","6.974648","2.293914","0.025105","847375","866699","891032","5.812054","1.888942","-0.006324","743225","885771","964542","4.071371","1.273698","-0.064251","1597","1498","1449","1502","1720","1829","1383","1580","1676","1443","1408","1392","1393","1195","1104",""
"MA200-0420","21626","50","1","1.10","1.4","2023-05-03T16:27:31","120","2023/05/03","16:27:31","-15.785710215568542","35.035821821540594","4.2","15","30","64","36","-22288","10340","-6196","10","150","149.60","111.49","38.11","33.75","32.5","15.00","89556","33.44","DUALSPOT-UV-BLUE-GREEN-RED-IR","728059","688344","908372","10.204372","3.380046","0.013084","836672","885825","839958","7.920583","2.622109","0.000833","825269","864653","834553","6.994669","2.300173","-0.020892","848324","867755","892189","5.829303","1.895107","0.010823","742894","885425","964186","4.082197","1.277075","-0.035756","1738","1917","2006","1554","1561","1565","1490","1363","1300","1552","1622","1656","1356","1237","1183",""
"MA200-0420","21627","50","1","1.10","1.4","2023-05-03T16:28:01","120","2023/05/03","16:28:01","-15.785863697528839","35.03648065775633","3.7","15","30","64","36","-22240","10052","-5696","10","150","150.08","111.86","38.22","33.75","32.4","14.96","89548","33.44","DUALSPOT-UV-BLUE-GREEN-RED-IR","728474","688884","909186","10.236486","3.391374","0.004521","836931","886245","840413","7.942606","2.628505","-0.036369","825842","865345","835297","7.014079","2.306962","0.004874","848606","868093","892636","5.845741","1.901848","0.039170","743624","886389","965317","4.095319","1.280619","-0.107102","1686","1740","1768","1459","1240","1132","1440","1474","1491","1474","1769","1912","1638","1295","1139",""
"MA200-0420","21628","50","1","1.10","1.4","2023-05-03T16:28:31","120","2023/05/03","16:28:31","-15.78521740436554","35.03713649138808","0.5","15","30","64","36","-23216","7912","-5466","10","150","150.08","111.94","38.13","33.75","32.4","14.94","89572","33.50","DUALSPOT-UV-BLUE-GREEN-RED-IR","727627","689039","910074","10.405563","3.449087","0.000286","829049","878936","834020","8.088424","2.678710","0.001943","819852","860015","830631","7.146276","2.351826","-0.000790","847591","867935","892849","5.958279","1.938382","-0.012579","742972","886269","965467","4.178701","1.306040","-0.043158","8871","8889","8897","9656","9759","9810","9804","9767","9749","10086","9611","9382","10405","9312","8815",""
"MA200-0420","21629","50","1","1.10","1.4","2023-05-03T16:29:01","120","2023/05/03","16:29:01","-15.784777224063873","35.036690320819616","2.3","15","30","64","36","-22758","9058","-7183","10","150","149.82","112.01","37.82","33.75","32.3","14.92","89616","33.44","DUALSPOT-UV-BLUE-GREEN-RED-IR","724839","687284","908365","10.625589","3.527872","0.007826","833561","884736","840027","8.279618","2.745628","0.006284","818478","859468","830549","7.322105","2.412671","0.004900","840084","861029","886162","6.111720","1.990495","0.001435","742218","885958","965492","4.291569","1.344406","0.002287","11538","12237","12584","12654","13118","13349","13033","13358","13518","13744","13826","13865","14076","14172","14216",""
"MA200-0420","21630","50","1","1.10","1.4","2023-05-03T16:29:31","120","2023/05/03","16:29:31","-15.784092724323273","35.03600899502635","3.6","15","30","64","36","-22395","8829","-7595","10","150","150.02","111.65","38.37","33.76","32.3","14.93","89668","33.44","DUALSPOT-UV-BLUE-GREEN-RED-IR","723606","686810","908280","10.788679","3.584085","0.000423","831706","883564","839288","8.419471","2.793824","0.000513","816691","858294","829804","7.451065","2.456784","-0.000913","844213","865893","891525","6.225426","2.027711","-0.012177","740844","884825","964463","4.379286","1.372039","-0.031486","8579","8605","8619","9285","9312","9326","9589","9546","9524","10217","9732","9497","10975","10061","9645",""
"MA200-0420","21631","50","1","1.10","1.4","2023-05-03T16:30:01","120","2023/05/03","16:30:01","-15.783594369888306","35.035492826253176","2.1","15","30","64","36","-22688","7204","-6875","10","150","149.50","111.49","38.01","33.75","32.2","14.88","89716","33.44","DUALSPOT-UV-BLUE-GREEN-RED-IR","718588","682530","902934","10.903519","3.622930","-0.001070","832673","885105","841022","8.516566","2.826172","-0.004126","817434","859549","831213","7.540186","2.485644","-0.010687","838672","860617","886266","6.302410","2.053070","-0.008337","741395","885834","965714","4.434387","1.388920","-0.038998","6049","6003","5980","6456","6309","6236","6636","6304","6141","6927","6694","6581","6903","6204","5886",""
"MA200-0420","21632","50","1","1.10","1.4","2023-05-03T16:30:31","120","2023/05/03","16:30:31","-15.78286325931549","35.03601232916117","4.3","15","30","64","36","-23779","9883","-5170","10","150","149.67","111.86","37.81","33.76","32.2","14.89","89768","33.44","DUALSPOT-UV-BLUE-GREEN-RED-IR","717518","681847","902255","10.984516","3.652883","0.011250","831890","884614","840719","8.580695","2.848547","0.005380","816598","858981","830820","7.597509","2.505439","0.004123","844252","866608","892607","6.352229","2.071191","0.015983","740822","885321","965272","4.471687","1.400669","-0.024624","4253","4653","4852","4249","4387","4455","4254","4346","4392","4468","4808","4973","4658","4340","4196",""
"MA200-0420","21633","50","1","1.10","1.4","2023-05-03T16:31:01","120","2023/05/03","16:31:01","-15.78245335817337","35.036446157842875","0.1","15","30","64","36","-21604","11084","-5068","10","150","149.75","111.76","37.98","33.76","32.2","14.87","89740","33.44","DUALSPOT-UV-BLUE-GREEN-RED-IR","718268","682743","903571","11.026314","3.666938","-0.001458","826149","878639","835125","8.610142","2.857786","-0.015093","816538","859051","830949","7.625443","2.515238","0.006007","844123","866580","892641","6.374917","2.078607","-0.009422","740770","885344","965342","4.487659","1.404815","-0.116701","2196","2173","2161","1953","1803","1728","2075","2141","2174","2036","1958","1921","1996","1524","1310",""
"MA200-0420","21634","50","1","1.10","1.4","2023-05-03T16:31:31","120","2023/05/03","16:31:31","-15.7823366522789","35.03657782450318","2.1","15","30","64","36","-21441","11350","-5887","10","150","150.01","111.49","38.52","33.76","32.2","14.85","89724","33.44","DUALSPOT-UV-BLUE-GREEN-RED-IR","724210","688502","911326","11.060148","3.678457","-0.002038","826402","879064","835589","8.632727","2.865368","-0.005148","816992","859656","831571","7.643713","2.519941","-0.080346","837912","860307","886188","6.390851","2.082070","-0.191513","741298","886079","966183","4.497913","1.406933","-0.313667","1782","1756","1743","1501","1459","1437","1360","1013","842","1433","901","644","1284","768","532",""
"MA200-0420","21635","50","1","1.10","1.4","2023-05-03T16:32:01","120","2023/05/03","16:32:01","-15.78209364414215","35.037048157304525","1.9","15","30","64","36","-21332","10836","-7211","10","150","150.60","112.12","38.48","33.76","32.1","14.83","89700","33.50","DUALSPOT-UV-BLUE-GREEN-RED-IR","718060","682859","903972","11.097765","3.692188","0.007842","825254","878006","834669","8.658415","2.873802","-0.008003","816296","859053","831046","7.665277","2.527875","0.012659","838061","860588","886555","6.407986","2.088283","0.012077","741098","885901","966035","4.511310","1.411756","0.014732","1970","2095","2158","1698","1624","1588","1596","1711","1768","1533","1619","1661","1669","1750","1788",""
"MA200-0420","21636","50","1","1.10","1.4","2023-05-03T16:32:31","120","2023/05/03","16:32:31","-15.782710194587708","35.03696999326348","4.1","15","30","64","36","-22312","7850","-8600","10","150","150.02","111.57","38.44","33.77","32.1","14.82","89668","33.50","DUALSPOT-UV-BLUE-GREEN-RED-IR","722792","687535","910300","11.138756","3.706499","0.001741","825564","878487","835195","8.687800","2.883154","-0.014865","815774","858654","830757","7.691736","2.535611","-0.037943","837519","860136","886121","6.428795","2.093638","-0.093517","740533","885327","965431","4.525480","1.415214","-0.163001","2157","2186","2200","1952","1803","1729","1968","1670","1524","1871","1397","1168","1774","1256","1020",""
"MA200-0420","21637","50","1","1.10","1.4","2023-05-03T16:33:01","120","2023/05/03","16:33:01","-15.783456921577454","35.036654487252235","3.4","15","30","64","36","-22208","9691","-6491","10","150","149.89","111.85","38.04","33.77","32.1","14.82","89680","33.50","DUALSPOT-UV-BLUE-GREEN-RED-IR","717381","682546","903787","11.175919","3.720279","0.010673","825134","878181","834982","8.713189","2.891725","-0.001274","815928","858926","831071","7.712958","2.542662","-0.004604","838582","861280","887388","6.446189","2.099839","0.010387","741294","886321","966532","4.536838","1.418256","-0.098587","1951","2127","2215","1682","1670","1664","1575","1539","1521","1560","1635","1672","1418","1117","980",""
"MA200-0420","21638","50","1","1.10","1.4","2023-05-03T16:33:31","120","2023/05/03","16:33:31","-15.784096002578735","35.03700132668018","3.8","15","30","64","36","-20912","11887","-5962","10","150","149.84","111.65","38.19","33.77","32.1","14.80","89624","33.50","DUALSPOT-UV-BLUE-GREEN-RED-IR","716917","682257","903547","11.212883","3.733383","0.004613","825329","878551","835372","8.739091","2.900588","0.000074","816428","859609","831772","7.736346","2.550334","-0.008436","837839","860660","886785","6.465919","2.106115","-0.017923","741221","886315","966572","4.550258","1.421961","-0.085682","1944","2015","2050","1719","1720","1720","1739","1667","1632","1773","1648","1588","1679","1355","1208",""
"MA200-0420","21639","50","1","1.10","1.4","2023-05-03T16:34:01","120","2023/05/03","16:34:01","-15.78471702337265","35.037638656795025","1.2","15","30","64","36","-20275","12420","-7370","10","150","149.41","111.53","37.88","33.77","32.0","14.78","89512","33.50","DUALSPOT-UV-BLUE-GREEN-RED-IR","717337","682836","904410","11.250072","3.746898","0.008460","825593","878984","835858","8.763189","2.907455","-0.036212","816031","859314","831543","7.757868","2.555334","-0.114722","837936","860876","887048","6.483573","2.111250","-0.041719","740792","885891","966107","4.562599","1.424379","-0.350373","1958","2095","2164","1601","1343","1215","1602","1096","847","1588","1360","1249","1545","891","594",""
"MA200-0420","21640","50","1","1.10","1.4","2023-05-03T16:34:31","120","2023/05/03","16:34:31","-15.78390783071518","35.0382288210094","5.7","15","30","64","35","-22528","8888","-6608","10","150","149.69","111.22","38.47","33.78","32.0","14.79","89468","33.50","DUALSPOT-UV-BLUE-GREEN-RED-IR","714282","680208","901130","11.303093","3.764564","-0.005178","822526","875939","833116","8.797736","2.919965","0.007442","814279","857658","830069","7.785713","2.564966","-0.000015","836205","859291","885484","6.505911","2.117477","-0.062129","739783","884808","965004","4.579155","1.429555","-0.035502","2800","2696","2645","2302","2410","2464","2078","2078","2078","2015","1623","1435","2079","1879","1788",""
"MA200-0420","21641","50","1","1.10","1.4","2023-05-03T16:35:01","120","2023/05/03","16:35:01","-15.782881140708923","35.03840382397175","2.4","15","30","64","36","-23708","6432","-5350","10","150","149.74","111.45","38.29","33.77","32.0","14.78","89516","33.50","DUALSPOT-UV-BLUE-GREEN-RED-IR","716533","682686","904708","11.379316","3.794128","0.014241","825012","878933","836134","8.853734","2.940577","0.010898","815503","859249","831779","7.835542","2.584046","0.018616","837097","860434","886820","6.547989","2.132464","0.007882","740110","885376","965753","4.609573","1.440397","0.011183","4017","4535","4794","3724","3990","4122","3712","4136","4346","3787","3926","3994","3812","3955","4020",""
"MA200-0420","21642","50","1","1.10","1.4","2023-05-03T16:35:31","120","2023/05/03","16:35:31","-15.781636357307434","35.038226153701544","4.5","15","30","64","36","-23212","9208","-8004","10","150","150.08","112.16","37.92","33.78","32.0","14.79","89624","33.50","DUALSPOT-UV-BLUE-GREEN-RED-IR","715623","682285","904498","11.495014","3.835416","0.006704","824154","878478","835962","8.947190","2.973836","0.008182","814158","858265","831035","7.919410","2.612346","-0.000343","836354","860029","886614","6.619245","2.157641","0.009484","739778","885277","965783","4.662130","1.457926","-0.004259","6058","6395","6564","6176","6502","6664","6207","6196","6190","6373","6661","6800","6545","6458","6418",""
"MA200-0420","21643","50","1","1.10","1.4","2023-05-03T16:36:01","120","2023/05/03","16:36:01","-15.780344903469086","35.03848749026656","5.9","15","30","64","36","-23075","8516","-6579","10","150","150.15","111.33","38.81","33.77","31.9","14.74","89624","33.44","DUALSPOT-UV-BLUE-GREEN-RED-IR","715492","682473","904989","11.561445","3.860275","0.008586","823930","878529","836117","8.992469","2.990513","0.008688","814160","858473","831346","7.958302","2.628249","0.025784","836242","860075","886750","6.648806","2.169623","0.029265","739818","885491","966066","4.683000","1.462517","-0.247217","3504","3761","3890","3014","3185","3270","2900","3401","3648","2663","3097","3307","2618","1652","1213",""
"MA200-0420","21644","50","1","1.10","1.4","2023-05-03T16:36:31","120","2023/05/03","16:36:31","-15.779718220233917","35.03812465816736","6.8","15","30","64","35","-23258","7654","-6820","10","150","150.35","111.90","38.45","33.78","31.9","14.75","89696","33.50","DUALSPOT-UV-BLUE-GREEN-RED-IR","714945","682357","905157","11.657164","3.894331","0.004342","823637","878569","836315","9.050670","3.009277","-0.011254","814031","858608","831610","8.005465","2.643180","-0.016611","835864","859942","886706","6.686986","2.180058","-0.065162","739636","885401","966046","4.707863","1.469243","-0.095087","5024","5202","5291","3855","3617","3499","3499","3224","3088","3423","2722","2384","3103","2443","2143",""
"MA200-0420","21645","50","1","1.10","1.4","2023-05-03T16:37:01","120","2023/05/03","16:37:01","-15.780867040157318","35.03705149143934","4.8","15","30","64","35","-22570","7225","-7537","10","150","149.65","111.83","37.81","33.78","31.9","14.75","89772","33.50","DUALSPOT-UV-BLUE-GREEN-RED-IR","712845","680623","903037","11.725214","3.918813","0.007483","821563","876568","834521","9.090474","3.022903","0.002007","813473","858218","831261","8.039969","2.653760","-0.020089","836379","860577","887453","6.712026","2.188490","-0.000909","739758","885634","966318","4.725063","1.473169","-0.189261","3574","3802","3917","2638","2671","2687","2561","2322","2205","2246","2237","2232","2148","1450","1134",""
"MA200-0420","21646","50","1","1.10","1.4","2023-05-03T16:37:31","120","2023/05/03","16:37:31","-15.781667053699493","35.03663715347648","2.0","15","30","64","35","-21562","11008","-6187","10","150","150.08","111.61","38.47","33.78","31.9","14.73","89752","33.50","DUALSPOT-UV-BLUE-GREEN-RED-IR","714122","682012","905051","11.768515","3.934188","0.003700","823193","878440","836410","9.122542","3.034043","0.001301","813491","858347","831519","8.068101","2.664357","0.015129","835820","860124","887053","6.736553","2.196874","-0.001821","739469","885427","966137","4.742243","1.478581","-0.030070","2278","2347","2382","2129","2147","2155","2092","2287","2383","2204","2186","2178","2150","1965","1881",""
"MA200-0420","21647","50","1","1.10","1.4","2023-05-03T16:38:01","120","2023/05/03","16:38:01","-15.782346844673157","35.03735315799713","5.8","15","30","64","36","-21604","10795","-7654","10","150","150.02","111.61","38.41","33.78","31.8","14.71","89648","33.50","DUALSPOT-UV-BLUE-GREEN-RED-IR","712548","680679","903357","11.804295","3.947731","0.011036","821548","876857","834989","9.149459","3.044158","0.013219","813591","858607","831808","8.091815","2.671778","-0.019378","836435","860877","887849","6.757051","2.203881","-0.001483","739846","885962","966748","4.755871","1.481937","-0.148107","1882","2070","2165","1787","1952","2033","1764","1603","1524","1842","1830","1824","1705","1220","1000",""
"MA200-0420","21648","50","1","1.10","1.4","2023-05-03T16:38:31","120","2023/05/03","16:38:31","-15.782736122608185","35.03795699030161","4.3","15","30","64","35","-20992","11108","-5892","10","150","149.44","111.57","37.87","33.78","31.8","14.69","89564","33.50","DUALSPOT-UV-BLUE-GREEN-RED-IR","712121","680407","903129","11.839470","3.960531","0.008269","820839","876244","834451","9.174311","3.052246","-0.007134","811774","856824","830141","8.112561","2.678561","-0.007128","833816","858279","885236","6.772350","2.209217","0.005813","738080","883899","964540","4.768089","1.486229","0.010187","1851","1985","2052","1651","1583","1549","1543","1487","1459","1375","1413","1432","1529","1583","1607",""
"MA200-0420","21649","50","1","1.10","1.4","2023-05-03T16:39:01","120","2023/05/03","16:39:01","-15.782520353794098","35.03889615833759","4.3","15","30","64","35","-22632","8179","-7572","10","150","149.74","111.36","38.37","33.79","31.8","14.68","89496","33.50","DUALSPOT-UV-BLUE-GREEN-RED-IR","713082","681585","904897","11.880461","3.974931","0.002404","822080","877831","836110","9.205909","3.063315","0.002635","813266","858625","832010","8.139541","2.688020","0.003125","835758","860480","887614","6.794791","2.216140","-0.027084","739610","885901","966820","4.784477","1.491485","-0.023384","2161","2204","2225","2103","2138","2155","2011","2046","2063","2021","1809","1707","2055","1913","1848",""
"MA200-0420","21650","50","1","1.10","1.4","2023-05-03T16:39:31","120","2023/05/03","16:39:31","-15.780996203422546","35.03901616111398","6.8","15","30","64","35","-22344","9648","-5876","10","150","150.15","111.74","38.41","33.79","31.7","14.66","89528","33.50","DUALSPOT-UV-BLUE-GREEN-RED-IR","712490","681273","904649","11.955761","4.003526","0.011377","821792","877772","836177","9.261554","3.082764","0.002653","812420","857913","831434","8.189852","2.704924","-0.004261","834780","859659","886848","6.838296","2.230207","-0.014120","738744","884957","965897","4.814817","1.504248","0.050992","3958","4372","4581","3691","3753","3784","3738","3653","3612","3906","3674","3562","3793","4641","5027",""
"MA200-0420","21651","50","1","1.10","1.4","2023-05-03T16:40:01","120","2023/05/03","16:40:01","-15.779397785663605","35.03906882554293","5.4","15","30","64","35","-23350","7816","-6770","10","150","150.02","111.77","38.25","33.78","31.7","14.66","89576","33.50","DUALSPOT-UV-BLUE-GREEN-RED-IR","710991","680305","903716","12.046253","4.035164","0.002618","820536","876804","835433","9.319390","3.102213","-0.002861","811806","857607","831300","8.237773","2.721327","0.000054","835159","860298","887653","6.875801","2.241841","-0.023434","738777","885207","966246","4.841888","1.510428","-0.193595","4755","4858","4910","3836","3769","3736","3559","3560","3561","3366","3051","2899","3383","2257","1746",""
"MA200-0420","21652","50","1","1.10","1.4","2023-05-03T16:40:31","120","2023/05/03","16:40:31","-15.778422176837921","35.03827865421772","2.8","15","30","64","35","-23036","7740","-5696","10","150","149.59","111.53","38.05","33.79","31.7","14.64","89652","33.44","DUALSPOT-UV-BLUE-GREEN-RED-IR","709816","680225","904378","12.256454","4.111261","0.006871","819099","876393","835571","9.479982","3.157723","0.002039","810466","857204","831328","8.377465","2.767753","-0.004798","833302","859243","886953","6.990874","2.280418","-0.003791","737893","884788","966071","4.923225","1.536793","-0.015888","11069","11746","12087","10674","10814","10884","10398","10129","9996","10351","10171","10083","10187","9679","9448",""
"MA200-0420","21653","50","1","1.10","1.4","2023-05-03T16:41:01","120","2023/05/03","16:41:01","-15.77779084444046","35.037374656647444","0.8","15","30","64","35","-22716","8216","-7262","10","150","150.08","111.77","38.31","33.78","31.6","14.61","89676","33.50","DUALSPOT-UV-BLUE-GREEN-RED-IR","709453","680361","904878","12.395519","4.156749","-0.005963","819166","876885","836255","9.582348","3.187876","-0.027872","810467","857563","831857","8.472296","2.795076","-0.036861","832724","858946","886769","7.071739","2.303109","-0.052031","737719","884795","966170","4.982256","1.551827","-0.119560","7308","6973","6805","6789","5834","5358","7044","5920","5367","7258","5942","5306","7377","5481","4623",""
"MA200-0420","21654","50","1","1.10","1.4","2023-05-03T16:41:31","120","2023/05/03","16:41:31","-15.778156340122223","35.036821987479925","5.5","15","30","64","35","-22684","7784","-7596","10","150","149.56","111.57","37.99","33.79","31.6","14.62","89688","33.50","DUALSPOT-UV-BLUE-GREEN-RED-IR","706943","678908","903715","12.586897","4.226862","0.008154","817315","875666","835410","9.693541","3.224116","-0.007069","809493","857143","831705","8.563666","2.824408","-0.010896","833319","860064","888121","7.144487","2.324155","-0.040133","737780","885221","966745","5.030020","1.564402","-0.097538","10074","10840","11227","7388","7071","6914","6799","6410","6218","6541","5558","5083","5980","4624","4012",""
"MA200-0420","21655","50","1","1.10","1.4","2023-05-03T16:42:01","120","2023/05/03","16:42:01","-15.778457522392273","35.03556249290705","6.3","15","30","64","35","-22668","8440","-5860","10","150","150.69","111.74","38.96","33.79","31.6","14.60","89696","33.50","DUALSPOT-UV-BLUE-GREEN-RED-IR","705464","677925","902677","12.724773","4.275121","0.000468","822108","881199","840863","9.785114","3.253507","-0.013796","808102","856025","830790","8.643048","2.848541","-0.027292","830567","857502","885646","7.209141","2.342929","-0.045649","736471","883881","965416","5.073419","1.576029","-0.099693","7247","7276","7291","6075","5593","5352","5898","5143","4772","5805","4834","4367","5425","4169","3603",""
"MA200-0420","21656","50","1","1.10","1.4","2023-05-03T16:42:31","120","2023/05/03","16:42:31","-15.778838038444519","35.03379865735769","7.0","15","30","64","35","-23104","7541","-7366","10","150","149.95","111.37","38.58","33.79","31.6","14.58","89660","33.50","DUALSPOT-UV-BLUE-GREEN-RED-IR","705876","679446","905412","12.935247","4.341251","-0.012569","815818","875439","835822","9.927053","3.296738","-0.022216","808209","856905","831994","8.759295","2.882975","-0.031430","832010","859669","888145","7.299506","2.370092","-0.033343","737222","885261","967090","5.136287","1.593424","-0.080168","11099","10068","9547","9447","8307","7740","8665","7410","6794","8140","7064","6546","7885","6299","5585",""
"MA200-0420","21657","50","1","1.10","1.4","2023-05-03T16:43:01","120","2023/05/03","16:43:01","-15.779209077358246","35.0321313329041","5.8","15","30","64","35","-23500","6287","-5850","10","150","150.21","111.77","38.44","33.79","31.5","14.56","89744","33.50","DUALSPOT-UV-BLUE-GREEN-RED-IR","671344","666060","905197","17.958218","6.316210","0.010072","781997","861741","836595","14.270549","4.977339","0.011280","776464","843703","831642","12.735102","4.398924","0.011171","803125","847876","887241","10.746468","3.656206","0.010598","718108","876636","966371","7.694628","2.495439","0.004652","263963","301749","322249","288091","324086","343364","295326","327391","344311","309411","335648","349178","319756","327778","331628",""
"MA200-0420","21658","50","1","1.10","1.4","2023-05-03T16:43:31","120","2023/05/03","16:43:31","-15.77967083454132","35.030505830422044","6.6","15","30","64","35","-22645","7675","-7070","10","150","150.42","111.53","38.89","33.78","31.5","14.55","89900","33.50","DUALSPOT-UV-BLUE-GREEN-RED-IR","670598","665746","905108","18.059730","6.354286","0.005791","781158","861216","836299","14.344448","5.002880","-0.000958","776259","843848","831955","12.799149","4.420387","-0.004938","803332","848407","887954","10.799394","3.673035","-0.014267","718206","876987","966827","7.731289","2.506832","-0.024821","5346","5750","5970","4912","4868","4845","4767","4582","4484","4761","4341","4125","4591","4092","3852",""
"MA200-0420","21659","50","1","1.10","1.4","2023-05-03T16:44:01","120","2023/05/03","16:44:01","-15.780487179756165","35.0290219951421","5.6","15","30","64","35","-22845","6283","-7704","10","150","150.21","111.61","38.60","33.79","31.5","14.56","89968","33.50","DUALSPOT-UV-BLUE-GREEN-RED-IR","669950","665523","905194","18.150418","6.390484","0.010586","780935","861286","836556","14.402429","5.023211","0.001449","775786","843615","831875","12.847553","4.436535","-0.004460","802180","847416","887037","10.838413","3.686548","0.000185","717589","876404","966254","7.755382","2.512827","-0.091503","4772","5507","5907","3851","3904","3933","3600","3472","3405","3507","3512","3514","3015","2169","1763",""
"MA200-0420","21660","50","1","1.10","1.4","2023-05-03T16:44:31","120","2023/05/03","16:44:31","-15.781452894210815","35.02798315882683","5.5","15","30","64","35","-23062","7366","-6741","10","150","149.91","111.43","38.48","33.79","31.5","14.56","90032","33.50","DUALSPOT-UV-BLUE-GREEN-RED-IR","667841","663964","903541","18.281062","6.442434","0.010367","778563","859214","834823","14.489256","5.054945","0.005670","775051","843245","831758","12.922659","4.463434","0.004149","802306","847922","887773","10.898511","3.706415","-0.006364","717432","876510","966506","7.797218","2.525495","-0.028565","6886","7929","8497","5776","6113","6293","5596","5803","5913","5411","5179","5060","5244","4598","4289",""
"MA200-0420","21661","50","1","1.10","1.4","2023-05-03T16:45:01","120","2023/05/03","16:45:01","-15.78258353471756","35.026805160567164","5.5","15","30","64","35","-23076","7628","-6452","10","150","149.87","111.65","38.22","33.79","31.5","14.54","90088","33.50","DUALSPOT-UV-BLUE-GREEN-RED-IR","668269","664856","905259","18.412604","6.497850","0.014275","778579","859757","835728","14.596551","5.098325","0.014918","774730","843406","832248","13.020122","4.501694","0.014077","801731","847738","887880","10.983113","3.738744","0.013652","717447","876869","967130","7.860363","2.546977","-0.001170","6919","8516","9387","7123","8414","9106","7247","8311","8873","7602","8486","8942","7900","7851","7828",""
"MA200-0420","21662","50","1","1.10","1.4","2023-05-03T16:45:31","120","2023/05/03","16:45:31","-15.783717215061188","35.0257603302598","6.7","15","30","64","35","-23979","6416","-6091","10","150","149.32","111.14","38.18","33.79","31.5","14.54","90180","33.50","DUALSPOT-UV-BLUE-GREEN-RED-IR","663930","662503","903762","18.722434","6.622461","0.011163","774163","856995","834342","14.858038","5.199551","0.010992","770781","841004","830994","13.252044","4.590124","0.010863","798022","845475","886541","11.182844","3.813017","0.009948","714781","874931","965731","8.009914","2.599540","0.004134","16374","19170","20701","17442","19655","20846","17325","19229","20238","18030","19517","20287","18798","19232","19441",""
"MA200-0420","21663","50","1","1.10","1.4","2023-05-03T16:46:01","120","2023/05/03","16:46:01","-15.784818053245544","35.02491999603808","1.4","15","30","64","35","-21741","9791","-7450","10","150","150.15","111.73","38.42","33.80","31.4","14.54","90180","33.50","DUALSPOT-UV-BLUE-GREEN-RED-IR","662954","662155","903830","19.050220","6.749393","0.008583","774366","857918","835593","15.120531","5.298292","0.008361","771082","841935","832217","13.491488","4.677558","0.006423","799289","847345","888777","11.386831","3.886370","0.005711","711088","870834","961445","8.158088","2.648934","-0.005802","17231","19406","20599","17416","19053","19937","17792","18895","19480","18317","19156","19591","18526","17960","17689",""
"MA200-0420","21664","50","1","1.10","1.4","2023-05-03T16:46:31","120","2023/05/03","16:46:31","-15.785281300544739","35.02580749616027","6.6","16","30","64","35","-22362","9745","-5850","10","150","149.53","111.57","37.96","33.80","31.4","14.54","90140","33.50","DUALSPOT-UV-BLUE-GREEN-RED-IR","661286","662234","905554","19.413984","6.895460","0.011249","772265","857422","836307","15.416398","5.413681","0.011932","768997","841300","832626","13.754580","4.778564","0.011951","796576","845919","888201","11.609470","3.968786","0.010157","709825","870364","961634","8.319826","2.706750","0.008392","19150","22600","24500","19658","22533","24089","19577","22090","23428","20020","21781","22696","20250","21276","21770",""
"MA200-0420","21665","50","1","1.10","1.4","2023-05-03T16:47:01","120","2023/05/03","16:47:01","-15.785986185073853","35.02753399685025","6.0","15","30","64","34","-22416","9362","-6300","10","150","149.84","111.31","38.53","33.80","31.4","14.54","90048","33.50","DUALSPOT-UV-BLUE-GREEN-RED-IR","657970","660198","903969","19.797240","7.049165","0.009984","769603","855857","835696","15.731229","5.537522","0.011054","766599","839929","832091","14.041673","4.889923","0.011120","795212","845559","888563","11.855335","4.062190","0.010898","712875","875020","967254","8.500696","2.769953","0.001638","20224","23432","25206","20968","23828","25382","21414","23996","25376","22161","24322","25449","22700","22916","23020",""
"MA200-0420","21666","50","1","1.10","1.4","2023-05-03T16:47:31","120","2023/05/03","16:47:31","-15.786566317081451","35.028979329392314","6.6","15","30","64","35","-22270","9529","-6483","10","150","149.62","111.21","38.41","33.80","31.5","14.55","89988","33.50","DUALSPOT-UV-BLUE-GREEN-RED-IR","657159","660458","905240","20.078726","7.160248","0.009028","768637","855966","836434","15.955116","5.620885","0.006731","765564","839811","832541","14.241976","4.964053","0.006936","793857","844999","888435","12.026587","4.122842","0.003085","712223","874930","967567","8.630257","2.812868","-0.007522","14867","16985","18158","14925","16088","16720","14954","16021","16593","15449","15841","16045","16275","15606","15283",""
"MA200-0420","21667","50","1","1.10","1.4","2023-05-03T16:48:01","120","2023/05/03","16:48:01","-15.786362707614899","35.02989782765508","6.3","15","30","64","34","-21832","10204","-6428","10","150","149.82","111.30","38.53","33.80","31.4","14.54","89944","33.50","DUALSPOT-UV-BLUE-GREEN-RED-IR","657313","661018","906396","20.200576","7.207571","0.007888","768402","856087","836862","16.054611","5.660397","0.011541","765381","839988","832963","14.332704","4.999059","0.010441","793514","844996","888650","12.104632","4.151633","0.007508","711966","874918","967690","8.689411","2.831851","-0.013968","6430","7214","7649","6627","7603","8134","6768","7543","7959","7035","7497","7738","7424","6883","6621",""
"MA200-0420","21668","50","1","1.10","1.4","2023-05-03T16:48:31","120","2023/05/03","16:48:31","-15.78644597530365","35.03145666047931","5.3","15","30","64","34","-21783","10425","-7000","10","150","150.08","111.49","38.59","33.80","31.4","14.51","89872","33.50","DUALSPOT-UV-BLUE-GREEN-RED-IR","654254","658868","904451","20.408760","7.300962","0.015462","765979","854466","836027","16.233852","5.737149","0.016532","763575","838992","832645","14.496396","5.067253","0.016448","792658","844949","889234","12.247432","4.210382","0.018231","711200","874653","967894","8.795324","2.872178","0.014712","10967","14215","16023","11918","14744","16289","12189","14671","16005","12849","15274","16544","13270","14598","15242",""
"MA200-0420","21669","50","1","1.10","1.4","2023-05-03T16:49:01","120","2023/05/03","16:49:01","-15.786562144756317","35.0325176641345","0.5","15","30","64","34","-22391","9379","-5958","10","150","149.50","111.10","38.40","33.80","31.4","14.51","89816","33.50","DUALSPOT-UV-BLUE-GREEN-RED-IR","654517","659679","906176","20.608578","7.389225","0.014669","766172","855361","837355","16.407436","5.810136","0.015299","762743","838691","832777","14.656402","5.132532","0.014822","791529","844274","888883","12.386182","4.264786","0.013734","706220","868957","961866","8.897362","2.910674","0.013455","10564","13500","15141","11582","14090","15464","11957","14113","15275","12529","14213","15098","12830","14004","14575",""
"MA200-0420","21670","50","1","1.10","1.4","2023-05-03T16:49:31","120","2023/05/03","16:49:31","-15.786591649055481","35.03249233216047","1.9","15","30","64","35","-23270","7316","-6425","10","150","150.01","111.45","38.56","33.80","31.4","14.51","89816","33.56","DUALSPOT-UV-BLUE-GREEN-RED-IR","653499","659156","905870","20.722268","7.431255","0.004652","765243","854841","837122","16.497616","5.842787","0.004062","762621","839008","833368","14.737203","5.161512","0.003611","792376","845570","890496","12.453632","4.288221","0.000498","706546","869658","962810","8.946680","2.925980","-0.020211","5991","6401","6630","5998","6276","6429","6019","6239","6357","6072","6096","6109","6181","5544","5235",""
"MA200-0420","21671","50","1","1.10","1.4","2023-05-03T16:50:01","120","2023/05/03","16:50:01","-15.786412358283997","35.0301816649735","5.1","15","30","64","34","-23328","7508","-5708","10","150","149.53","111.36","38.17","33.80","31.4","14.51","89940","33.56","DUALSPOT-UV-BLUE-GREEN-RED-IR","654287","660370","907960","20.815708","7.471542","0.013785","766226","856370","838969","16.575174","5.875981","0.016781","762731","839560","834180","14.806755","5.188918","0.012650","791389","844897","890019","12.512615","4.311535","0.015149","710318","874593","968460","8.989618","2.941358","0.006969","4928","6199","6911","5162","6447","7152","5185","5961","6380","5313","6128","6556","5386","5628","5746",""
"MA200-0420","21672","50","1","1.10","1.4","2023-05-03T16:50:31","120","2023/05/03","16:50:31","-15.786662817001343","35.02935516089201","0.1","14","30","64","34","-22964","7279","-7592","10","150","149.41","110.97","38.44","33.80","31.4","14.49","89976","33.50","DUALSPOT-UV-BLUE-GREEN-RED-IR","653105","660138","908685","20.988148","7.545645","0.013007","765181","856360","839733","16.721188","5.933976","0.011072","760787","838393","833698","14.938306","5.240023","0.010547","790422","844723","890413","12.624840","4.353494","0.008551","705431","869230","962948","9.072189","2.971179","0.006555","9127","11322","12554","9754","11184","11970","9842","11037","11683","10146","10950","11374","10394","10836","11052",""
"MA200-0420","21673","50","1","1.10","1.4","2023-05-03T16:51:01","120","2023/05/03","16:51:01","-15.786716043949127","35.029268162325025","2.7","14","30","64","34","-22660","10052","-4652","10","150","150.08","111.53","38.55","33.80","31.3","14.47","89980","33.56","DUALSPOT-UV-BLUE-GREEN-RED-IR","649932","658854","908780","21.575538","7.792648","0.011737","762093","855059","839871","17.224398","6.138062","0.012321","758578","838007","834586","15.401579","5.425393","0.012710","788488","844480","891322","13.031454","4.511101","0.012019","704226","869230","963872","9.377748","3.083391","0.009082","30933","37634","41423","33447","39246","42458","34485","39922","42879","36576","41018","43369","38271","40663","41834",""
"MA200-0420","21674","50","1","1.10","1.4","2023-05-03T16:51:31","120","2023/05/03","16:51:31","-15.785591006278992","35.02635666355491","13.3","14","30","64","33","-23741","6133","-6937","10","150","150.34","111.41","38.93","33.81","31.3","14.47","90112","33.56","DUALSPOT-UV-BLUE-GREEN-RED-IR","647185","656584","906102","21.715976","7.848396","0.008090","759286","852476","837707","17.342850","6.183600","0.007774","756418","836119","833029","15.511138","5.467004","0.007634","786125","842426","889447","13.126673","4.546737","0.007478","702425","867387","962026","9.451218","3.108150","-0.005909","7403","8411","8981","7881","8671","9109","8164","8874","9260","8574","9184","9507","9211","8884","8724",""
"MA200-0420","21675","50","1","1.10","1.4","2023-05-03T16:52:01","120","2023/05/03","16:52:01","-15.785171866416931","35.02527716383338","3.6","14","30","64","34","-22641","8766","-6433","10","150","149.77","111.48","38.29","33.81","31.3","14.47","90168","33.56","DUALSPOT-UV-BLUE-GREEN-RED-IR","648335","658521","909605","21.902226","7.927307","0.012234","760268","854492","840263","17.502682","6.248277","0.012395","756960","837548","834977","15.656461","5.523503","0.010816","786786","843897","891512","13.254710","4.594424","0.008626","702914","868637","963792","9.549961","3.142809","0.003313","9812","12104","13404","10628","12522","13573","10822","12250","13029","11522","12494","13010","12373","12644","12777",""
"MA200-0420","21676","50","1","1.10","1.4","2023-05-03T16:52:31","120","2023/05/03","16:52:31","-15.784401178359985","35.02342999726534","7.0","14","30","64","34","-22558","8912","-6025","10","150","149.89","111.45","38.43","33.81","31.3","14.47","90164","33.56","DUALSPOT-UV-BLUE-GREEN-RED-IR","646170","657280","908799","22.161144","8.035183","0.011111","758242","853276","839762","17.719304","6.335324","0.011549","755411","836762","834771","15.852271","5.600649","0.011392","786265","844136","892315","13.426766","4.660099","0.010480","702551","868853","964431","9.679564","3.188145","0.002176","13645","16486","18102","14408","16790","18115","14586","16665","17800","15488","17144","18024","16244","16478","16593",""
"MA200-0420","21677","50","1","1.10","1.4","2023-05-03T16:53:01","120","2023/05/03","16:53:01","-15.783287703990936","35.02299866080284","9.9","14","30","64","34","-22062","10829","-6687","10","150","149.76","111.37","38.38","33.82","31.3","14.49","90072","33.56","DUALSPOT-UV-BLUE-GREEN-RED-IR","643423","655737","907884","22.458946","8.157375","0.010258","755545","851569","838942","17.956754","6.428337","0.009773","752688","834932","833731","16.065186","5.682707","0.009634","782695","841325","889989","13.604311","4.725766","0.007417","700253","866813","962672","9.809074","3.233991","0.003974","15705","18699","20406","15805","17965","19169","15871","17749","18777","15993","17164","17788","16244","16686","16903",""
"MA200-0420","21678","50","1","1.10","1.4","2023-05-03T16:53:31","120","2023/05/03","16:53:31","-15.780378639698029","35.0241203289479","7.5","14","30","64","34","-22454","8762","-7716","10","150","150.00","111.07","38.93","33.82","31.3","14.49","89944","33.56","DUALSPOT-UV-BLUE-GREEN-RED-IR","641708","655878","909901","22.933308","8.351684","0.009145","754249","852095","840715","18.328652","6.574809","0.008825","750915","834760","834644","16.397635","5.810284","0.007817","781454","841606","891233","13.888275","4.831215","0.006024","699669","867305","963913","10.015018","3.305727","-0.000925","25085","29318","31743","24822","27894","29612","24850","27209","28504","25650","27177","27992","25902","25743","25664",""
"MA200-0420","21679","50","1","1.10","1.4","2023-05-03T16:54:01","120","2023/05/03","16:54:01","-15.778628647327423","35.02378966473043","6.6","15","30","64","34","-22032","9488","-7243","10","150","149.56","111.10","38.46","33.82","31.3","14.47","89876","33.56","DUALSPOT-UV-BLUE-GREEN-RED-IR","635366","650018","902405","23.130372","8.433559","0.010353","752869","851203","840330","18.488594","6.639075","0.010836","746168","830084","830392","16.542463","5.867877","0.011317","775919","836157","885830","14.012282","4.879403","0.011285","699760","867874","964811","10.108494","3.337884","-0.000945","10418","12502","13699","10672","12386","13346","10823","12431","13315","11198","12569","13301","11753","11679","11642",""
"MA200-0420","21680","50","1","1.10","1.4","2023-05-03T16:54:31","120","2023/05/03","16:54:31","-15.777606964111328","35.02312566153705","5.0","15","30","64","33","-22960","7615","-6224","10","150","149.47","111.03","38.44","33.82","31.2","14.45","89856","33.56","DUALSPOT-UV-BLUE-GREEN-RED-IR","636652","652770","907661","23.527656","8.601517","0.010992","749092","848514","838724","18.820776","6.775731","0.012086","747378","832892","834144","16.846502","5.990328","0.012010","772322","833529","883928","14.277269","4.983042","0.011647","697410","865978","963373","10.309586","3.410980","0.006755","21016","25666","28346","22178","26357","28708","22733","26450","28500","23943","27052","28719","25300","26567","27193",""
"MA200-0420","21681","50","1","1.10","1.4","2023-05-03T16:55:01","120","2023/05/03","16:55:01","-15.777057111263275","35.02178933098912","4.7","15","30","64","34","-23012","7900","-6512","10","150","149.65","111.34","38.30","33.82","31.2","14.45","89872","33.56","DUALSPOT-UV-BLUE-GREEN-RED-IR","636479","652948","908306","23.632298","8.646858","0.012291","749076","848918","839417","18.907496","6.810564","0.010980","743082","828444","829969","16.925512","6.021062","0.009969","773465","835127","885872","14.345420","5.009781","0.012382","698019","867029","964734","10.361897","3.429561","0.004479","5519","6952","7779","5773","6741","7286","5891","6661","7087","6140","7003","7467","6563","6776","6882",""
"MA200-0420","21682","50","1","1.10","1.4","2023-05-03T16:55:31","120","2023/05/03","16:55:31","-15.776305258274078","35.020576329901814","5.4","15","30","64","34","-22233","8000","-8233","10","150","149.56","110.98","38.58","33.83","31.2","14.44","89860","33.56","DUALSPOT-UV-BLUE-GREEN-RED-IR","632092","648728","902690","23.707408","8.680077","0.012670","749687","849910","840614","18.971338","6.839055","0.016198","743231","828866","830567","16.982830","6.045558","0.015464","772997","834836","885694","14.395890","5.029344","0.010430","697750","866907","964706","10.398594","3.443132","0.008366","3975","5057","5682","4264","5474","6156","4287","5271","5815","4562","5087","5368","4619","4913","5059",""
"MA200-0420","21683","50","1","1.10","1.4","2023-05-03T16:56:01","120","2023/05/03","16:56:01","-15.775590181350708","35.01951432786882","6.2","15","30","64","33","-23345","8329","-4079","10","150","149.89","110.94","38.95","33.83","31.2","14.42","89776","33.56","DUALSPOT-UV-BLUE-GREEN-RED-IR","630571","647363","901000","23.762150","8.703964","0.011665","747565","847708","838593","19.016656","6.857163","0.009343","746226","832381","834247","17.024040","6.062773","0.013376","777305","839686","891005","14.432692","5.046164","0.021968","696405","865347","963055","10.425278","3.452881","0.005509","2898","3602","4009","3028","3446","3682","3084","3669","3993","3328","4333","4873","3360","3496","3564",""
"MA200-0420","21684","50","1","1.10","1.4","2023-05-03T16:56:31","120","2023/05/03","16:56:31","-15.774512708187103","35.01852849498391","4.8","15","30","64","34","-23895","7079","-4825","10","150","149.79","110.92","38.87","33.82","31.1","14.40","89812","33.56","DUALSPOT-UV-BLUE-GREEN-RED-IR","631949","649013","903641","23.837494","8.739063","0.014353","749040","849689","840803","19.080048","6.885850","0.016416","742623","828678","830728","17.082454","6.086945","0.012842","778822","841543","893143","14.480128","5.063849","0.006179","697630","867076","965156","10.461189","3.467862","0.021191","3989","5303","6064","4236","5471","6168","4372","5163","5600","4290","4564","4712","4522","5383","5811",""
"MA200-0420","21685","50","1","1.10","1.4","2023-05-03T16:57:01","120","2023/05/03","16:57:01","-15.773409068584442","35.018328161910176","4.4","15","30","64","34","-22833","8054","-6325","10","150","149.85","110.93","38.91","33.83","31.1","14.40","89744","33.63","DUALSPOT-UV-BLUE-GREEN-RED-IR","631330","648707","903560","23.920028","8.775642","0.012283","748794","849749","841081","19.145968","6.913322","0.011874","742198","828470","830735","17.139940","6.111852","0.015615","772605","835090","886480","14.530500","5.084599","0.014551","697581","867210","965403","10.497101","3.481476","0.010269","4370","5521","6188","4405","5233","5701","4302","5313","5874","4555","5349","5777","4522","4887","5068",""
"MA200-0420","21686","50","1","1.10","1.4","2023-05-03T16:57:31","120","2023/05/03","16:57:31","-15.773810684680939","35.01700766570866","4.8","15","30","64","33","-24340","5376","-5980","10","150","149.41","111.31","38.10","33.83","31.1","14.40","89824","33.63","DUALSPOT-UV-BLUE-GREEN-RED-IR","629866","647469","902075","23.995110","8.806133","0.009480","740868","841003","832636","19.204200","6.936443","0.010424","740955","827361","829758","17.191948","6.131062","0.006365","770606","833138","884536","14.574386","5.101303","0.010082","696190","865641","963783","10.530033","3.493540","0.009025","3961","4700","5128","3878","4498","4849","3879","4185","4355","3955","4398","4636","4133","4423","4567",""
"MA200-0420","21687","50","1","1.10","1.4","2023-05-03T16:58:01","120","2023/05/03","16:58:01","-15.773990511894226","35.0157016646117","2.7","15","30","64","34","-23195","7345","-6958","10","150","150.15","111.41","38.74","33.83","31.1","14.40","89912","33.56","DUALSPOT-UV-BLUE-GREEN-RED-IR","630095","647993","903188","24.068656","8.838993","0.012896","748090","849572","841298","19.260390","6.957876","0.006843","741019","827704","830306","17.241592","6.150396","0.009113","777797","841158","893221","14.617015","5.116454","0.002242","696754","866546","964905","10.559002","3.503430","-0.002663","3877","4981","5622","3738","4101","4306","3699","4143","4389","3839","3923","3969","3632","3566","3533",""
"MA200-0420","21688","50","1","1.10","1.4","2023-05-03T16:58:31","120","2023/05/03","16:58:31","-15.774678885936737","35.01444816403091","4.4","15","30","64","34","-23820","5500","-7000","10","150","149.35","111.23","38.12","33.83","31.1","14.40","89972","33.56","DUALSPOT-UV-BLUE-GREEN-RED-IR","630337","648500","904128","24.146588","8.871498","0.010582","742324","843254","835230","19.319952","6.982535","0.012720","741357","828336","831066","17.295790","6.171360","0.009641","777556","841134","893285","14.660979","5.132605","0.006804","696853","866818","965323","10.591805","3.514620","-0.000645","4115","5008","5527","3969","4795","5262","4045","4565","4854","3965","4251","4404","4119","4101","4091",""
"MA200-0420","21689","50","1","1.10","1.4","2023-05-03T16:59:01","120","2023/05/03","16:59:01","-15.773590981960297","35.013877999037504","5.5","15","30","64","34","-23892","6711","-4840","10","150","149.89","111.41","38.47","33.83","31.1","14.40","90080","33.56","DUALSPOT-UV-BLUE-GREEN-RED-IR","629970","648299","903995","24.193654","8.891106","0.010171","741913","842999","835090","19.356210","6.995094","0.000245","740573","827627","830442","17.327584","6.181227","-0.010775","770741","833877","885687","14.688427","5.142240","0.001691","696381","866380","964887","10.612499","3.520367","-0.039054","2481","2993","3291","2412","2419","2424","2369","2129","1996","2471","2512","2534","2594","2086","1834",""
"MA200-0420","21690","50","1","1.10","1.4","2023-05-03T16:59:31","120","2023/05/03","16:59:31","-15.77236157655716","35.01357416436076","4.2","15","30","64","34","-21629","11079","-6675","10","150","150.08","110.98","39.10","33.83","31.2","14.42","90004","33.56","DUALSPOT-UV-BLUE-GREEN-RED-IR","633291","651952","909345","24.252326","8.915096","0.008345","746529","848471","840696","19.401586","7.013673","0.010434","740287","827490","830432","17.368310","6.197747","0.010963","771336","834716","886692","14.723392","5.154396","-0.001419","696094","866185","964731","10.638187","3.529209","-0.003372","3105","3603","3893","3031","3522","3800","3046","3507","3763","3160","3118","3096","3233","3158","3121",""
"MA200-0420","21691","50","1","1.10","1.4","2023-05-03T17:00:01","120","2023/05/03","17:00:01","-15.771189987659454","35.01375916507095","4.5","15","30","64","33","-21954","10391","-5862","10","150","149.82","111.14","38.68","33.83","31.2","14.42","89884","33.63","DUALSPOT-UV-BLUE-GREEN-RED-IR","628683","647489","903431","24.324138","8.946529","0.011900","746637","848873","841254","19.453468","7.033402","0.006504","740489","827976","831093","17.415566","6.215215","0.005048","776761","840860","893337","14.762617","5.169224","0.007920","696284","866575","965262","10.666622","3.537826","-0.022494","3795","4772","5341","3460","3780","3962","3530","3748","3870","3541","3845","4009","3574","3111","2882",""
"MA200-0420","21692","50","1","1.10","1.4","2023-05-03T17:00:31","120","2023/05/03","17:00:31","-15.771291732788086","35.014896830543876","7.1","15","30","64","33","-22372","10232","-5520","10","150","149.50","110.78","38.72","33.83","31.2","14.42","89724","33.56","DUALSPOT-UV-BLUE-GREEN-RED-IR","628557","647584","903801","24.389966","8.975483","0.011904","740904","842595","835190","19.503092","7.054454","0.012870","744120","832265","835561","17.458628","6.233871","0.015552","775721","839890","892433","14.799212","5.183650","0.011119","695592","865866","964566","10.694233","3.547042","-0.006733","3490","4392","4917","3320","4031","4433","3227","4000","4430","3314","3738","3967","3481","3325","3247",""
"MA200-0420","21693","50","1","1.10","1.4","2023-05-03T17:01:01","120","2023/05/03","17:01:01","-15.771544814109802","35.01619433052838","3.6","15","30","64","34","-21437","11408","-7216","10","150","149.87","110.83","39.05","33.83","31.1","14.40","89644","33.56","DUALSPOT-UV-BLUE-GREEN-RED-IR","627653","646939","903128","24.461220","9.006653","0.011308","740132","841979","834773","19.558212","7.077867","0.012458","743509","831808","835269","17.508978","6.254446","0.011371","769387","833227","885520","14.842445","5.200384","0.008877","695510","865932","964740","10.725582","3.558715","0.007310","3776","4688","5220","3687","4445","4874","3771","4374","4709","3913","4299","4507","3951","4176","4287",""
"MA200-0420","21694","50","1","1.10","1.4","2023-05-03T17:01:31","120","2023/05/03","17:01:31","-15.771594405174255","35.01721482910216","4.0","15","30","64","33","-22808","8866","-5995","10","150","149.95","110.98","38.97","33.83","31.1","14.38","89540","33.56","DUALSPOT-UV-BLUE-GREEN-RED-IR","627191","646625","902950","24.518726","9.032265","0.012159","738875","840741","833723","19.604350","7.099062","0.016618","739193","827172","830764","17.550378","6.271995","0.013887","770024","834123","886575","14.878520","5.214244","0.008501","695644","866266","965200","10.752289","3.568623","0.007243","3043","3860","4336","3081","4031","4571","3097","3738","4095","3261","3567","3733","3361","3551","3645",""
"MA200-0420","21695","50","1","1.10","1.4","2023-05-03T17:02:01","120","2023/05/03","17:02:01","-15.771582067012787","35.01868283003569","4.4","15","30","64","33","-23596","5044","-7768","10","150","149.56","110.62","38.94","33.83","31.0","14.36","89520","33.56","DUALSPOT-UV-BLUE-GREEN-RED-IR","630970","650724","908887","24.572476","9.055176","0.010194","744242","847102","840186","19.647040","7.115465","0.006397","738566","826649","830363","17.588542","6.287944","0.012834","769329","833532","886060","14.912177","5.227827","0.012350","695188","865840","964787","10.776421","3.576939","-0.003001","2853","3456","3807","2860","3123","3271","2864","3400","3699","3052","3499","3741","3047","2983","2951",""
"MA200-0420","21696","50","1","1.10","1.4","2023-05-03T17:02:31","120","2023/05/03","17:02:31","-15.771711587905884","35.01970282755792","3.7","15","30","64","33","-22860","5924","-7368","10","150","149.74","110.83","38.91","33.85","31.0","14.37","89592","33.56","DUALSPOT-UV-BLUE-GREEN-RED-IR","630685","650630","908962","24.625306","9.078438","0.011655","738020","840188","833485","19.688832","7.132095","0.008784","741534","830166","834022","17.626706","6.302194","0.005106","773066","837713","890601","14.943690","5.239599","0.006003","693629","864029","962875","10.799732","3.584430","-0.013448","2799","3511","3926","2795","3168","3380","2858","3040","3141","2852","3035","3133","2938","2689","2565",""
"MA200-0420","21697","50","1","1.10","1.4","2023-05-03T17:03:01","120","2023/05/03","17:03:01","-15.77285248041153","35.01982982829213","2.0","15","30","64","33","-22820","7264","-6932","10","150","150.15","111.24","38.91","33.85","31.0","14.35","89608","33.56","DUALSPOT-UV-BLUE-GREEN-RED-IR","626401","646433","903297","24.679214","9.100586","0.008782","744411","847729","841064","19.732754","7.147962","0.002482","738805","827325","831272","17.667122","6.316614","0.001718","768938","833458","886207","14.978057","5.251792","0.001452","695242","866197","965347","10.825665","3.592668","-0.014700","2846","3343","3634","2927","3023","3077","3016","3077","3110","3099","3144","3168","3256","2957","2809",""
"MA200-0420","21698","50","1","1.10","1.4","2023-05-03T17:03:31","120","2023/05/03","17:03:31","-15.773254334926605","35.021169828251004","5.5","15","30","64","33","-23970","4820","-6241","10","150","149.63","110.58","39.04","33.85","31.0","14.33","89632","33.56","DUALSPOT-UV-BLUE-GREEN-RED-IR","626821","647069","904411","24.735508","9.124481","0.009814","738992","841744","835299","19.777356","7.166713","0.011648","738492","827212","831309","17.708198","6.332809","0.008684","774133","839293","892504","15.013192","5.265077","0.006562","694593","865528","964683","10.850349","3.600918","-0.007994","2989","3594","3948","2989","3560","3884","3083","3443","3644","3187","3413","3536","3118","2952","2869",""
"MA200-0420","21699","50","1","1.10","1.4","2023-05-03T17:04:01","120","2023/05/03","17:04:01","-15.774065792560577","35.022273330017924","4.8","15","30","64","32","-24266","4466","-6766","10","150","149.69","110.74","38.95","33.85","31.0","14.33","89688","33.56","DUALSPOT-UV-BLUE-GREEN-RED-IR","624918","645373","902312","24.805630","9.155956","0.012276","736907","839714","833441","19.833936","7.190138","0.010962","736787","825539","829812","17.757670","6.352709","0.010296","772949","838216","891541","15.054908","5.281038","0.007918","693702","864581","963755","10.882671","3.612836","0.006208","3719","4746","5347","3787","4458","4840","3708","4241","4538","3779","4111","4290","4077","4274","4372",""
"MA200-0420","21700","50","1","1.10","1.4","2023-05-03T17:04:31","120","2023/05/03","17:04:31","-15.775302588939667","35.02233266271651","5.9","15","30","64","33","-23883","5537","-7441","10","150","149.69","111.41","38.28","33.85","30.9","14.31","89736","33.56","DUALSPOT-UV-BLUE-GREEN-RED-IR","625406","646146","903704","24.882462","9.189629","0.012223","737641","840810","834780","19.895282","7.216328","0.013861","737240","826301","830745","17.813758","6.376136","0.014118","768272","833377","886547","15.103606","5.300310","0.012558","694286","865495","964932","10.918892","3.627269","0.017687","4050","5166","5820","4081","5072","5636","4179","5081","5584","4385","5051","5411","4541","5267","5628",""
"MA200-0420","21701","50","1","1.10","1.4","2023-05-03T17:05:01","120","2023/05/03","17:05:01","-15.77654242515564","35.02171432971954","5.9","15","30","64","33","-24512","4162","-6395","10","150","149.69","111.02","38.67","33.85","30.9","14.32","89844","33.56","DUALSPOT-UV-BLUE-GREEN-RED-IR","625277","646378","904449","24.968292","9.226501","0.010817","737825","841435","835689","19.963592","7.243693","0.009546","737188","826624","831269","17.874626","6.399473","0.007584","773879","839732","893516","15.152834","5.320462","0.014030","694429","865915","965538","10.955708","3.641358","0.011744","4540","5600","6221","4561","5245","5635","4551","5010","5265","4448","5228","5649","4632","5089","5316",""
"MA200-0420","21702","50","1","1.10","1.4","2023-05-03T17:05:31","120","2023/05/03","17:05:31","-15.777302026748657","35.022528329864144","6.1","15","30","64","33","-23212","7033","-7783","10","150","149.87","110.91","38.96","33.85","30.9","14.31","89872","33.56","DUALSPOT-UV-BLUE-GREEN-RED-IR","622038","643692","901424","25.170322","9.314880","0.011131","734294","838101","832876","20.123266","7.309794","0.010874","739017","829297","834425","18.016588","6.457593","0.011373","765332","831028","884680","15.274908","5.367593","0.008665","692637","864113","963808","11.042030","3.673117","0.005987","10699","13322","14863","10672","12576","13662","10626","12383","13365","11042","12135","12727","10872","11386","11642",""
"MA200-0420","21703","50","1","1.10","1.4","2023-05-03T17:06:01","120","2023/05/03","17:06:01","-15.777651607990265","35.02344666235149","0.0","15","30","64","33","-22684","7568","-8140","10","150","150.15","111.41","38.74","33.86","30.9","14.31","89860","33.56","DUALSPOT-UV-BLUE-GREEN-RED-IR","623051","645452","904654","25.313832","9.378052","0.011733","735667","840479","835817","20.240692","7.360553","0.013659","734816","825307","830929","18.121562","6.501634","0.013448","765602","831936","886088","15.364646","5.404386","0.014094","692886","864926","965077","11.111385","3.699873","0.012687","7565","9578","10762","7813","9713","10799","7822","9438","10343","8081","9529","10314","8696","9648","10123",""
"MA200-0420","21704","50","1","1.10","1.4","2023-05-03T17:06:31","120","2023/05/03","17:06:31","-15.77765440940857","35.02348532900214","0.0","15","30","64","33","-24216","5079","-6341","10","150","149.95","110.86","39.09","33.86","30.9","14.31","89860","33.56","DUALSPOT-UV-BLUE-GREEN-RED-IR","621372","644614","904459","25.565498","9.487904","0.010736","733890","839425","835493","20.452250","7.450151","0.011749","733594","824809","831092","18.314958","6.583133","0.012748","764828","831886","886621","15.533913","5.473809","0.012954","692351","864940","965555","11.243599","3.749413","0.007641","13333","16505","18377","14146","16991","18621","14483","17309","18895","15318","17817","19177","16660","17703","18226",""
"MA200-0420","21705","50","1","1.10","1.4","2023-05-03T17:07:01","120","2023/05/03","17:07:01","-15.777662217617035","35.023492496460676","0.1","15","30","64","33","-23133","6895","-7479","10","150","150.27","110.85","39.42","33.86","30.9","14.33","89860","33.56","DUALSPOT-UV-BLUE-GREEN-RED-IR","619657","645724","909192","26.357864","9.834988","0.010245","732828","841522","840010","21.127678","7.738119","0.011312","728548","822133","830581","18.931670","6.839637","0.011088","760432","829854","886377","16.071541","5.691725","0.011078","689182","863223","965155","11.652084","3.903726","0.007362","41983","51718","57513","45169","54158","59353","46188","54026","58459","48657","55464","59197","51476","54688","56306",""
"MA200-0420","21706","50","1","1.10","1.4","2023-05-03T17:07:31","120","2023/05/03","17:07:31","-15.77713656425476","35.02346982806921","7.3","15","30","64","32","-22725","8204","-7100","10","150","149.95","111.26","38.70","33.85","30.9","14.30","89836","33.56","DUALSPOT-UV-BLUE-GREEN-RED-IR","615171","643313","908235","26.870320","10.059418","0.010901","728247","838730","839066","21.557006","7.921594","0.012318","727832","823584","833609","19.317400","7.000155","0.012193","759988","831347","889455","16.402842","5.826061","0.012470","684918","859544","962122","11.905254","3.998686","0.008871","27054","34066","38261","28607","35150","38950","28784","34439","37653","29876","34829","37558","31788","34281","35542",""
"MA200-0420","21707","50","1","1.10","1.4","2023-05-03T17:08:01","120","2023/05/03","17:08:01","-15.775509476661682","35.02356816269457","7.2","15","30","64","33","-22883","8262","-6987","10","150","149.69","110.82","38.87","33.85","30.9","14.29","89724","33.50","DUALSPOT-UV-BLUE-GREEN-RED-IR","614049","643109","908999","27.282264","10.236958","0.009824","727115","838549","839690","21.898954","8.064801","0.010730","726525","823089","833823","19.634182","7.130751","0.010998","759552","831761","890531","16.681110","5.935355","0.009401","684505","859752","962875","12.115936","4.077341","0.007303","21833","26828","29827","22874","27312","29900","23732","27894","30268","25191","28210","29877","26557","28267","29135",""
"MA200-0420","21708","50","1","1.10","1.4","2023-05-03T17:08:31","120","2023/05/03","17:08:31","-15.773712992668152","35.024169163778424","7.3","15","30","64","33","-23691","5650","-6995","10","150","149.53","110.83","38.71","33.83","30.9","14.30","89744","33.50","DUALSPOT-UV-BLUE-GREEN-RED-IR","610596","640353","906018","27.450310","10.309643","0.010068","723806","835685","837476","22.037328","8.121858","0.010095","724600","821743","833051","19.756914","7.179680","0.009205","757041","829747","888874","16.787478","5.976674","0.008844","687074","863589","967545","12.194954","4.105234","0.001307","8906","11029","12307","9255","10928","11904","9194","10495","11237","9629","10710","11307","9960","10067","10121",""
"MA200-0420","21709","50","1","1.10","1.4","2023-05-03T17:09:01","120","2023/05/03","17:09:01","-15.77208799123764","35.02499499730766","5.8","15","30","64","32","-23791","5829","-6395","10","150","149.89","111.18","38.71","33.82","30.9","14.29","89824","33.50","DUALSPOT-UV-BLUE-GREEN-RED-IR","606521","637571","903677","27.904522","10.504128","0.009649","719167","831970","834947","22.414702","8.276720","0.009845","720354","818493","830781","20.101390","7.317648","0.009510","753028","826763","886581","17.083838","6.091234","0.008560","684484","861426","965852","12.415035","4.185922","0.005962","23996","29510","32838","25163","29657","32288","25724","29590","31804","26744","29691","31325","27653","29118","29864",""
"MA200-0420","21710","50","1","1.10","1.4","2023-05-03T17:09:31","120","2023/05/03","17:09:31","-15.770619928836823","35.02575849741697","7.1","15","30","64","33","-23954","4891","-6662","10","150","150.21","110.74","39.47","33.81","30.9","14.28","89876","33.44","DUALSPOT-UV-BLUE-GREEN-RED-IR","607266","638794","905910","28.067692","10.575558","0.009551","719774","833164","836476","22.547320","8.332402","0.009767","721200","819868","832488","20.220600","7.366101","0.008946","754208","828461","888671","17.188504","6.131377","0.006155","685143","862548","967304","12.493591","4.214180","0.001103","8654","10629","11824","8877","10458","11385","8937","10191","10910","9482","10203","10604","9909","10001","10047",""
"MA200-0420","21711","50","1","1.10","1.4","2023-05-03T17:10:01","120","2023/05/03","17:10:01","-15.769166648387909","35.02658016048372","6.6","15","30","64","33","-23791","5768","-6345","10","150","149.41","110.95","38.45","33.80","30.9","14.27","89948","33.44","DUALSPOT-UV-BLUE-GREEN-RED-IR","605333","637402","904540","28.227826","10.643089","0.009145","717984","831733","835433","22.670708","8.382225","0.009153","719480","818463","831432","20.331988","7.409926","0.008628","751770","826273","886654","17.281848","6.165715","0.005039","683805","861316","966143","12.563290","4.238406","0.000344","8477","10314","11427","8244","9604","10402","8334","9461","10108","8440","8958","9246","8775","8800","8813",""
"MA200-0420","21712","50","1","1.10","1.4","2023-05-03T17:10:31","120","2023/05/03","17:10:31","-15.767742395401001","35.02744649536908","6.5","15","30","64","33","-23987","5608","-6233","10","150","150.35","111.20","39.15","33.78","30.9","14.24","89992","33.44","DUALSPOT-UV-BLUE-GREEN-RED-IR","603974","636423","903745","28.369942","10.707184","0.010959","716813","830890","834958","22.778644","8.425735","0.008208","718325","817636","830924","20.429674","7.448610","0.008032","750920","825771","886381","17.365220","6.196879","0.005037","683193","860858","965871","12.625099","4.259134","-0.006121","7506","9615","10893","7195","8238","8850","7293","8203","8725","7521","7985","8243","7764","7395","7207",""
"MA200-0420","21713","50","1","1.10","1.4","2023-05-03T17:11:01","120","2023/05/03","17:11:01","-15.766159474849701","35.02800482697785","5.9","15","30","64","32","-24008","5262","-5975","10","150","150.41","111.37","39.03","33.77","30.9","14.23","90104","33.38","DUALSPOT-UV-BLUE-GREEN-RED-IR","602184","635017","902300","28.498204","10.766010","0.011635","720960","836167","840673","22.877970","8.469373","0.012547","717310","816922","830520","20.517970","7.485734","0.011657","755617","831330","892661","17.441410","6.227875","0.011470","682595","860431","965558","12.679710","4.280415","0.011397","6764","8852","10119","6611","8287","9273","6581","7896","8651","6863","7966","8579","6849","7616","8006",""
"MA200-0420","21714","50","1","1.10","1.4","2023-05-03T17:11:31","120","2023/05/03","17:11:31","-15.764552235603333","35.02794732712209","6.1","15","30","64","32","-24136","4996","-6336","10","150","149.76","110.94","38.82","33.75","30.9","14.23","90196","33.38","DUALSPOT-UV-BLUE-GREEN-RED-IR","604765","638647","908546","28.748188","10.875603","0.010060","718760","834636","839859","23.077652","8.552002","0.009747","719677","820509","834790","20.697992","7.559550","0.010296","754162","830536","892331","17.594228","6.287498","0.008633","681196","859338","964733","12.792763","4.319832","-0.000418","13235","16583","18620","13343","15780","17216","13472","15788","17120","13820","15410","16295","14235","14185","14159",""
"MA200-0420","21715","50","1","1.10","1.4","2023-05-03T17:12:01","120","2023/05/03","17:12:01","-15.763085782527924","35.02732316032052","5.5","15","30","64","32","-24070","5262","-6308","10","150","150.28","111.45","38.82","33.74","30.9","14.22","90296","33.38","DUALSPOT-UV-BLUE-GREEN-RED-IR","604494","638759","909113","28.871544","10.930737","0.010840","718447","834681","840164","23.170706","8.592406","0.012148","714831","815353","829814","20.781214","7.593719","0.010571","752568","829092","890977","17.665328","6.314357","0.006575","680779","859035","964564","12.844753","4.339385","0.008360","6500","8341","9462","6189","7715","8614","6199","7306","7944","6400","6940","7241","6516","7035","7300",""
"MA200-0420","21716","50","1","1.10","1.4","2023-05-03T17:12:31","120","2023/05/03","17:12:31","-15.76288104057312","35.02636032924056","6.0","15","30","64","33","-24175","3187","-8204","10","150","150.15","111.14","39.01","33.73","31.0","14.23","90452","33.38","DUALSPOT-UV-BLUE-GREEN-RED-IR","603334","637864","908220","28.964528","10.971561","0.009931","717096","833446","839212","23.242506","8.621412","0.008324","718138","819446","834180","20.844524","7.618082","0.006324","751756","828477","890517","17.719012","6.334651","0.006040","680166","858456","964047","12.882385","4.353561","0.007732","4914","6146","6898","4789","5512","5938","4729","5185","5447","4846","5219","5426","4730","5076","5253",""
"MA200-0420","21717","50","1","1.10","1.4","2023-05-03T17:13:01","120","2023/05/03","17:13:01","-15.763243317604065","35.02509216405451","3.2","15","30","64","32","-21104","-13487","4828","10","150","150.21","111.32","38.89","33.71","31.0","14.23","90476","33.38","DUALSPOT-UV-BLUE-GREEN-RED-IR","601574","636421","906623","29.083882","11.024258","0.010251","714833","831326","837327","23.332684","8.653356","0.000930","716776","818350","833287","20.926576","7.646517","-0.000615","751194","828227","890471","17.789906","6.357242","-0.008901","679581","857951","963684","12.927151","4.374553","0.026376","6297","7958","8972","6005","6088","6138","6119","6070","6041","6389","5827","5515","5617","7540","8523",""
"MA200-0420","21718","50","1","1.10","1.4","2023-05-03T17:13:31","120","2023/05/03","17:13:31","-15.76331216096878","35.02369616366923","5.0","15","30","64","32","-21041","-14854","4891","10","150","149.95","111.45","38.50","33.71","31.0","14.25","90532","33.38","DUALSPOT-UV-BLUE-GREEN-RED-IR","599835","634805","904639","29.157876","11.059143","0.012697","713657","830180","836393","23.391564","8.679365","0.013131","715850","817532","832611","20.978982","7.669120","0.013421","749771","826905","889140","17.833730","6.374506","0.010056","678745","857012","962742","12.958614","4.386994","0.013850","3899","5322","6191","3916","5008","5652","3903","4874","5433","3945","4499","4807","3943","4514","4806",""
"MA200-0420","21719","50","1","1.10","1.4","2023-05-03T17:14:01","120","2023/05/03","17:14:01","-15.763744056224823","35.022531662136316","1.6","15","30","64","32","-18404","-18384","4168","10","150","149.82","111.06","38.76","33.70","31.0","14.23","90532","33.31","DUALSPOT-UV-BLUE-GREEN-RED-IR","599391","634584","904584","29.221858","11.088413","0.011416","712854","829468","835803","23.435942","8.698125","0.010728","715232","816972","832167","21.016006","7.683204","0.005909","749149","826353","888657","17.864196","6.387159","0.012768","678211","856484","962235","12.980968","4.392888","-0.045194","3383","4435","5078","2962","3587","3957","2767","3016","3160","2752","3274","3565","2811","2123","1772",""
"MA200-0420","21720","50","1","1.10","1.4","2023-05-03T17:14:31","120","2023/05/03","17:14:31","-15.763764142990112","35.02249066159129","0.6","15","30","64","32","-23516","779","8079","10","150","150.07","111.31","38.76","33.68","31.0","14.23","90532","33.31","DUALSPOT-UV-BLUE-GREEN-RED-IR","598705","633979","903929","29.270924","11.114300","0.015497","712167","828801","835296","23.470848","8.715340","0.016968","714760","816545","831868","21.046108","7.697521","0.017376","748489","825721","888109","17.890176","6.399799","0.021354","681930","861301","967686","13.000587","4.399301","-0.007856","2589","3922","4738","2324","3292","3863","2245","3066","3539","2341","3271","3789","2462","2311","2234",""
"MA200-0420","21721","50","1","1.10","1.4","2023-05-03T17:15:01","120","2023/05/03","17:15:01","-15.763768494129181","35.022509664297104","0.0","15","30","64","32","-23300","-7591","6541","10","150","150.41","111.18","39.23","33.68","31.0","14.23","90532","33.31","DUALSPOT-UV-BLUE-GREEN-RED-IR","598104","633485","903357","29.314000","11.133793","0.010674","717473","835153","841737","23.499358","8.725985","0.003600","713529","815245","830632","21.073138","7.708112","0.007033","746714","823890","886199","17.913886","6.407737","-0.004831","680887","860025","966333","13.017063","4.409696","0.041771","2275","2918","3312","1901","2011","2076","2018","2241","2369","2139","2030","1969","2070","3701","4537",""
"MA200-0420","21722","50","1","1.10","1.4","2023-05-03T17:15:31","120","2023/05/03","17:15:31","-15.763444364070892","35.023206328973174","3.5","15","30","64","32","-23487","-12020","2854","10","150","149.87","111.28","38.59","33.67","31.0","14.22","90588","33.25","DUALSPOT-UV-BLUE-GREEN-RED-IR","601976","637766","909771","29.368762","11.160416","0.013390","716491","834180","840905","23.535542","8.740223","0.007495","713228","815093","830559","21.103602","7.718933","0.001755","745986","823258","885592","17.940232","6.416237","-0.006776","680185","859297","965594","13.038383","4.414839","-0.065445","2890","4051","4763","2410","2735","2926","2272","2328","2360","2375","2209","2117","2676","1861","1444",""
"MA200-0420","21723","50","1","1.10","1.4","2023-05-03T17:16:01","120","2023/05/03","17:16:01","-15.763305127620697","35.02418932877481","4.2","15","30","64","32","-22596","-11044","2260","10","150","150.56","111.20","39.36","33.67","31.0","14.22","90468","33.25","DUALSPOT-UV-BLUE-GREEN-RED-IR","596706","632377","902278","29.422406","11.184059","0.009637","715813","833583","840421","23.572874","8.756687","0.011935","713251","815308","830885","21.137462","7.733170","0.010814","746606","824039","886556","17.968808","6.427471","0.008183","680791","860160","966626","13.061516","4.422862","-0.002391","2833","3528","3954","2488","3101","3463","2528","3003","3277","2578","2863","3022","2906","2847","2818",""
"MA200-0420","21724","50","1","1.10","1.4","2023-05-03T17:16:31","120","2023/05/03","17:16:31","-15.763144373893738","35.0253311637789","3.4","15","30","64","32","-24428","-7675","1908","10","150","149.77","111.08","38.69","33.67","31.0","14.22","90488","33.25","DUALSPOT-UV-BLUE-GREEN-RED-IR","601493","637693","910153","29.489186","11.215530","0.012305","716082","834127","841169","23.622166","8.778192","0.012132","716553","819310","835114","21.182244","7.751237","0.009428","745608","823148","885732","18.006084","6.442105","0.009169","680030","859374","965830","13.087860","4.430231","-0.032397","3531","4777","5542","3289","4120","4611","3346","3876","4182","3366","3794","4032","3313","2660","2326",""
"MA200-0420","21725","50","1","1.10","1.4","2023-05-03T17:17:01","120","2023/05/03","17:17:01","-15.762808561325073","35.02648516185582","4.1","15","30","64","32","-21887","-13887","1737","10","150","150.15","110.79","39.36","33.67","31.0","14.22","90420","33.31","DUALSPOT-UV-BLUE-GREEN-RED-IR","596749","633009","903793","29.582840","11.256554","0.009240","710381","827756","835034","23.692394","8.808068","0.010099","712477","814937","830859","21.242596","7.775905","0.009037","751636","830077","893373","18.057484","6.462323","0.007931","680350","859981","966626","13.124023","4.442891","-0.001712","4965","6122","6832","4699","5627","6177","4522","5203","5597","4654","5154","5432","4559","4493","4459",""
"MA200-0420","21726","50","1","1.10","1.4","2023-05-03T17:17:31","120","2023/05/03","17:17:31","-15.76264899969101","35.027147160843015","5.6","15","30","64","32","-24037","-11645","-300","10","150","149.67","111.04","38.63","33.68","30.9","14.18","90308","33.31","DUALSPOT-UV-BLUE-GREEN-RED-IR","594937","631527","902247","29.703670","11.309761","0.010111","714401","832991","840648","23.791004","8.849624","0.010584","711833","814624","830878","21.330308","7.812410","0.011090","745621","823840","886907","18.132302","6.491513","0.008775","679879","859716","966515","13.177795","4.461478","-0.000737","6391","8090","9134","6583","7974","8798","6557","7845","8589","6759","7581","8039","6764","6721","6699",""
"MA200-0420","21727","50","1","1.10","1.4","2023-05-03T17:18:01","120","2023/05/03","17:18:01","-15.764110207557678","35.02793666161597","1.7","15","30","64","32","-23212","-10512","4270","10","150","149.85","111.17","38.67","33.68","31.0","14.19","90228","33.31","DUALSPOT-UV-BLUE-GREEN-RED-IR","593843","630994","902022","29.865608","11.373058","0.005571","713179","832201","840194","23.908188","8.891399","0.001588","710960","814193","830721","21.435974","7.848355","-0.001688","744576","823144","886435","18.219014","6.519737","-0.006114","679449","859540","966519","13.239395","4.480684","-0.014048","8555","9613","10263","7814","8007","8122","7891","7716","7615","7825","7321","7041","7740","6937","6526",""
"MA200-0420","21728","50","1","1.10","1.4","2023-05-03T17:18:31","120","2023/05/03","17:18:31","-15.76533418893814","35.02818832732737","7.1","15","30","64","32","-22904","-11756","3800","10","150","149.65","110.66","38.98","33.70","30.9","14.18","90144","33.31","DUALSPOT-UV-BLUE-GREEN-RED-IR","591092","629367","901340","30.049058","11.457275","0.010945","710437","830467","839583","24.051072","8.953146","0.011034","712296","817013","834549","21.561122","7.901081","0.010958","746981","826934","891349","18.322232","6.561593","0.010404","677436","857857","965251","13.315044","4.509092","0.006817","9736","12688","14508","9571","11741","13029","9388","11229","12293","9357","10772","11561","9549","10179","10502",""
"MA200-0420","21729","50","1","1.10","1.4","2023-05-03T17:19:01","120","2023/05/03","17:19:01","-15.76701533794403","35.02790649421513","6.7","17","30","64","32","-23012","-11644","3676","10","150","149.77","110.51","39.26","33.70","30.9","14.18","90052","33.31","DUALSPOT-UV-BLUE-GREEN-RED-IR","590938","630177","903544","30.521962","11.665901","0.009218","710181","831198","841051","24.427356","9.111785","0.009396","708243","813267","831397","21.899610","8.041877","0.009710","742589","822940","887621","18.615458","6.679178","0.008986","678069","859376","967392","13.535843","4.590953","0.004577","25133","31212","34973","25241","29955","32760","25428","29774","32296","26619","30048","31967","27910","29128","29753",""
"MA200-0420","21730","50","1","1.10","1.4","2023-05-03T17:19:31","120","2023/05/03","17:19:31","-15.768515825271606","35.02711466141045","7.0","17","30","64","32","-23192","-11108","3144","10","150","149.95","111.02","38.93","33.71","30.9","14.17","89968","33.38","DUALSPOT-UV-BLUE-GREEN-RED-IR","590716","630404","904407","30.657998","11.727116","0.010255","705097","825723","835872","24.526890","9.154275","0.010496","707525","812860","831307","21.988726","8.078490","0.009703","741529","822112","886980","18.690838","6.709050","0.009023","677488","858980","967124","13.590622","4.609741","-0.002530","7197","9235","10497","6646","8090","8950","6664","7807","8471","6812","7697","8193","6892","6741","6663",""
"MA200-0420","21731","50","1","1.10","1.4","2023-05-03T17:20:01","120","2023/05/03","17:20:01","-15.769994854927063","35.02622782997787","6.3","17","30","64","32","-23308","-11308","2920","10","150","149.56","110.94","38.62","33.72","30.8","14.16","89916","33.38","DUALSPOT-UV-BLUE-GREEN-RED-IR","586807","627834","902696","30.969982","11.873367","0.011618","700652","822191","833626","24.762280","9.256181","0.011310","704438","810867","830379","22.193476","8.163530","0.010541","738899","820552","886305","18.862162","6.776529","0.009022","671469","852401","960479","13.717480","4.657880","0.008746","16517","22242","25801","15729","19560","21848","15322","18280","20002","15493","17529","18670","15973","17412","18151",""
"MA200-0420","21732","50","1","1.10","1.4","2023-05-03T17:20:31","120","2023/05/03","17:20:31","-15.771443605422974","35.025479996576905","6.9","17","30","64","32","-23183","-11120","3008","10","150","149.69","110.94","38.75","33.72","30.8","14.16","89832","33.38","DUALSPOT-UV-BLUE-GREEN-RED-IR","586186","628499","905340","31.469544","12.101814","0.010626","700136","823096","835773","25.173846","9.435701","0.011307","703975","811739","832344","22.569762","8.325150","0.011821","739291","822260","889111","19.188110","6.910267","0.011175","671593","853609","962546","13.962173","4.750914","0.008470","26448","34626","39735","27502","34343","38444","28159","34626","38406","29477","34625","37522","30811","33538","34944",""
"MA200-0420","21733","50","1","1.10","1.4","2023-05-03T17:21:01","120","2023/05/03","17:21:01","-15.77285522222519","35.024723161011934","5.5","17","30","64","32","-23304","-11036","3571","10","150","149.41","110.63","38.78","33.72","30.8","14.14","89804","33.44","DUALSPOT-UV-BLUE-GREEN-RED-IR","583630","627175","905037","31.920674","12.303200","0.009646","698054","822200","836064","25.546762","9.598078","0.010938","701912","810762","832405","22.907558","8.466851","0.010378","737479","821506","889236","19.481606","7.029993","0.010464","670286","853027","962619","14.187084","4.834626","0.006036","23952","30500","34607","24989","31039","34680","25350","30335","33257","26617","30973","33432","28400","30154","31060",""
"MA200-0420","21734","50","1","1.10","1.4","2023-05-03T17:21:31","120","2023/05/03","17:21:31","-15.773138880729675","35.02413433045149","3.7","17","30","64","32","-24320","-9128","3104","10","150","149.76","110.70","39.05","33.72","30.8","14.14","89804","33.44","DUALSPOT-UV-BLUE-GREEN-RED-IR","582963","627136","905773","32.112716","12.390720","0.010031","697922","822833","837239","25.702430","9.664070","0.009504","701192","810639","832767","23.048364","8.525621","0.009771","736222","820739","888844","19.603170","7.078194","0.008289","669469","852503","962367","14.278133","4.868381","0.005023","10189","13163","15031","10424","12527","13793","10559","12494","13629","11017","12382","13154","11489","12074","12377",""
"MA200-0420","21735","50","1","1.10","1.4","2023-05-03T17:22:01","120","2023/05/03","17:22:01","-15.77250325679779","35.023294162005186","5.5","17","30","64","32","-22708","-11883","3666","10","150","150.21","110.94","39.27","33.73","30.8","14.15","89792","33.44","DUALSPOT-UV-BLUE-GREEN-RED-IR","582174","626737","905652","32.262920","12.455738","0.008253","696911","822115","836863","25.822464","9.715762","0.009979","700967","810807","833232","23.156530","8.570191","0.008921","736706","821627","890072","19.694894","7.115428","0.009483","669855","853327","963433","14.347748","4.892364","-0.002954","7952","9724","10838","8020","9757","10805","8094","9422","10202","8295","9511","10200","8765","8531","8409",""
"MA200-0420","21736","50","1","1.10","1.4","2023-05-03T17:22:31","120","2023/05/03","17:22:31","-15.771640658378601","35.0223498288542","3.8","17","30","64","32","-24841","-7529","433","10","150","150.35","110.99","39.36","33.73","30.8","14.13","89816","33.44","DUALSPOT-UV-BLUE-GREEN-RED-IR","582431","627191","906556","32.317150","12.480602","0.009997","696503","821809","836696","25.862276","9.732862","0.009780","700743","810692","833250","23.193790","8.585713","0.009366","736452","821491","890017","19.726080","7.127477","0.006238","669643","853152","963341","14.369736","4.900561","0.005023","2869","3710","4239","2659","3220","3559","2787","3274","3560","2818","3071","3214","2767","2909","2982",""
"MA200-0420","21737","50","1","1.10","1.4","2023-05-03T17:23:01","120","2023/05/03","17:23:01","-15.77064734697342","35.022925997152925","4.6","17","30","64","32","-23175","-9670","4275","10","150","149.60","110.79","38.82","33.72","30.8","14.12","89860","33.44","DUALSPOT-UV-BLUE-GREEN-RED-IR","581925","626794","906187","32.363122","12.501369","0.009901","696671","822202","837245","25.899858","9.748956","0.010147","700233","810292","832976","23.226978","8.599854","0.011001","735519","820601","889143","19.753930","7.138210","0.006850","669145","852613","962786","14.391171","4.908355","0.003776","2437","3142","3586","2514","3073","3411","2487","3024","3340","2522","2774","2916","2702","2805","2858",""
"MA200-0420","21738","50","1","1.10","1.4","2023-05-03T17:23:31","120","2023/05/03","17:23:31","-15.769871532917023","35.02334716357291","2.8","17","30","64","31","-24479","-8750","2704","10","150","149.82","110.82","39.00","33.72","30.7","14.10","89884","33.38","DUALSPOT-UV-BLUE-GREEN-RED-IR","579605","624508","903147","32.427552","12.530804","0.010084","694161","819480","834621","25.951254","9.768937","0.005542","698793","808852","831619","23.273736","8.616264","-0.000192","733992","819147","887725","19.796446","7.153569","0.002013","667968","851323","961458","14.421532","4.919060","0.000191","3414","4432","5074","3438","3798","4015","3502","3493","3487","3849","3951","4008","3827","3834","3837",""
"MA200-0420","21739","50","1","1.10","1.4","2023-05-03T17:24:01","120","2023/05/03","17:24:01","-15.769419968128204","35.02322166226804","1.6","17","30","64","32","-25016","-7162","2062","10","150","150.15","111.18","38.97","33.71","30.8","14.11","89928","33.38","DUALSPOT-UV-BLUE-GREEN-RED-IR","581722","626982","906938","32.482860","12.556046","0.010155","696498","822456","837838","25.996784","9.788742","0.010721","699422","809779","832706","23.315582","8.634368","0.011630","734299","819660","888394","19.831182","7.166785","0.005949","668674","852338","962707","14.448921","4.928063","-0.007213","2922","3804","4360","3035","3767","4209","3124","3856","4287","3134","3402","3553","3441","3227","3116",""
"MA200-0420","21740","50","1","1.10","1.4","2023-05-03T17:24:31","120","2023/05/03","17:24:31","-15.768648862838745","35.02314865961671","3.5","17","30","64","32","-24632","-8288","3339","10","150","149.41","110.95","38.45","33.71","30.8","14.13","89996","33.38","DUALSPOT-UV-BLUE-GREEN-RED-IR","580505","625877","905554","32.536774","12.580326","0.010082","694717","820521","836003","26.038848","9.805696","0.007954","699042","809495","832547","23.352996","8.649079","0.007537","734415","819948","888799","19.863534","7.178284","0.001936","668616","852417","962888","14.472645","4.936547","0.003182","2854","3708","4247","2810","3268","3544","2799","3176","3397","2925","3000","3042","2986","3081","3131",""
"MA200-0420","21741","50","1","1.10","1.4","2023-05-03T17:25:01","120","2023/05/03","17:25:01","-15.767922222614288","35.02322066016495","0.2","17","30","64","31","-23704","-10425","2566","10","150","149.71","110.70","39.01","33.70","30.8","14.12","90080","33.31","DUALSPOT-UV-BLUE-GREEN-RED-IR","578179","623644","902640","32.604274","12.611290","0.010117","692990","818763","834403","26.089038","9.827511","0.010447","696999","807379","830546","23.398864","8.666491","0.004669","731551","816930","885672","19.900126","7.193726","0.011879","670503","854986","965859","14.500816","4.946606","0.001371","3581","4662","5344","3361","4145","4620","3439","3705","3861","3316","3971","4342","3554","3602","3627",""
