"Serial number","Datum ID","Session ID","Data format version","Firmware version","App version","Date / time local","Timezone offset (mins)","Date local (yyyy/MM/dd)","Time local (hh:mm:ss)","GPS lat (ddmm.mmmmm)","GPS long (dddmm.mmmmm)","GPS speed (km/h)","GPS sat count","Timebase (s)","Status","Battery remaining (%)","Accel X","Accel Y","Accel Z","Tape position","Flow setpoint (mL/min)","Flow total (mL/min)","Flow1 (mL/min)","Flow2 (mL/min)","Sample temp (C)","Sample RH (%)","Sample dewpoint (C)","Internal pressure (Pa)","Internal temp (C)","Optical config","UV Sen1","UV Sen2","UV Ref","UV ATN1","UV ATN2","UV K","Blue Sen1","Blue Sen2","Blue Ref","Blue ATN1","Blue ATN2","Blue K","Green Sen1","Green Sen2","Green Ref","Green ATN1","Green ATN2","Green K","Red Sen1","Red Sen2","Red Ref","Red ATN1","Red ATN2","Red K","IR Sen1","IR Sen2","IR Ref","IR ATN1","IR ATN2","IR K","UV BC1","UV BC2","UV BCc","Blue BC1","Blue BC2","Blue BCc","Green BC1","Green BC2","Green BCc","Red BC1","Red BC2","Red BCc","IR BC1","IR BC2","IR BCc","Readable status"
"MA200-0416","19608","56","1","1.10","1.4","2023-05-04T07:19:30","120","2023/05/04","07:19:30","-15.800929069519043","35.02921316213906","1.4","14","30","66","89","2934","24361","-4015","16","150","150.23","117.18","33.04","20.06","53.8","10.40","90036","19.81","DUALSPOT-UV-BLUE-GREEN-RED-IR","867578","744739","909117","0.000000","0.000000","0.000000","812729","922831","762671","0.000000","0.000000","0.000000","907503","924254","814921","0.000000","0.000000","0.000000","890856","942973","867096","0.000000","0.000000","0.000000","756380","868197","956182","0.000000","0.000000","0.000000","","","","","","","","","","","","","","","","Start up"
"MA200-0416","19609","56","1","1.10","1.4","2023-05-04T07:20:00","120","2023/05/04","07:20:00","-15.80095785856247","35.02653116174042","13.4","14","30","66","89","-820","24236","-5300","16","150","150.49","117.21","33.28","20.11","54.3","10.60","90104","20.00","DUALSPOT-UV-BLUE-GREEN-RED-IR","863655","742926","907432","0.000000","0.000000","0.000000","811102","922488","762747","0.000000","0.000000","0.000000","908637","926720","817367","0.000000","0.000000","0.000000","886856","939805","864412","0.000000","0.000000","0.000000","753858","866056","953954","0.000000","0.000000","0.000000","","","","","","","","","","","","","","","","Start up"
"MA200-0416","19610","56","1","1.10","1.4","2023-05-04T07:20:30","120","2023/05/04","07:20:30","-15.800946176052094","35.02333215996623","9.4","14","30","66","89","-784","24352","-4784","16","150","149.83","116.67","33.16","20.16","54.6","10.73","90120","20.13","DUALSPOT-UV-BLUE-GREEN-RED-IR","861052","742574","907703","0.000000","0.000000","0.000000","808820","921654","762510","0.000000","0.000000","0.000000","901851","921273","812979","0.000000","0.000000","0.000000","886060","940230","865186","0.000000","0.000000","0.000000","753393","866322","954523","0.000000","0.000000","0.000000","","","","","","","","","","","","","","","","Start up"
"MA200-0416","19611","56","1","1.10","1.4","2023-05-04T07:21:00","120","2023/05/04","07:21:00","-15.800724685192108","35.02132016047835","3.5","14","30","66","89","-5638","24226","-4696","16","150","149.76","117.18","32.58","20.22","54.9","10.86","90116","20.19","DUALSPOT-UV-BLUE-GREEN-RED-IR","856170","739867","904935","0.000000","0.000000","0.000000","810187","924638","765296","0.000000","0.000000","0.000000","903563","924288","815928","0.000000","0.000000","0.000000","883103","938093","863453","0.000000","0.000000","0.000000","751644","865011","953247","0.000000","0.000000","0.000000","","","","","","","","","","","","","","","","Start up"
"MA200-0416","19612","56","1","1.10","1.4","2023-05-04T07:21:30","120","2023/05/04","07:21:30","-15.799634099006653","35.01980349235237","10.6","14","30","66","88","388","23996","-7868","16","150","149.83","117.06","32.77","20.28","55.2","10.99","90140","20.25","DUALSPOT-UV-BLUE-GREEN-RED-IR","855043","740279","905944","0.000000","0.000000","0.000000","803476","918260","760351","0.000000","0.000000","0.000000","902397","924193","816114","0.000000","0.000000","0.000000","882483","938361","863911","0.000000","0.000000","0.000000","751053","864964","953338","0.000000","0.000000","0.000000","","","","","","","","","","","","","","","","Start up"
"MA200-0416","19613","56","1","1.10","1.4","2023-05-04T07:22:00","120","2023/05/04","07:22:00","-15.796448111534119","35.01704333163798","16.3","14","30","64","89","180","24028","-3816","16","150","149.87","117.29","32.57","20.32","55.3","11.07","90176","20.38","DUALSPOT-UV-BLUE-GREEN-RED-IR","850008","738483","904717","0.000000","0.000000","0.000000","805428","922992","764897","0.000000","0.000000","0.000000","897469","921238","814104","0.000000","0.000000","0.000000","877741","935085","861389","0.000000","0.000000","0.000000","748357","862995","951576","0.000000","0.000000","0.000000","","","","","","","","","","","","","","","",""
"MA200-0416","19614","56","1","1.10","1.4","2023-05-04T07:22:30","120","2023/05/04","07:22:30","-15.792552053928375","35.0151521647349","16.2","14","30","64","89","-888","24428","-5248","16","150","149.40","117.21","32.19","20.40","55.4","11.15","90404","20.50","DUALSPOT-UV-BLUE-GREEN-RED-IR","851228","740479","907553","0.159635","0.039089","0.000000","800652","918395","761313","0.117778","0.028913","0.000000","898315","922846","815741","0.098061","0.023693","0.000000","880474","938605","864824","0.080776","0.020384","0.000000","749474","864710","953625","0.057691","0.013474","0.000000","7999","7132","7999","7449","6658","7449","6945","6110","6945","6914","6353","6914","6875","5847","6875",""
"MA200-0416","19615","56","1","1.10","1.4","2023-05-04T07:23:00","120","2023/05/04","07:23:00","-15.790075898170471","35.01415266375989","1.1","14","30","64","88","-664","24288","-4824","16","150","149.90","116.67","33.23","20.45","55.5","11.22","90552","20.69","DUALSPOT-UV-BLUE-GREEN-RED-IR","847002","738827","906304","0.501240","0.120599","0.000000","798803","918151","761620","0.375265","0.089561","0.000000","893877","919920","813573","0.313687","0.073183","0.000000","876459","935681","862484","0.255149","0.058918","0.000000","746878","862610","951556","0.182327","0.041952","0.000000","17198","14407","17198","16361","13530","16361","15344","12365","15344","14995","11634","14995","14923","11971","14923",""
"MA200-0416","19616","56","1","1.10","1.4","2023-05-04T07:23:30","120","2023/05/04","07:23:30","-15.790042221546173","35.014126664958894","0.1","14","30","64","88","-603","24411","-4815","16","150","150.01","117.25","32.75","20.53","55.5","11.31","90560","20.94","DUALSPOT-UV-BLUE-GREEN-RED-IR","845430","738455","906254","0.702268","0.168481","0.000000","797461","917510","761355","0.521695","0.123958","0.000000","897323","924215","817583","0.438475","0.101828","0.000000","875196","934999","862038","0.356882","0.081849","0.000000","749990","866638","956186","0.258193","0.058522","0.000000","10070","8586","10070","9258","7785","9258","8835","7260","8835","8704","7023","8704","9038","7067","9038",""
"MA200-0416","19617","56","1","1.10","1.4","2023-05-04T07:24:00","120","2023/05/04","07:24:00","-15.789944648742676","35.014102331362665","1.5","14","30","64","88","50","24388","-4957","16","150","150.09","116.83","33.27","20.60","55.6","11.41","90560","21.19","DUALSPOT-UV-BLUE-GREEN-RED-IR","842257","737179","905283","0.968098","0.232912","0.000000","794949","916049","760470","0.721019","0.171285","0.000000","894096","922127","816021","0.605124","0.139320","0.000000","872545","933139","860552","0.488674","0.110054","0.000000","748483","865519","955115","0.346826","0.078634","0.000000","13364","11375","13364","12648","10545","12648","11843","9356","11843","11318","8505","11318","10598","8445","10598",""
"MA200-0416","19618","56","1","1.10","1.4","2023-05-04T07:24:30","120","2023/05/04","07:24:30","-15.78979116678238","35.01405866444111","0.0","14","30","64","88","-411","24253","-5061","16","150","150.36","117.26","33.10","20.68","55.7","11.49","90564","21.44","DUALSPOT-UV-BLUE-GREEN-RED-IR","842929","738891","907794","1.172391","0.283279","0.000000","799906","922813","766334","0.870746","0.205945","0.000000","893716","922605","816689","0.730842","0.167936","0.000000","875581","937095","864417","0.590693","0.133358","0.000000","745976","863084","952552","0.418050","0.094158","0.000000","10232","8938","10232","9465","7763","9465","8900","7178","8900","8728","7064","8728","8484","6552","8484",""
"MA200-0416","19619","56","1","1.10","1.4","2023-05-04T07:25:00","120","2023/05/04","07:25:00","-15.789710760116577","35.01405683066696","0.1","14","30","64","88","-440","24272","-4912","16","150","149.70","117.54","32.16","20.77","55.8","11.62","90568","21.69","DUALSPOT-UV-BLUE-GREEN-RED-IR","837753","736964","906470","1.548549","0.374177","0.000000","791068","915078","760571","1.155078","0.272970","0.000000","889483","920317","815186","0.965613","0.220454","0.000000","872710","935767","863601","0.777238","0.173061","0.000000","744027","861925","951629","0.547451","0.123265","0.000000","18796","16603","18796","17932","15451","17932","16582","13559","16582","15922","12387","15922","15378","12645","15378",""
"MA200-0416","19620","56","1","1.10","1.4","2023-05-04T07:25:30","120","2023/05/04","07:25:30","-15.789574682712555","35.01401449833065","1.8","13","30","64","88","380","24252","-4824","16","150","150.30","117.31","32.99","20.87","55.9","11.74","90564","21.94","DUALSPOT-UV-BLUE-GREEN-RED-IR","839057","740194","911228","1.986153","0.478147","0.000000","792483","918689","764024","1.484549","0.348304","0.000000","887940","920399","815710","1.243341","0.281995","0.000000","872816","937252","865345","1.003164","0.222640","0.000000","743746","862504","952564","0.704631","0.157605","0.000000","21910","18511","21910","20820","16928","20820","19655","15487","19655","19321","15078","19321","18717","14541","18717",""
"MA200-0416","19621","56","1","1.10","1.4","2023-05-04T07:26:00","120","2023/05/04","07:26:00","-15.789088606834412","35.01386783178896","1.4","13","30","64","88","-228","24320","-4788","16","150","150.29","117.34","32.95","20.95","56.0","11.83","90584","22.13","DUALSPOT-UV-BLUE-GREEN-RED-IR","834334","737490","908492","2.220549","0.534877","0.000000","788545","915530","761774","1.661897","0.388900","0.000000","885043","918567","814392","1.392764","0.315576","0.000000","871424","936743","865121","1.124131","0.246721","0.000000","741324","860324","950356","0.793296","0.176855","0.000000","11732","10112","11732","11204","9133","11204","10572","8461","10572","10342","7332","10342","10555","8161","10555",""
"MA200-0416","19622","56","1","1.10","1.4","2023-05-04T07:26:30","120","2023/05/04","07:26:30","-15.788789510726929","35.01378199830651","0.1","13","30","64","88","-464","24256","-5040","16","150","150.10","116.98","33.13","21.06","56.0","11.94","90596","22.19","DUALSPOT-UV-BLUE-GREEN-RED-IR","835488","739929","912096","2.521410","0.609460","0.000000","790114","918670","764724","1.884139","0.442110","0.000000","884289","918949","814995","1.580423","0.358021","0.000000","864826","930638","859712","1.275503","0.279342","0.000000","741074","860644","950928","0.901231","0.201981","0.000000","15106","13224","15106","14084","11907","14084","13318","10637","13318","12982","9879","12982","12889","10595","12889",""
"MA200-0416","19623","56","1","1.10","1.4","2023-05-04T07:27:00","120","2023/05/04","07:27:00","-15.78854113817215","35.013706332072616","2.3","13","30","64","88","-368","24260","-5636","16","150","150.39","118.26","32.13","21.16","56.1","12.05","90604","22.25","DUALSPOT-UV-BLUE-GREEN-RED-IR","830106","736991","909211","2.795581","0.678878","0.000000","785896","915533","762589","2.092141","0.491420","0.000000","885711","921923","818055","1.753390","0.397539","0.000000","868314","935573","864614","1.415491","0.310027","0.000000","742840","863471","954320","0.999887","0.225942","0.000000","13617","12688","13617","13038","11375","13038","12142","10209","12142","11876","9580","11876","11653","10416","11653",""
"MA200-0416","19624","56","1","1.10","1.4","2023-05-04T07:27:30","120","2023/05/04","07:27:30","-15.787987411022186","35.01333733275533","6.4","13","30","64","87","2600","24168","-5720","16","150","150.35","116.92","33.43","21.25","56.1","12.15","90616","22.38","DUALSPOT-UV-BLUE-GREEN-RED-IR","813508","729403","902745","3.977753","0.970592","-0.055679","778153","913646","762939","3.032738","0.720588","-0.079420","872869","914716","813374","2.554280","0.589287","0.000000","862549","934573","865166","2.072027","0.464386","0.000000","738937","862397","954282","1.468555","0.334820","0.000000","59388","51247","48620","59639","50813","48062","56870","47614","56870","56337","46319","56337","55996","45491","55996",""
"MA200-0416","19625","56","1","1.10","1.4","2023-05-04T07:28:00","120","2023/05/04","07:28:00","-15.787485301494598","35.01134016457945","10.7","13","30","64","88","996","24472","-3884","16","150","149.66","117.09","32.57","21.34","56.1","12.22","90540","22.38","DUALSPOT-UV-BLUE-GREEN-RED-IR","814919","732530","907432","4.505399","1.102525","-0.034364","778877","916346","765678","3.443658","0.822578","-0.047956","873333","916794","815676","2.911216","0.673818","0.000000","857953","931001","862219","2.368412","0.532245","0.000000","735108","858844","950660","1.681284","0.384986","0.000000","26469","23789","22920","26017","23210","22329","25309","21544","25309","25396","20900","25396","25380","21513","25380",""
"MA200-0416","19626","56","1","1.10","1.4","2023-05-04T07:28:30","120","2023/05/04","07:28:30","-15.787503898143768","35.00908183027059","5.8","13","30","64","87","-2728","24452","-4200","16","150","149.57","117.02","32.54","21.43","56.0","12.29","90628","22.31","DUALSPOT-UV-BLUE-GREEN-RED-IR","812601","731690","906942","4.697071","1.150333","-0.033628","777157","915555","765362","3.590250","0.856285","-0.081936","871755","916219","815467","3.035086","0.699866","-0.152801","856597","930473","861971","2.471887","0.551658","0.000000","738898","863914","956505","1.758937","0.402762","0.000000","9620","8629","8307","9286","7678","7175","8787","6645","6003","8871","5985","8871","9269","7630","9269",""
"MA200-0416","19627","56","1","1.10","1.4","2023-05-04T07:29:00","120","2023/05/04","07:29:00","-15.787290811538696","35.00742983259261","4.4","13","30","64","87","2646","24496","-3557","16","150","149.83","117.10","32.73","21.51","55.9","12.34","90636","22.31","DUALSPOT-UV-BLUE-GREEN-RED-IR","807494","728848","904124","5.056416","1.241819","-0.026446","773233","912603","763333","3.867203","0.925914","-0.039304","868093","913800","813691","3.273529","0.758820","-0.053925","852178","926867","858980","2.669258","0.600343","0.000000","736062","861448","954027","1.906553","0.437992","0.000000","18023","16419","15897","17532","15773","15219","16904","14956","14368","16909","14925","16909","17609","15038","17609",""
"MA200-0416","19628","56","1","1.10","1.4","2023-05-04T07:29:30","120","2023/05/04","07:29:30","-15.787856698036194","35.00627199886367","5.0","13","30","64","87","268","24380","-3812","16","150","150.62","117.50","33.12","21.58","55.9","12.38","90612","22.25","DUALSPOT-UV-BLUE-GREEN-RED-IR","795054","726790","905386","6.053442","1.494480","-0.025535","764663","911874","765375","4.690260","1.135587","-0.030958","857941","911368","813967","3.975183","0.935316","-0.041135","851027","932786","866617","3.253412","0.744491","-0.059135","730416","860078","954268","2.371139","0.547534","0.000000","49838","44813","43166","51927","46937","45343","49576","44248","42609","49877","43671","41829","55233","46209","55233",""
"MA200-0416","19629","56","1","1.10","1.4","2023-05-04T07:30:00","120","2023/05/04","07:30:00","-15.788630247116089","35.00519216572866","6.5","13","30","64","87","-1304","24504","-5108","16","150","150.35","117.20","33.15","21.65","55.9","12.47","90576","22.25","DUALSPOT-UV-BLUE-GREEN-RED-IR","791102","725990","905564","7.201154","1.777629","-0.028382","761002","910207","764718","5.592951","1.355485","-0.040097","855106","910715","813996","4.772646","1.124424","-0.056190","848516","932002","866395","3.928620","0.902074","-0.074769","728731","859370","953927","2.873170","0.661698","0.000000","57520","50169","47759","57100","49175","46640","56493","47361","44547","57802","47692","44678","59841","48108","59841",""
"MA200-0416","19630","56","1","1.10","1.4","2023-05-04T07:30:30","120","2023/05/04","07:30:30","-15.78870415687561","35.0049544996582","1.0","13","30","64","87","712","24552","-5024","16","150","150.63","116.84","33.79","21.72","55.9","12.53","90576","22.25","DUALSPOT-UV-BLUE-GREEN-RED-IR","788238","724371","903977","7.457517","1.842304","-0.027418","758311","907967","763056","5.782786","1.398460","-0.069500","853775","910119","813674","4.936177","1.159238","-0.106703","847942","932137","866669","4.061545","0.926989","-0.206455","727754","858705","953329","2.965719","0.680714","0.000000","12888","11240","10700","12045","9427","8592","11620","8553","7611","11414","7396","6208","11065","7860","11065",""
"MA200-0416","19631","56","1","1.10","1.4","2023-05-04T07:31:00","120","2023/05/04","07:31:00","-15.788228988647461","35.00268299947493","8.9","13","30","64","87","-951","24380","-6232","16","150","149.66","117.46","32.20","21.78","56.0","12.60","90760","22.25","DUALSPOT-UV-BLUE-GREEN-RED-IR","787110","725353","906033","7.804718","1.931980","-0.010664","757407","908884","764390","6.055737","1.466678","-0.021777","851833","909819","813887","5.168337","1.213460","-0.046403","846517","932077","867042","4.254893","0.971240","-0.063976","726729","858470","953384","3.107465","0.712480","-0.099840","17361","16357","16027","17226","15705","15219","16409","13980","13235","16514","13787","12980","16857","13781","12866",""
"MA200-0416","19632","56","1","1.10","1.4","2023-05-04T07:31:30","120","2023/05/04","07:31:30","-15.788090467453003","35.002013333141804","0.2","13","30","64","87","2384","24257","-5646","16","150","150.16","117.30","32.86","21.84","55.9","12.64","90756","22.25","DUALSPOT-UV-BLUE-GREEN-RED-IR","784878","724519","905586","8.052118","1.998361","-0.007366","756225","908660","764558","6.246658","1.515375","-0.021428","850577","909498","813897","5.335736","1.255494","-0.029361","838670","924314","860075","4.391833","1.003885","-0.054478","725735","857900","953013","3.210182","0.739383","-0.028705","12387","11866","11694","12065","10986","10641","11847","10620","10243","11712","9967","9451","12232","11438","11200",""
"MA200-0416","19633","56","1","1.10","1.4","2023-05-04T07:32:00","120","2023/05/04","07:32:00","-15.787899911403656","35.00086816662224","2.0","13","30","64","86","-1156","24232","-6392","16","150","150.35","117.42","32.93","21.91","55.8","12.67","90708","22.25","DUALSPOT-UV-BLUE-GREEN-RED-IR","781438","722560","903602","8.276233","2.054601","-0.019686","753569","906705","763214","6.420960","1.556615","-0.040529","852525","912716","817046","5.484116","1.288086","-0.072135","842441","929409","865032","4.514875","1.028317","-0.134709","723618","856055","951103","3.301538","0.758124","-0.162161","11210","10030","9640","11004","9283","8732","10491","8216","7517","10513","7442","6537","10868","7949","7078",""
"MA200-0416","19634","56","1","1.10","1.4","2023-05-04T07:32:30","120","2023/05/04","07:32:30","-15.786941111087799","35.00091383326799","4.1","13","30","64","87","1668","24180","-4192","16","150","150.09","117.38","32.71","21.95","55.7","12.69","90616","22.25","DUALSPOT-UV-BLUE-GREEN-RED-IR","782926","724815","906840","8.449876","2.098619","-0.016170","754223","908365","764860","6.555080","1.587616","-0.044317","849048","909730","814537","5.597675","1.312542","-0.075400","838425","925610","861655","4.608248","1.047653","-0.108096","725001","858158","953599","3.373880","0.773423","-0.134941","8688","7903","7644","8470","7025","6563","8031","6206","5648","7980","5930","5327","8609","6533","5915",""
"MA200-0416","19635","56","1","1.10","1.4","2023-05-04T07:33:00","120","2023/05/04","07:33:00","-15.786513030529022","34.99959522485733","6.8","13","30","64","87","-2576","24400","-4307","16","150","150.01","117.67","32.34","22.02","55.6","12.72","90692","22.31","DUALSPOT-UV-BLUE-GREEN-RED-IR","782896","725515","907992","8.584360","2.133108","-0.011372","754376","909280","765787","6.656986","1.613025","-0.020939","848616","909911","814873","5.687088","1.331824","-0.068762","838026","925741","861895","4.681736","1.061469","-0.147518","724887","858374","953964","3.429580","0.786748","-0.058881","6712","6264","6115","6420","5825","5634","6308","4950","4535","6265","4286","3706","6612","5756","5501",""
"MA200-0416","19636","56","1","1.10","1.4","2023-05-04T07:33:30","120","2023/05/04","07:33:30","-15.786312878131866","34.998371720314026","5.4","13","30","64","86","2000","24180","-4700","16","150","149.76","117.31","32.45","22.07","55.5","12.75","90648","22.31","DUALSPOT-UV-BLUE-GREEN-RED-IR","783812","726989","910164","8.712054","2.165735","-0.012963","749748","904366","761812","6.755798","1.634388","-0.059903","848823","910728","815729","5.771416","1.349228","-0.085837","839310","927639","863785","4.752175","1.075774","-0.110132","725185","859063","954839","3.482944","0.797798","-0.138954","6393","5905","5744","6244","4880","4445","5967","4453","3990","6023","4422","3954","6354","4756","4282",""
"MA200-0416","19637","56","1","1.10","1.4","2023-05-04T07:34:00","120","2023/05/04","07:34:00","-15.78614616394043","34.9973042011261","1.9","13","30","64","86","1400","24168","-4776","16","150","149.87","117.67","32.20","22.11","55.4","12.76","90576","22.38","DUALSPOT-UV-BLUE-GREEN-RED-IR","783762","727580","911204","8.833783","2.197544","-0.007225","750020","905307","762784","6.850198","1.657306","-0.025514","848445","910865","816020","5.852485","1.367086","-0.058316","839620","928477","864655","4.820184","1.088606","-0.138888","724956","859147","955026","3.536350","0.808730","-0.137184","6076","5802","5711","5947","5276","5062","5719","4604","4264","5798","3998","3473","6340","4742","4269",""
"MA200-0416","19638","56","1","1.10","1.4","2023-05-04T07:34:30","120","2023/05/04","07:34:30","-15.787039637565613","34.99759370088577","2.1","13","30","64","86","-2160","23940","-5804","16","150","149.73","117.46","32.27","22.17","55.3","12.78","90620","22.38","DUALSPOT-UV-BLUE-GREEN-RED-IR","777500","722328","904848","8.940486","2.227512","0.003231","750287","906142","763615","6.929388","1.676755","-0.023459","848479","911367","816550","5.918915","1.381230","-0.070170","840246","929551","865764","4.873880","1.097976","-0.182609","724934","859395","955394","3.577785","0.818629","-0.056862","5335","5454","5494","4997","4468","4299","4695","3639","3317","4586","2913","2426","4927","4285","4094",""
"MA200-0416","19639","56","1","1.10","1.4","2023-05-04T07:35:00","120","2023/05/04","07:35:00","-15.787176370620728","34.9975460767746","3.0","13","30","64","86","-72","24680","-1764","16","150","150.03","117.58","32.45","22.22","55.3","12.82","90620","22.44","DUALSPOT-UV-BLUE-GREEN-RED-IR","777603","723045","906012","9.042246","2.251928","-0.023263","750479","906953","764430","7.001951","1.692873","-0.049483","848509","911891","817133","5.979992","1.393938","-0.078984","841215","931043","867219","4.922370","1.106077","-0.210594","720455","854357","949841","3.615461","0.825308","-0.238753","5083","4419","4199","4574","3682","3397","4312","3251","2929","4137","2504","2031","4476","2875","2402",""
"MA200-0416","19640","56","1","1.10","1.4","2023-05-04T07:35:30","120","2023/05/04","07:35:30","-15.786925315856934","34.99652165174484","4.0","13","30","64","86","2184","24428","-3423","16","150","149.61","117.24","32.37","22.26","55.2","12.85","90652","22.44","DUALSPOT-UV-BLUE-GREEN-RED-IR","776967","722973","906125","9.142748","2.275604","-0.026571","750150","907024","764635","7.073024","1.706749","-0.088909","848192","911945","817267","6.040681","1.404488","-0.154402","834701","924225","860903","4.971424","1.113719","-0.257739","720313","854428","950014","3.653221","0.832372","-0.196292","5035","4296","4051","4494","3177","2759","4297","2706","2223","4197","2368","1840","4499","3048","2620",""
"MA200-0416","19641","56","1","1.10","1.4","2023-05-04T07:36:00","120","2023/05/04","07:36:00","-15.785926878452301","34.99619287252426","4.6","13","30","64","86","1424","24544","-2376","16","150","149.46","117.79","31.67","22.32","55.2","12.88","90612","22.56","DUALSPOT-UV-BLUE-GREEN-RED-IR","778631","725034","908919","9.240901","2.301097","-0.005119","746494","903097","761409","7.144343","1.723163","-0.032760","848524","912771","818112","6.098676","1.416409","-0.072531","835953","925933","862597","5.016161","1.120609","-0.243658","720820","855291","951036","3.690359","0.841372","-0.039692","4894","4728","4673","4488","3842","3637","4087","3125","2834","3810","2182","1714","4404","3969","3841",""
"MA200-0416","19642","56","1","1.10","1.4","2023-05-04T07:36:30","120","2023/05/04","07:36:30","-15.784652590751648","34.9957891702652","5.8","13","30","64","86","-40","24572","-2996","16","150","148.93","117.45","31.48","22.37","55.1","12.91","90592","22.63","DUALSPOT-UV-BLUE-GREEN-RED-IR","772019","719331","901963","9.321771","2.320989","-0.013207","746222","903187","761608","7.202195","1.736251","-0.035915","843911","908122","814033","6.144334","1.424306","-0.139594","835680","925967","862682","5.055097","1.126832","-0.213933","720533","855153","950950","3.718465","0.847177","-0.113701","4044","3711","3600","3651","3082","2901","3227","2082","1737","3325","1983","1597","3343","2575","2349",""
"MA200-0416","19643","56","1","1.10","1.4","2023-05-04T07:37:00","120","2023/05/04","07:37:00","-15.783361732959747","34.9955530166626","4.6","13","30","64","86","800","24161","-3426","16","150","150.09","117.62","32.47","22.44","55.0","12.94","0","0.00","DUALSPOT-UV-BLUE-GREEN-RED-IR","776463","724124","908213","9.438268","2.349212","-0.020646","749376","907574","765434","7.283223","1.754324","-0.046528","845973","910860","816594","6.215513","1.439589","-0.065501","833677","924155","861039","5.110594","1.137107","-0.143783","722988","858377","954637","3.762460","0.855875","-0.154453","5817","5104","4868","5106","4125","3814","5024","3907","3570","4733","3174","2728","5225","3741","3304",""
"MA200-0416","19644","56","1","1.10","1.4","2023-05-04T07:37:30","120","2023/05/04","07:37:30","-15.782150208950043","34.995661556720734","1.9","13","30","64","86","-5565","22980","-9038","16","150","149.70","117.94","31.76","22.47","54.9","12.94","0","0.00","DUALSPOT-UV-BLUE-GREEN-RED-IR","776456","725505","910610","9.628939","2.399818","-0.002025","744824","903126","761992","7.405681","1.782905","-0.028737","845947","911763","817615","6.313122","1.459360","-0.075332","834948","926334","863235","5.190737","1.151239","-0.153539","723628","859639","956165","3.821121","0.866931","-0.165953","9495","9359","9314","7697","6671","6346","6871","5168","4656","6817","4464","3793","6948","4863","4251",""
"MA200-0416","19645","56","1","1.10","1.4","2023-05-04T07:38:00","120","2023/05/04","07:38:00","-15.781662166118622","34.99457585811615","5.7","13","30","64","86","-1111","23600","-8415","16","150","146.45","117.50","28.95","22.54","54.8","12.98","90576","22.81","DUALSPOT-UV-BLUE-GREEN-RED-IR","771278","723359","909184","10.070189","2.519931","0.012176","741259","901359","761211","7.700622","1.856231","0.001523","842641","910447","817085","6.559867","1.517605","-0.008801","831540","924465","862079","5.391072","1.196628","-0.021398","721335","858234","955027","3.969942","0.899938","-0.037352","22056","24368","25139","18608","18775","18828","17434","16702","16482","17105","15728","15336","17692","15926","15408",""
"MA200-0416","19646","56","1","1.10","1.4","2023-05-04T07:38:30","120","2023/05/04","07:38:30","-15.781369090080261","34.992861211299896","7.0","13","30","64","86","-1680","24424","-3696","16","150","149.96","117.62","32.34","22.61","54.7","13.03","90640","22.88","DUALSPOT-UV-BLUE-GREEN-RED-IR","767567","721230","907059","10.460266","2.621690","-0.007017","742437","904204","764014","8.020767","1.937810","-0.013327","838938","907651","814916","6.840975","1.587051","-0.022267","834651","928988","866561","5.630872","1.253122","-0.040095","718230","855284","951998","4.148836","0.941872","-0.056830","19479","18480","18147","20177","18699","18229","19841","17827","17219","20454","17525","16686","21246","18113","17192",""
"MA200-0416","19647","56","1","1.10","1.4","2023-05-04T07:39:00","120","2023/05/04","07:39:00","-15.781238675117493","34.991307497024536","4.7","13","30","64","86","-1156","24312","-4000","16","150","149.90","117.34","32.55","22.67","54.8","13.10","90668","22.94","DUALSPOT-UV-BLUE-GREEN-RED-IR","766618","721034","907145","10.601902","2.657272","-0.013602","742184","904614","764551","8.132466","1.963930","-0.032122","838545","907883","815301","6.938816","1.608067","-0.059962","828854","923104","861183","5.710268","1.269322","-0.090246","718274","855761","952618","4.210094","0.953920","-0.143329","7089","6420","6196","7056","5948","5595","6922","5359","4888","6788","4992","4479","7292","5170","4548",""
"MA200-0416","19648","56","1","1.10","1.4","2023-05-04T07:39:30","120","2023/05/04","07:39:30","-15.780582666397095","34.99095892906189","3.2","13","30","64","86","-615","24261","-5423","16","150","149.87","117.81","32.05","22.72","54.8","13.15","90672","23.00","DUALSPOT-UV-BLUE-GREEN-RED-IR","768400","723363","910377","10.725275","2.690946","0.000401","738377","900590","761309","8.227107","1.986257","-0.025809","838990","908946","816400","7.018811","1.625180","-0.054888","829805","924618","862747","5.775536","1.282321","-0.090951","718627","856497","953565","4.259458","0.963582","-0.133579","6150","6170","6177","5955","5163","4912","5637","4432","4069","5558","4068","3643","5853","4210","3730",""
"MA200-0416","19649","56","1","1.10","1.4","2023-05-04T07:40:00","120","2023/05/04","07:40:00","-15.779604136943817","34.99086910486221","3.6","13","30","64","86","-792","24744","-3528","16","150","150.43","117.58","32.84","22.79","54.7","13.20","90704","23.00","DUALSPOT-UV-BLUE-GREEN-RED-IR","767638","722999","910097","10.792898","2.709058","-0.005382","738305","900825","761609","8.275260","1.998018","-0.023984","839128","909372","816834","7.059520","1.633071","-0.093688","830630","925835","863911","5.809871","1.288086","-0.181070","718797","856871","954029","4.286859","0.970762","-0.020281","3378","3239","3192","3035","2654","2533","2874","1994","1730","2929","1760","1427","3255","3054","2995",""
"MA200-0416","19650","56","1","1.10","1.4","2023-05-04T07:40:30","120","2023/05/04","07:40:30","-15.778451919555664","34.991016149520874","5.2","13","30","64","86","-483","24028","-4972","16","150","150.28","117.71","32.57","22.84","54.7","13.24","90752","23.06","DUALSPOT-UV-BLUE-GREEN-RED-IR","762983","719002","905194","10.863894","2.727602","-0.007458","739153","902297","762918","8.328555","2.009861","-0.042108","839610","910224","817689","7.105142","1.642412","-0.071975","832123","927780","865769","5.845001","1.292628","-0.370437","719565","857996","955330","4.315643","0.975567","-0.243631","3542","3343","3277","3356","2695","2484","3217","2380","2129","2994","1398","945","3415","2060","1665",""
"MA200-0416","19651","56","1","1.10","1.4","2023-05-04T07:41:00","120","2023/05/04","07:41:00","-15.77717673778534","34.99115651845932","5.4","13","30","64","85","-420","24224","-4908","16","150","149.76","118.10","31.66","22.90","54.6","13.26","90776","23.13","DUALSPOT-UV-BLUE-GREEN-RED-IR","763538","719954","906606","10.944235","2.750284","0.006057","739862","903511","764055","8.386394","2.023714","-0.019485","835350","905948","813916","7.153583","1.653653","-0.029601","833296","929381","867332","5.884063","1.300048","-0.101525","719976","858711","956188","4.346983","0.982003","-0.099668","3995","4207","4279","3630","3243","3120","3405","2947","2810","3318","2351","2077","3706","2839","2586",""
"MA200-0416","19652","56","1","1.10","1.4","2023-05-04T07:41:30","120","2023/05/04","07:41:30","-15.775616765022278","34.99135583639145","5.6","13","30","64","86","-1888","24300","-5250","16","150","149.59","117.29","32.30","22.95","54.5","13.29","90848","23.13","DUALSPOT-UV-BLUE-GREEN-RED-IR","763952","720821","907912","11.036482","2.774213","-0.007596","740536","904804","765298","8.454924","2.040123","-0.024546","835270","906258","814292","7.208139","1.663809","-0.100909","827387","923113","861569","5.928887","1.307648","-0.164000","715446","853515","950488","4.380737","0.988921","-0.112546","4619","4351","4262","4331","3766","3586","3861","2610","2235","3834","2360","1943","4020","2992","2692",""
"MA200-0416","19653","56","1","1.10","1.4","2023-05-04T07:42:00","120","2023/05/04","07:42:00","-15.774491667747498","34.99207216501236","4.8","13","30","64","86","-2812","24052","-4796","16","150","149.51","117.66","31.84","23.00","54.4","13.32","90992","23.19","DUALSPOT-UV-BLUE-GREEN-RED-IR","765738","723313","911439","11.177614","2.813814","0.004188","736749","900839","762103","8.545899","2.062868","-0.013073","835868","907441","815501","7.282466","1.680689","-0.036313","828766","925120","863532","5.987318","1.319384","-0.082552","716267","854781","951983","4.423013","0.998811","-0.048003","7045","7304","7391","5731","5295","5155","5244","4400","4147","4982","3697","3334","5019","4338","4140",""
"MA200-0416","19654","56","1","1.10","1.4","2023-05-04T07:42:30","120","2023/05/04","07:42:30","-15.773496866226196","34.99287122488022","6.0","13","30","64","86","-442","24200","-6238","16","150","149.83","117.34","32.49","23.06","54.4","13.36","91096","23.25","DUALSPOT-UV-BLUE-GREEN-RED-IR","758623","716990","903671","11.266953","2.838121","-0.002094","736655","901136","762480","8.612514","2.079473","-0.017554","836132","908129","816193","7.339836","1.693296","-0.049919","830212","927046","865422","6.034300","1.328158","-0.118692","716487","855295","952633","4.459560","1.006590","-0.095446","4471","4394","4368","4208","3789","3655","4059","3221","2970","4016","2709","2340","4350","3345","3051",""
"MA200-0416","19655","56","1","1.10","1.4","2023-05-04T07:43:00","120","2023/05/04","07:43:00","-15.772035241127014","34.9928862452507","6.0","13","30","64","86","-1064","24372","-4112","16","150","150.36","118.41","31.95","23.10","54.4","13.38","91140","23.25","DUALSPOT-UV-BLUE-GREEN-RED-IR","759701","718679","906151","11.388807","2.873779","0.008921","737135","902326","763630","8.692323","2.097831","-0.027753","836381","908900","817028","7.405115","1.707321","-0.048632","830857","928196","866587","6.086141","1.339012","-0.066193","716906","856069","953579","4.499967","1.015234","-0.081191","6044","6555","6727","4996","4259","4025","4576","3644","3365","4392","3408","3130","4766","3779","3491",""
"MA200-0416","19656","56","1","1.10","1.4","2023-05-04T07:43:30","120","2023/05/04","07:43:30","-15.771189153194427","34.99317806959152","1.6","13","30","64","86","-3432","23496","-5544","16","150","150.01","117.63","32.38","23.15","54.3","13.42","91208","23.31","DUALSPOT-UV-BLUE-GREEN-RED-IR","760816","720416","908668","11.512844","2.907150","-0.002712","737981","903956","765165","8.777385","2.119928","-0.009137","836830","909877","818026","7.474721","1.722478","-0.049852","825314","922401","861247","6.140086","1.348185","-0.156374","717103","856625","954274","4.542116","1.023919","-0.105814","6193","6053","6006","5360","5059","4962","4912","3886","3579","4601","2842","2347","5005","3747","3380",""
"MA200-0416","19657","56","1","1.10","1.4","2023-05-04T07:44:00","120","2023/05/04","07:44:00","-15.771218240261078","34.99431872367859","5.2","13","30","64","85","3339","23992","-5648","16","150","150.03","117.46","32.57","23.21","54.3","13.47","91148","23.38","DUALSPOT-UV-BLUE-GREEN-RED-IR","760618","720873","909483","11.635241","2.936895","-0.016999","737865","904413","765745","8.863509","2.141058","-0.020183","832100","905222","813966","7.545377","1.738458","-0.041716","826181","923785","862673","6.196163","1.359259","-0.094184","717643","857540","955338","4.583347","1.032325","-0.113155","6120","5364","5109","5435","4809","4610","4993","4073","3798","4789","3411","3024","4903","3606","3228",""
"MA200-0416","19658","56","1","1.10","1.4","2023-05-04T07:44:30","120","2023/05/04","07:44:30","-15.77162617444992","34.99498999118805","4.0","13","30","64","85","-648","24028","-4352","16","150","149.57","117.02","32.54","23.26","54.2","13.50","91112","23.38","DUALSPOT-UV-BLUE-GREEN-RED-IR","754989","716023","903571","11.734518","2.962808","-0.007614","734109","900248","762304","8.935992","2.156173","-0.055005","831896","905375","814214","7.605535","1.750397","-0.077845","826403","924355","863236","6.243282","1.367336","-0.154583","717494","857592","955472","4.620041","1.039205","-0.156902","4982","4677","4574","4591","3443","3078","4267","3046","2680","4039","2490","2055","4380","2953","2539",""
"MA200-0416","19659","56","1","1.10","1.4","2023-05-04T07:45:00","120","2023/05/04","07:45:00","-15.772439122200012","34.995399594306946","5.6","13","30","64","85","1504","24224","-5032","16","150","150.21","117.54","32.67","23.30","54.2","13.52","91032","23.44","DUALSPOT-UV-BLUE-GREEN-RED-IR","753492","715125","902655","11.832441","2.988748","-0.005661","732785","899107","761474","9.004317","2.173900","-0.010677","831133","904975","813964","7.661837","1.762938","-0.045375","825276","923469","862494","6.291569","1.378094","-0.054127","716621","856807","954711","4.656402","1.048090","-0.039670","4893","4663","4585","4309","4022","3931","3976","3186","2950","4121","3303","3074","4321","3799","3647",""
"MA200-0416","19660","56","1","1.10","1.4","2023-05-04T07:45:30","120","2023/05/04","07:45:30","-15.773192703723907","34.996590077877045","4.9","14","30","64","86","1627","24064","-5592","16","150","149.73","118.00","31.74","23.35","54.2","13.57","90920","23.44","DUALSPOT-UV-BLUE-GREEN-RED-IR","757034","719216","908216","11.968210","3.024971","-0.000907","734847","902296","764401","9.104486","2.198587","-0.013616","832615","907219","816136","7.747365","1.781696","-0.040684","828665","927797","866654","6.359186","1.390993","-0.093212","713702","853683","951306","4.708595","1.057548","-0.154272","6758","6704","6685","6293","5766","5599","6017","4907","4575","5749","4077","3609","6179","4163","3579",""
"MA200-0416","19661","56","1","1.10","1.4","2023-05-04T07:46:00","120","2023/05/04","07:46:00","-15.774408340454102","34.997308909893036","6.7","13","30","64","85","848","24408","-5136","16","150","149.60","117.75","31.86","23.39","54.1","13.57","90812","23.50","DUALSPOT-UV-BLUE-GREEN-RED-IR","749942","715487","904866","12.460121","3.157140","-0.000752","730106","899488","762884","9.487494","2.298164","-0.005732","828722","905552","815391","8.071501","1.864022","-0.010723","825027","925911","865577","6.624943","1.456409","-0.019737","711171","852113","950110","4.903938","1.106007","-0.024517","24538","24368","24310","24114","23172","22870","22855","21455","21034","22644","20601","20025","23175","21249","20688",""
"MA200-0416","19662","56","1","1.10","1.4","2023-05-04T07:46:30","120","2023/05/04","07:46:30","-15.775871396064758","34.9975568652153","5.5","13","30","64","85","560","24188","-4048","16","150","149.45","117.79","31.66","23.44","54.0","13.61","90756","23.50","DUALSPOT-UV-BLUE-GREEN-RED-IR","753156","719662","910667","12.735476","3.229095","-0.003027","727725","897584","761557","9.692297","2.347795","-0.015384","829673","907507","817415","8.248932","1.905989","-0.022404","820292","921384","861525","6.772143","1.489555","-0.038759","712141","853817","952139","5.010099","1.129707","-0.055864","13730","13349","13220","12889","11621","11216","12505","11005","10554","12537","10504","9930","12589","10457","9836",""
"MA200-0416","19663","56","1","1.10","1.4","2023-05-04T07:47:00","120","2023/05/04","07:47:00","-15.77704268693924","34.99783939123154","2.6","12","30","64","85","-1056","24308","-3407","16","150","150.49","117.92","32.57","23.50","54.0","13.65","90712","23.56","DUALSPOT-UV-BLUE-GREEN-RED-IR","751768","719085","910241","12.892294","3.268451","-0.010830","726958","897324","761517","9.808302","2.374046","-0.031936","824727","902691","813198","8.346146","1.925891","-0.060770","821690","923445","863562","6.849581","1.503581","-0.115259","712569","854675","953220","5.067997","1.142110","-0.080491","7811","7096","6854","7293","5974","5553","6844","5072","4541","6588","4319","3681","6858","5319","4871",""
"MA200-0416","19664","56","1","1.10","1.4","2023-05-04T07:47:30","120","2023/05/04","07:47:30","-15.778244972229004","34.99822586774826","5.0","12","30","64","85","-212","24564","-3400","16","150","150.03","118.02","32.01","23.54","54.0","13.69","90672","23.63","DUALSPOT-UV-BLUE-GREEN-RED-IR","741864","710169","899154","12.999010","3.295555","-0.007163","728141","899349","763355","9.889296","2.392707","-0.025046","824697","903154","813737","8.414323","1.939850","-0.055547","821741","923919","864101","6.905419","1.514756","-0.073180","712438","854799","953459","5.109638","1.150965","-0.075641","5311","4973","4858","5087","4321","4077","4795","3620","3268","4746","3502","3153","4928","3864","3554",""
"MA200-0416","19665","56","1","1.10","1.4","2023-05-04T07:48:00","120","2023/05/04","07:48:00","-15.779671132564545","34.998338401317596","5.1","12","30","64","85","1768","24100","-4848","16","150","150.09","118.06","32.04","23.59","53.9","13.72","90572","23.69","DUALSPOT-UV-BLUE-GREEN-RED-IR","748078","716643","907687","13.093403","3.321596","0.001670","728831","900751","764698","9.959663","2.410106","-0.013323","825152","904142","814751","8.475019","1.952916","-0.043335","822608","925320","865477","6.955067","1.523720","-0.107789","712549","855168","953971","5.149446","1.160938","-0.021373","4696","4774","4801","4418","4026","3900","4268","3385","3121","4219","2807","2411","4710","4348","4243",""
"MA200-0416","19666","56","1","1.10","1.4","2023-05-04T07:48:30","120","2023/05/04","07:48:30","-15.780903697013855","34.998646676540375","4.9","12","30","64","85","1916","24212","-4888","16","150","150.49","118.21","32.28","23.66","53.8","13.75","90424","23.69","DUALSPOT-UV-BLUE-GREEN-RED-IR","745510","716251","908160","13.487843","3.430324","0.000925","726461","899935","764631","10.272093","2.492439","-0.004716","823348","903939","815135","8.741308","2.022403","-0.007018","822599","926844","867419","7.175398","1.577931","-0.020260","712629","856334","955635","5.308182","1.198937","-0.035718","19598","19783","19846","19593","18907","18687","18702","17871","17621","18699","16848","16326","18758","16444","15768",""
"MA200-0416","19667","56","1","1.10","1.4","2023-05-04T07:49:00","120","2023/05/04","07:49:00","-15.78189367055893","34.99961990118027","6.0","12","30","64","85","2164","23856","-4368","16","150","150.03","117.90","32.13","23.72","53.7","13.76","90324","23.75","DUALSPOT-UV-BLUE-GREEN-RED-IR","743838","716910","909925","13.908333","3.534538","-0.009932","721066","895246","761216","10.572352","2.564495","-0.017695","822264","904490","816115","8.991177","2.078938","-0.031510","815568","920356","861686","7.375080","1.621973","-0.043853","707304","850797","949765","5.445017","1.231787","-0.033387","20948","19051","18405","18879","16626","15904","17595","14609","13710","16992","13752","12839","16213","14283","13719",""
"MA200-0416","19668","56","1","1.10","1.4","2023-05-04T07:49:30","120","2023/05/04","07:49:30","-15.782477498054504","35.001153999823146","4.9","12","30","64","85","-1326","24519","-4992","16","150","149.90","117.78","32.12","23.79","53.6","13.80","90264","23.81","DUALSPOT-UV-BLUE-GREEN-RED-IR","739041","713466","906060","14.138588","3.592579","-0.007972","721500","896882","762891","10.739569","2.604555","-0.017773","821855","905019","816813","9.132988","2.110773","-0.032678","815965","921604","863060","7.487930","1.645058","-0.062878","707517","851598","950813","5.528108","1.248648","-0.089281","11482","10614","10319","10524","9247","8837","9996","8229","7698","9612","7211","6535","9855","7334","6598",""
"MA200-0416","19669","56","1","1.10","1.4","2023-05-04T07:50:00","120","2023/05/04","07:50:00","-15.782978594303131","35.00154166657012","3.7","12","30","64","85","-500","24004","-4940","16","150","150.23","117.58","32.65","23.85","53.4","13.80","90300","23.88","DUALSPOT-UV-BLUE-GREEN-RED-IR","737165","712515","905302","14.307924","3.640880","0.002476","720477","896520","762840","10.870829","2.638595","-0.008771","821516","905388","817417","9.245355","2.139621","-0.011745","816795","923159","864719","7.579705","1.666509","-0.033536","707651","852211","951652","5.595247","1.265791","-0.020698","8458","8690","8769","8275","7730","7555","7934","7336","7156","7830","6592","6243","7976","7335","7148",""
"MA200-0416","19670","56","1","1.10","1.4","2023-05-04T07:50:30","120","2023/05/04","07:50:30","-15.783472895622253","35.00146249984391","0.0","12","30","64","85","-2000","24328","-4796","16","150","150.32","117.60","32.72","23.90","53.3","13.81","90340","23.94","DUALSPOT-UV-BLUE-GREEN-RED-IR","738511","714313","907802","14.407944","3.668857","0.000511","721558","898354","764493","10.945728","2.655851","-0.026807","821850","906226","818259","9.308625","2.152424","-0.059011","817567","924475","866013","7.632581","1.676302","-0.098137","707930","852780","952361","5.636341","1.275989","-0.028765","4995","5022","5032","4721","3910","3650","4466","3249","2882","4510","3003","2579","4881","4354","4200",""
"MA200-0416","19671","56","1","1.10","1.4","2023-05-04T07:51:00","120","2023/05/04","07:51:00","-15.783852458000183","35.00154699990526","0.7","12","30","64","84","-2724","24080","-5308","16","150","149.45","117.62","31.82","23.97","53.2","13.86","90376","24.00","DUALSPOT-UV-BLUE-GREEN-RED-IR","737196","713751","907444","14.518389","3.697752","-0.003198","720680","897968","764408","11.030581","2.675842","-0.018654","815935","900320","813087","9.378673","2.167308","-0.041297","816684","923982","865674","7.690171","1.687556","-0.071847","707187","852266","951903","5.679695","1.285097","-0.071549","5515","5332","5270","5348","4656","4435","4944","3882","3563","4912","3547","3164","5149","3997","3661",""
"MA200-0416","19672","56","1","1.10","1.4","2023-05-04T07:51:30","120","2023/05/04","07:51:30","-15.783837735652924","35.00156599993352","1.3","12","30","64","85","-664","24012","-5912","16","150","150.08","117.81","32.26","24.03","53.3","13.94","90380","24.06","DUALSPOT-UV-BLUE-GREEN-RED-IR","734760","712245","905886","14.688236","3.742645","-0.003329","718323","895904","762851","11.162730","2.708522","-0.013140","817992","903326","815983","9.491516","2.192211","-0.035568","813217","920699","862776","7.784548","1.707691","-0.050696","709313","855248","955364","5.748773","1.300794","-0.049031","8467","8173","8072","8315","7509","7251","7952","6408","5945","8036","6261","5762","8190","6797","6389",""
"MA200-0416","19673","56","1","1.10","1.4","2023-05-04T07:52:00","120","2023/05/04","07:52:00","-15.783681154251099","35.00201399996877","2.4","12","30","72","85","620","24184","-5852","16","150","149.72","117.86","31.86","24.10","53.4","14.02","90372","24.13","DUALSPOT-UV-BLUE-GREEN-RED-IR","734389","712600","906715","14.843613","3.785743","0.002287","717802","895977","763097","11.281672","2.737676","-0.012439","817924","903860","816651","9.594381","2.215844","-0.025265","706474","800304","750059","7.866495","1.724344","-0.059233","705160","850615","950329","5.808330","1.313035","-0.077227","7743","7945","8015","7481","6783","6560","7245","6158","5832","6975","5244","4758","7058","5367","4873",""
"MA200-0416","19674","56","1","1.10","1.4","2023-05-04T07:52:30","120","2023/05/04","07:52:30","-15.783677875995636","35.002248499542475","2.1","12","30","64","85","196","24236","-5780","16","150","149.76","117.46","32.30","24.16","53.2","14.03","90372","24.19","DUALSPOT-UV-BLUE-GREEN-RED-IR","737189","715619","910660","14.910547","3.804065","-0.000417","719665","898526","765375","11.330419","2.750593","-0.004465","814424","900273","813458","9.635848","2.225220","-0.031192","810587","918479","860845","7.899645","1.729488","-0.159746","705960","851718","951610","5.836961","1.320118","-0.025507","3347","3331","3326","3076","2964","2928","2930","2409","2253","2831","1597","1251","3405","3063","2963",""
"MA200-0416","19675","56","1","1.10","1.4","2023-05-04T07:53:00","120","2023/05/04","07:53:00","-15.783708572387695","35.0026011664886","1.5","12","30","64","85","-888","23996","-5880","16","150","150.03","118.18","31.85","24.21","53.1","14.05","90380","24.25","DUALSPOT-UV-BLUE-GREEN-RED-IR","731843","710781","904722","14.975788","3.821832","0.000924","716350","894779","762305","11.380914","2.761488","-0.031410","814986","901204","814394","9.677035","2.233118","-0.062030","812522","920950","863223","7.934365","1.735949","-0.082696","706859","853021","953123","5.865711","1.326139","-0.069001","3242","3276","3288","3167","2535","2333","2893","2058","1808","2947","2035","1779","3398","2640","2419",""
"MA200-0416","19676","56","1","1.10","1.4","2023-05-04T07:53:30","120","2023/05/04","07:53:30","-15.783722817897797","35.00294533325359","2.5","12","30","64","84","-142","24203","-4961","16","150","147.77","116.63","31.14","24.29","53.1","14.13","90396","24.31","DUALSPOT-UV-BLUE-GREEN-RED-IR","732095","711492","905836","15.068497","3.847295","0.002451","715398","894069","761795","11.448912","2.777074","-0.020079","814646","901265","814523","9.737152","2.245658","-0.040813","812085","920843","863196","7.982980","1.743578","-0.139864","706364","852667","952815","5.901079","1.333346","-0.074741","4669","4802","4848","4322","3710","3514","4279","3343","3062","4182","2457","1975","4236","3232","2939",""
"MA200-0416","19677","56","1","1.10","1.4","2023-05-04T07:54:00","120","2023/05/04","07:54:00","-15.783694922924042","35.00335816619918","0.1","12","30","64","85","115","23826","-6850","16","150","149.46","117.75","31.71","24.35","53.2","14.21","90400","24.38","DUALSPOT-UV-BLUE-GREEN-RED-IR","732873","714646","910918","15.429100","3.942527","-0.001730","711937","892110","760784","11.735252","2.848308","-0.009538","814243","902892","816582","9.976997","2.302432","-0.018716","813380","924013","866664","8.175905","1.786965","-0.032719","707077","854644","955374","6.038202","1.364163","-0.045028","17987","17639","17519","18027","16652","16212","16910","14863","14249","16437","13726","12968","16267","13575","12790",""
"MA200-0416","19678","56","1","1.10","1.4","2023-05-04T07:54:30","120","2023/05/04","07:54:30","-15.783817529678345","35.004267499316484","4.6","12","30","64","85","-603","23961","-6257","16","150","149.51","117.54","31.96","24.43","53.1","14.27","90388","24.50","DUALSPOT-UV-BLUE-GREEN-RED-IR","724591","708657","904373","15.882591","4.067657","0.001218","709928","891742","761148","12.090635","2.939754","-0.006325","813085","903534","817724","10.282454","2.375692","-0.017634","807962","919523","862929","8.431636","1.846468","-0.026893","702511","850255","950884","6.225462","1.408117","-0.034510","22661","22993","23108","22413","21208","20821","21575","19028","18263","21827","18676","17793","22255","19209","18319",""
"MA200-0416","19679","56","1","1.10","1.4","2023-05-04T07:55:00","120","2023/05/04","07:55:00","-15.784703254699707","35.00446116598323","4.6","12","30","64","84","-2300","23984","-6172","16","150","150.30","117.69","32.61","24.49","53.0","14.27","90468","24.56","DUALSPOT-UV-BLUE-GREEN-RED-IR","724344","708814","904772","16.008907","4.103286","0.001478","710546","892909","762252","12.188535","2.964449","-0.011021","808100","898307","813091","10.372370","2.398419","-0.012422","807395","919215","862694","8.507237","1.862472","-0.050887","701803","849691","950298","6.284748","1.420714","-0.068589","6303","6417","6456","6166","5613","5436","6342","5786","5618","6444","4923","4497","7036","5396","4917",""
"MA200-0416","19680","56","1","1.10","1.4","2023-05-04T07:55:30","120","2023/05/04","07:55:30","-15.785548508167267","35.00435883272439","0.2","12","30","64","85","-2444","23828","-6244","16","150","149.53","118.17","31.36","24.57","52.8","14.29","90552","24.69","DUALSPOT-UV-BLUE-GREEN-RED-IR","727504","712471","909704","16.105680","4.132413","0.009498","712458","895901","764972","12.263213","2.984481","0.001161","810221","901243","815876","10.435611","2.411449","-0.039278","805477","917477","861175","8.561410","1.874196","-0.036100","704271","853001","954110","6.327802","1.431339","-0.015722","4810","5455","5678","4684","4736","4752","4443","3449","3151","4599","3751","3513","5089","4733","4629",""
"MA200-0416","19681","56","1","1.10","1.4","2023-05-04T07:56:00","120","2023/05/04","07:56:00","-15.786137521266937","35.004232498817146","6.2","12","30","64","84","-1428","24220","-5536","16","150","149.90","118.02","31.88","24.64","52.7","14.33","90596","24.75","DUALSPOT-UV-BLUE-GREEN-RED-IR","723373","709513","906475","16.321358","4.191105","0.000611","709023","892687","762549","12.432439","3.027094","-0.007910","810539","902584","817383","10.583053","2.448434","-0.009662","806394","919406","863195","8.681157","1.899975","-0.040438","704789","854196","955673","6.418174","1.452810","-0.028713","10733","10814","10842","10629","9909","9678","10372","9632","9409","10179","8113","7534","10697","9409","9032",""
"MA200-0416","19682","56","1","1.10","1.4","2023-05-04T07:56:30","120","2023/05/04","07:56:30","-15.787061512470245","35.004075499717146","2.2","12","30","64","85","256","24332","-5388","16","150","150.49","118.54","31.95","24.72","52.6","14.37","90640","24.81","DUALSPOT-UV-BLUE-GREEN-RED-IR","724980","711703","909558","16.447006","4.226396","0.003268","710252","894864","764543","12.525633","3.050636","-0.007204","806575","898652","813966","10.661029","2.465618","-0.029154","807857","921510","865292","8.744959","1.912617","-0.058619","701116","850046","951089","6.466383","1.462974","-0.060530","6225","6488","6579","5828","5463","5345","5461","4465","4166","5399","3970","3569","5681","4444","4082",""
"MA200-0416","19683","56","1","1.10","1.4","2023-05-04T07:57:00","120","2023/05/04","07:57:00","-15.786851346492767","35.002695999573916","5.7","12","30","64","85","-1796","24028","-5336","16","150","149.96","118.18","31.78","24.79","52.5","14.41","90672","24.94","DUALSPOT-UV-BLUE-GREEN-RED-IR","725109","712163","910352","16.522398","4.246586","-0.000353","710675","895647","765346","12.579060","3.062456","-0.024354","807256","899699","814986","10.706556","2.474146","-0.060899","803793","917140","861217","8.783153","1.918840","-0.115880","701425","850612","951786","6.497143","1.469189","-0.072904","3747","3730","3725","3351","2756","2565","3198","2227","1936","3242","1964","1606","3636","2731","2467",""
"MA200-0416","19684","56","1","1.10","1.4","2023-05-04T07:57:30","120","2023/05/04","07:57:30","-15.786656022071838","35.00130699982401","4.4","12","30","64","84","-212","24072","-5272","16","150","149.96","117.78","32.18","24.86","52.2","14.40","90612","25.00","DUALSPOT-UV-BLUE-GREEN-RED-IR","719278","706891","903797","16.604681","4.271362","0.007273","706328","890578","761114","12.639244","3.078996","0.000606","806637","899374","814807","10.757174","2.486056","-0.020494","803526","917135","861305","8.823609","1.926219","-0.083879","701144","850493","951734","6.530468","1.476565","-0.049822","4103","4522","4667","3788","3810","3817","3567","3072","2923","3446","2300","1980","3952","3201","2982",""
"MA200-0416","19685","56","1","1.10","1.4","2023-05-04T07:58:00","120","2023/05/04","07:58:00","-15.786495506763458","34.99965304136276","14.1","12","30","64","84","-984","24308","-4964","16","150","149.51","117.70","31.80","24.92","52.1","14.40","90684","25.06","DUALSPOT-UV-BLUE-GREEN-RED-IR","721832","709689","907550","16.668921","4.290020","0.005492","708602","893770","763931","12.686332","3.090084","-0.016159","808561","901795","817050","10.797132","2.494239","-0.042551","807956","922438","866315","8.855889","1.931447","-0.118680","703448","853455","955120","6.557621","1.483583","-0.009081","3205","3445","3528","2965","2584","2461","2818","2136","1931","2751","1649","1341","3222","3082","3041",""
"MA200-0416","19686","56","1","1.10","1.4","2023-05-04T07:58:30","120","2023/05/04","07:58:30","-15.786069512367249","34.99715107679367","5.1","12","30","64","84","556","23932","-6515","16","150","150.43","118.06","32.37","25.00","51.8","14.40","90584","25.19","DUALSPOT-UV-BLUE-GREEN-RED-IR","724830","713096","912115","16.758938","4.315391","0.002174","705922","890733","761425","12.737877","3.101604","-0.025357","805127","898272","813878","10.838913","2.500045","-0.164712","808673","923510","867352","8.889089","1.934772","-0.483132","703711","853970","955770","6.586794","1.488386","-0.161939","4478","4604","4647","3236","2638","2446","2938","1489","1054","2821","1030","532","3451","2072","1670",""
"MA200-0416","19687","56","1","1.10","1.4","2023-05-04T07:59:00","120","2023/05/04","07:59:00","-15.784469723701477","34.9965723156929","5.7","12","30","64","84","-508","24252","-3687","16","150","149.98","118.02","31.96","25.06","51.5","14.38","90540","25.25","DUALSPOT-UV-BLUE-GREEN-RED-IR","718883","707523","905173","16.811724","4.331232","0.007560","706044","891155","761889","12.776777","3.112745","0.005521","805844","899314","814912","10.870369","2.508795","0.003134","804920","919449","863592","8.915570","1.941239","-0.016120","700145","849806","951114","6.609491","1.493722","-0.031049","2627","2911","3009","2443","2583","2629","2212","2272","2290","2251","2029","1968","2686","2332","2229",""
"MA200-0416","19688","56","1","1.10","1.4","2023-05-04T07:59:30","120","2023/05/04","07:59:30","-15.782847046852112","34.996393859386444","6.0","12","30","64","84","-1548","24528","-4016","16","150","149.62","117.28","32.34","25.14","51.3","14.38","90520","25.31","DUALSPOT-UV-BLUE-GREEN-RED-IR","721836","710858","909644","16.898114","4.354904","-0.000491","707727","893647","764085","12.830970","3.125101","-0.023112","807232","901201","816684","10.914689","2.516216","-0.095502","806901","921954","865987","8.947791","1.944291","-0.581136","701388","851482","953071","6.636621","1.499834","-0.046650","4326","4299","4290","3425","2832","2641","3137","1905","1536","2756","946","444","3231","2640","2467",""
"MA200-0416","19689","56","1","1.10","1.4","2023-05-04T08:00:00","120","2023/05/04","08:00:00","-15.782119691371918","34.99582278728485","3.8","12","30","64","84","-3207","23844","-4992","16","150","149.61","118.11","31.50","25.21","51.0","14.36","90568","25.44","DUALSPOT-UV-BLUE-GREEN-RED-IR","716296","706016","903736","16.985962","4.379436","0.003524","708482","895143","765493","12.886645","3.137958","-0.016700","807678","902107","817589","10.958282","2.524995","-0.042548","802268","917046","861406","8.983298","1.949596","-0.142606","701956","852441","954206","6.665436","1.505730","-0.064433","4368","4575","4646","3494","3026","2875","3064","2314","2089","3016","1689","1322","3408","2615","2384",""
"MA200-0416","19690","56","1","1.10","1.4","2023-05-04T08:00:30","120","2023/05/04","08:00:30","-15.78142362833023","34.99373883008957","9.6","12","30","64","84","-808","23924","-4728","16","150","149.49","118.19","31.30","25.25","50.9","14.37","0","0.00","DUALSPOT-UV-BLUE-GREEN-RED-IR","716066","707643","906764","17.292304","4.463985","0.003107","703762","890916","762405","13.096370","3.189098","-0.008937","806736","902529","818413","11.130834","2.564436","-0.019448","802319","918376","863001","9.122324","1.978450","-0.041837","701718","853005","955147","6.771700","1.528992","-0.042631","15224","15865","16088","13155","12112","11776","12121","10461","9964","11801","9248","8541","12560","10381","9746",""
"MA200-0416","19691","56","1","1.10","1.4","2023-05-04T08:01:00","120","2023/05/04","08:01:00","-15.781236052513123","34.991143226623535","6.6","12","30","64","84","-2768","24220","-4080","16","150","150.13","118.45","31.68","25.34","50.8","14.41","0","0.00","DUALSPOT-UV-BLUE-GREEN-RED-IR","715847","708626","908598","17.613802","4.554609","0.003855","703813","892231","763908","13.358940","3.259033","-0.000407","801683","898073","814732","11.365785","2.624446","-0.005461","802747","919884","864726","9.320903","2.026862","-0.013668","701683","853771","956257","6.925966","1.566503","-0.019190","15942","16803","17103","16433","16366","16344","16468","15727","15505","16819","15332","14919","18193","16541","16059",""
"MA200-0416","19692","56","1","1.10","1.4","2023-05-04T08:01:30","120","2023/05/04","08:01:30","-15.77964836359024","34.99087417125702","8.6","12","30","64","84","-111","23696","-6007","16","150","149.42","118.03","31.39","25.42","50.6","14.42","90712","25.63","DUALSPOT-UV-BLUE-GREEN-RED-IR","714983","707968","907850","17.660336","4.568168","0.006472","703484","892055","763784","13.396284","3.266895","-0.028395","801345","897865","814571","11.394887","2.629268","-0.084287","802081","919300","864197","9.345548","2.029413","-0.379800","696465","847525","949280","6.948845","1.570562","-0.108624","2315","2537","2614","2345","1856","1699","2047","1275","1044","2094","815","460","2707","1806","1543",""
"MA200-0416","19693","56","1","1.10","1.4","2023-05-04T08:02:00","120","2023/05/04","08:02:00","-15.777651071548462","34.99102282524109","10.4","12","30","64","84","-239","24660","-6643","16","150","149.73","118.03","31.70","25.48","50.4","14.40","90780","25.75","DUALSPOT-UV-BLUE-GREEN-RED-IR","713903","707015","906723","17.689914","4.577492","0.010732","701835","890077","762144","13.416244","3.272247","-0.000147","803663","900597","817076","11.411404","2.631080","-0.291293","799862","916869","861925","9.359883","2.029788","0.807719","698575","850166","952277","6.961694","1.573340","-0.048358","1471","1727","1816","1253","1251","1251","1161","474","268","1218","118","-185","1520","1224","1137",""
"MA200-0416","19694","56","1","1.10","1.4","2023-05-04T08:02:30","120","2023/05/04","08:02:30","-15.774806022644043","34.99159938097","11.0","12","30","64","83","-2964","24352","-4868","16","150","149.93","117.70","32.23","25.54","50.1","14.39","90936","25.81","DUALSPOT-UV-BLUE-GREEN-RED-IR","712273","705653","905101","17.729696","4.588394","0.000070","701118","889378","761599","13.443341","3.277515","-0.046229","803066","900130","816642","11.435003","2.634823","-0.105454","799795","916962","862030","9.377458","2.030259","0.811127","698002","849619","951718","6.979391","1.576972","-0.068552","1985","1986","1987","1706","1212","1052","1664","964","754","1497","146","-226","2100","1574","1420",""
"MA200-0416","19695","56","1","1.10","1.4","2023-05-04T08:03:00","120","2023/05/04","08:03:00","-15.773015856742859","34.99284756183624","11.9","12","30","64","84","-488","24352","-5264","16","150","149.90","118.34","31.56","25.61","50.0","14.40","91116","25.94","DUALSPOT-UV-BLUE-GREEN-RED-IR","715780","709446","910154","17.795026","4.607170","0.005331","703861","893161","764900","13.486352","3.286808","-0.024854","804785","902340","818734","11.469836","2.639794","-0.132940","803027","920901","865746","9.404146","2.032989","-0.391660","699905","852121","954544","7.002674","1.580871","-0.132047","3242","3494","3582","2694","2182","2018","2443","1307","967","2262","867","483","2748","1726","1428",""
"MA200-0416","19696","56","1","1.10","1.4","2023-05-04T08:03:30","120","2023/05/04","08:03:30","-15.77127081155777","34.99330008029938","7.1","12","30","64","84","-1348","24472","-4844","16","150","150.49","118.19","32.30","25.68","49.8","14.40","91244","26.00","DUALSPOT-UV-BLUE-GREEN-RED-IR","710749","704767","904292","17.856716","4.625858","0.007142","703932","893509","765270","13.528034","3.296846","-0.013803","800957","898263","815105","11.502766","2.647894","-0.012980","799016","916515","861665","9.431396","2.037864","-0.083507","700799","853300","955919","7.025350","1.586868","-0.006241","3065","3397","3513","2614","2303","2203","2313","2081","2012","2313","1514","1294","2680","2593","2567",""
"MA200-0416","19697","56","1","1.10","1.4","2023-05-04T08:04:00","120","2023/05/04","08:04:00","-15.771135210990906","34.994746029376984","3.4","12","30","64","84","3132","24584","-2192","16","150","150.36","117.90","32.46","25.75","49.6","14.42","91160","26.06","DUALSPOT-UV-BLUE-GREEN-RED-IR","711718","706186","906307","17.943090","4.647213","-0.008895","700875","890036","762409","13.588457","3.310293","-0.024977","801432","899175","815965","11.551882","2.655882","-0.098229","801005","919070","864100","9.466433","2.042847","-0.169785","697355","849362","951556","7.054920","1.591808","-0.146206","4303","3864","3710","3799","3071","2836","3458","2042","1620","2981","1540","1143","3503","2126","1724",""
"MA200-0416","19698","56","1","1.10","1.4","2023-05-04T08:04:30","120","2023/05/04","08:04:30","-15.773157715797424","34.99644196033478","9.8","13","30","64","84","246","24200","-5573","16","150","150.09","118.34","31.76","25.81","49.4","14.43","90956","26.13","DUALSPOT-UV-BLUE-GREEN-RED-IR","714538","709322","910492","18.006726","4.664320","0.000130","703168","893275","765266","13.631946","3.320377","-0.016060","798730","896382","813504","11.589366","2.664178","-0.025410","802930","921503","866438","9.497570","2.047580","-0.130163","698574","851038","953479","7.081905","1.596161","-0.149869","3158","3163","3165","2724","2354","2235","2629","2169","2031","2639","1495","1180","3185","1915","1545",""
"MA200-0416","19699","56","1","1.10","1.4","2023-05-04T08:05:00","120","2023/05/04","08:05:00","-15.77295196056366","34.9970508813858","3.5","12","30","64","83","-876","24224","-6675","16","150","149.48","117.50","31.98","25.87","49.2","14.40","90924","26.25","DUALSPOT-UV-BLUE-GREEN-RED-IR","707234","702913","902628","18.163716","4.706695","-0.000618","697790","887194","760327","13.751225","3.353242","0.001172","797331","895510","812910","11.687319","2.687555","-0.016287","795679","913766","859328","9.578127","2.066439","-0.022654","697302","849850","952314","7.144762","1.611696","-0.018855","7847","7782","7760","7525","7618","7648","6921","6068","5814","6878","5916","5651","7472","6785","6585",""
"MA200-0416","19700","56","1","1.10","1.4","2023-05-04T08:05:30","120","2023/05/04","08:05:30","-15.772272825241089","34.99746435880661","1.2","12","30","64","84","-1992","23728","-5652","16","150","150.43","117.94","32.49","25.94","49.1","14.44","90980","26.25","DUALSPOT-UV-BLUE-GREEN-RED-IR","711036","707654","909214","18.349356","4.756462","-0.002040","699505","890385","763305","13.885877","3.386837","-0.010255","799356","898612","815969","11.802790","2.713841","-0.024648","799652","919053","864454","9.672590","2.085733","-0.050814","699394","852928","955930","7.218355","1.629237","-0.029167","9245","8998","8911","8463","7666","7408","8128","6717","6296","8035","5958","5387","8716","7543","7200",""
"MA200-0416","19701","56","1","1.10","1.4","2023-05-04T08:06:00","120","2023/05/04","08:06:00","-15.772205352783203","34.99764668941498","1.1","13","30","64","84","-3776","23348","-9040","16","150","150.08","118.38","31.70","25.99","49.1","14.48","90988","26.31","DUALSPOT-UV-BLUE-GREEN-RED-IR","707484","706890","909570","18.623126","4.829460","-0.000310","697954","890994","764655","14.085418","3.437727","-0.004767","797157","898319","816362","11.961146","2.752757","-0.010003","798454","919448","865372","9.792541","2.111578","-0.033873","698705","853337","956829","7.312778","1.651937","-0.020800","13583","13526","13505","12496","11901","11709","11106","10192","9919","10166","8179","7633","11142","10004","9671",""
"MA200-0416","19702","56","1","1.10","1.4","2023-05-04T08:06:30","120","2023/05/04","08:06:30","-15.772153556346893","34.99824911355972","3.5","13","30","64","83","-2008","24692","-3200","16","150","150.24","118.19","32.05","26.05","49.2","14.56","91060","26.38","DUALSPOT-UV-BLUE-GREEN-RED-IR","699106","699751","900916","19.121666","4.964838","0.000093","695728","889334","763585","14.458133","3.535902","-0.002733","795229","897158","815627","12.278063","2.833623","-0.006779","797481","919239","865419","10.051758","2.174401","-0.015617","692866","846829","949739","7.504968","1.697210","-0.027249","24776","24808","24820","23378","22707","22489","22262","20946","20551","22004","19664","19019","22716","19732","18859",""
"MA200-0416","19703","56","1","1.10","1.4","2023-05-04T08:07:00","120","2023/05/04","08:07:00","-15.772883594036102","34.99885582923889","4.3","13","30","64","83","-2208","23352","-2916","16","150","149.73","117.77","31.96","26.10","49.1","14.59","91140","26.38","DUALSPOT-UV-BLUE-GREEN-RED-IR","699271","701453","903837","19.428280","5.048698","0.000530","691448","885288","760509","14.683584","3.593969","-0.004938","794813","897931","816690","12.467227","2.880066","-0.011359","790946","912730","859618","10.207734","2.211534","-0.018219","692504","847106","950310","7.622951","1.728244","-0.005450","15292","15409","15451","14191","13467","13232","13335","12063","11681","13287","11655","11204","13994","13563","13436",""
"MA200-0416","19704","56","1","1.10","1.4","2023-05-04T08:07:30","120","2023/05/04","08:07:30","-15.77334576845169","34.999495804309845","2.6","13","30","64","84","-532","23760","-5620","16","150","149.80","118.00","31.80","26.17","49.0","14.60","91220","26.38","DUALSPOT-UV-BLUE-GREEN-RED-IR","700971","704250","907993","19.630022","5.102644","-0.000531","692773","888061","763227","14.832612","3.633361","-0.001743","791147","894713","814037","12.592174","2.911454","-0.007673","793573","916556","863416","10.308084","2.234244","-0.024934","693686","849081","952757","7.700750","1.747116","-0.019248","10041","9965","9938","9362","9184","9126","8790","8195","8016","8531","7165","6787","9210","8290","8021",""
"MA200-0416","19705","56","1","1.10","1.4","2023-05-04T08:08:00","120","2023/05/04","08:08:00","-15.772305846214294","34.99968105554581","6.7","13","30","64","83","-372","23972","-6928","16","150","150.32","118.63","31.69","26.22","48.9","14.64","91252","26.44","DUALSPOT-UV-BLUE-GREEN-RED-IR","699718","703510","907300","19.748430","5.134275","0.000013","691333","886674","762120","14.917544","3.652233","-0.019194","790503","894407","813839","12.665867","2.925706","-0.044180","793253","916544","863491","10.366042","2.244597","-0.070633","693259","848817","952529","7.744013","1.756668","-0.037317","5862","5863","5863","5307","4415","4125","5157","3734","3306","4901","3278","2829","5094","4211","3952",""
"MA200-0416","19706","56","1","1.10","1.4","2023-05-04T08:08:30","120","2023/05/04","08:08:30","-15.770814955234528","34.9999173283577","6.1","13","30","64","84","-908","24096","-5288","16","150","150.23","118.06","32.17","26.26","48.9","14.65","91296","26.44","DUALSPOT-UV-BLUE-GREEN-RED-IR","697633","701837","905344","19.830934","5.158064","0.003677","689950","885235","761026","14.971305","3.665619","-0.008599","792549","897058","816352","12.709296","2.934426","-0.040903","795833","919806","866589","10.399394","2.249133","-0.170294","694472","850485","954455","7.772514","1.762125","-0.080370","4104","4343","4427","3375","3085","2990","3054","2250","2009","2834","1414","1022","3372","2369","2075",""
"MA200-0416","19707","56","1","1.10","1.4","2023-05-04T08:09:00","120","2023/05/04","08:09:00","-15.769119381904602","35.00014016665227","6.5","13","30","64","84","-828","24372","-4340","16","150","149.99","117.69","32.29","26.32","48.7","14.66","91372","26.44","DUALSPOT-UV-BLUE-GREEN-RED-IR","696678","701555","905317","19.962980","5.196760","0.004219","689620","885497","761391","15.063844","3.688610","-0.009503","792058","897088","816506","12.785497","2.951651","-0.023233","790074","913615","860859","10.461003","2.261686","-0.046754","694348","850653","954750","7.819740","1.772494","-0.044545","6589","7038","7196","5828","5277","5098","5375","4428","4144","5251","3899","3526","5605","4485","4157",""
"MA200-0416","19708","56","1","1.10","1.4","2023-05-04T08:09:30","120","2023/05/04","08:09:30","-15.767430663108826","34.999932289123535","6.0","13","30","64","83","-475","24164","-4368","16","150","149.73","117.84","31.89","26.37","48.6","14.65","91440","26.50","DUALSPOT-UV-BLUE-GREEN-RED-IR","697309","702653","907052","20.062964","5.227113","0.007040","690158","886671","762560","15.138211","3.708624","-0.000499","791904","897289","816800","12.847270","2.967036","-0.009020","791253","915345","862595","10.513839","2.273053","-0.033721","694874","851536","955834","7.860309","1.783411","-0.000966","4983","5589","5803","4678","4652","4643","4352","4004","3900","4498","3575","3321","4809","4781","4773",""
"MA200-0416","19709","56","1","1.10","1.4","2023-05-04T08:10:00","120","2023/05/04","08:10:00","-15.766100704669952","34.99951487779617","5.7","13","30","64","83","132","23828","-6968","16","150","149.34","117.29","32.04","26.41","48.4","14.63","91468","26.50","DUALSPOT-UV-BLUE-GREEN-RED-IR","697524","704210","909651","20.320766","5.294475","-0.003080","689649","887285","763466","15.333343","3.756450","-0.010283","787631","893590","813738","13.011971","3.004497","-0.021387","791981","917144","864501","10.645253","2.300715","-0.038887","690782","847159","951101","7.952371","1.803979","-0.038763","12909","12347","12149","12332","11064","10653","11657","9705","9119","11240","8660","7949","10964","8967","8380",""
"MA200-0416","19710","56","1","1.10","1.4","2023-05-04T08:10:30","120","2023/05/04","08:10:30","-15.764516413211823","34.99930089712143","6.6","13","30","64","83","68","23820","-7879","16","150","149.69","117.55","32.15","26.47","48.2","14.62","91516","26.56","DUALSPOT-UV-BLUE-GREEN-RED-IR","697575","704830","910804","20.424202","5.326164","0.006851","690535","888936","765025","15.400900","3.775537","0.002725","787684","894079","814323","13.068832","3.018808","-0.008846","792550","918174","865596","10.690336","2.310657","-0.030681","690778","847413","951477","7.988769","1.811595","-0.054625","5168","5790","6009","4260","4401","4447","4016","3696","3599","3847","3102","2897","4325","3309","3011",""
"MA200-0416","19711","56","1","1.10","1.4","2023-05-04T08:11:00","120","2023/05/04","08:11:00","-15.762897670269012","34.99958634376526","5.8","13","30","64","84","-424","23812","-7796","16","150","150.01","118.46","31.55","26.51","48.0","14.60","91580","26.63","DUALSPOT-UV-BLUE-GREEN-RED-IR","692173","700061","904951","20.552106","5.361366","0.002109","690612","889704","765906","15.491047","3.796653","-0.012242","787428","894342","814724","13.143939","3.035908","-0.017681","787331","912649","860489","10.751594","2.321487","-0.069774","691073","848131","952412","8.038757","1.821272","-0.067855","6341","6554","6629","5641","4962","4742","5263","4500","4271","5188","3444","2964","5894","4285","3814",""
"MA200-0416","19712","56","1","1.10","1.4","2023-05-04T08:11:30","120","2023/05/04","08:11:30","-15.761407315731049","35.00026866665576","6.3","13","30","64","84","-536","24136","-7132","16","150","150.69","117.74","32.95","26.56","47.7","14.57","91660","26.69","DUALSPOT-UV-BLUE-GREEN-RED-IR","680818","697746","907179","21.689872","5.709087","0.005123","675537","880633","761866","16.499811","4.097265","0.004815","777068","892166","816276","14.022364","3.289145","0.002704","779176","911767","862824","11.497360","2.530497","0.000166","685385","847449","954185","8.617382","1.976871","-0.006197","56758","61985","63853","63514","67635","68996","61940","63809","64381","63547","63642","63668","68651","65969","65171",""
"MA200-0416","19713","56","1","1.10","1.4","2023-05-04T08:12:00","120","2023/05/04","08:12:00","-15.75998741388321","35.0009738333174","6.2","13","30","64","83","-548","23900","-7028","16","150","150.18","117.81","32.37","26.62","47.5","14.55","91732","26.69","DUALSPOT-UV-BLUE-GREEN-RED-IR","680362","698163","908219","22.657174","5.997276","0.004550","675815","881917","763298","17.342206","4.339123","0.003273","775803","891643","816100","14.816483","3.509367","0.000828","778911","912317","863601","12.202704","2.720171","-0.002289","684630","847099","954054","9.159634","2.118305","-0.007683","48224","52300","53767","53006","55398","56196","55961","56491","56656","60065","58796","58432","64296","61046","60068",""
"MA200-0416","19714","56","1","1.10","1.4","2023-05-04T08:12:30","120","2023/05/04","08:12:30","-15.758590340614319","35.00165666663088","6.2","13","30","64","83","-596","24120","-5160","16","150","149.93","117.43","32.50","26.66","47.4","14.55","91800","26.75","DUALSPOT-UV-BLUE-GREEN-RED-IR","678501","696759","906625","22.746744","6.023254","0.002698","674140","880321","762052","17.417660","4.357456","-0.011145","775144","891415","816001","14.882586","3.523635","-0.027203","778155","911893","863310","12.259312","2.730643","-0.060651","683936","846631","953584","9.205788","2.127111","-0.073573","4479","4695","4772","4763","4182","3988","4673","3645","3326","4836","3233","2773","5490","3785","3273",""
"MA200-0416","19715","56","1","1.10","1.4","2023-05-04T08:13:00","120","2023/05/04","08:13:00","-15.757051348686218","35.00211999984458","6.2","13","30","64","83","-863","24420","-3952","16","150","149.45","117.22","32.22","26.70","47.3","14.54","91860","26.81","DUALSPOT-UV-BLUE-GREEN-RED-IR","675568","694248","903649","22.863040","6.054943","-0.000524","676219","883581","764998","17.505234","4.378759","-0.010350","772347","888651","813578","14.959632","3.541618","-0.016471","775247","908882","860550","12.321905","2.743101","-0.044666","685631","848996","956376","9.254261","2.137276","-0.048160","5827","5776","5758","5538","4901","4688","5456","4633","4377","5357","3878","3455","5776","4407","3995",""
"MA200-0416","19716","56","1","1.10","1.4","2023-05-04T08:13:30","120","2023/05/04","08:13:30","-15.75546669960022","35.002360166283324","6.5","13","30","64","83","-72","24128","-5540","16","150","149.50","117.67","31.83","26.73","47.0","14.49","91892","26.81","DUALSPOT-UV-BLUE-GREEN-RED-IR","678337","697371","907855","22.917214","6.073671","0.011972","673802","880696","762601","17.545644","4.390268","0.003748","773146","889823","814719","14.995163","3.549874","-0.015123","776092","910115","861730","12.350782","2.748054","-0.071990","681729","844345","951164","9.277641","2.142352","-0.037259","2704","3455","3726","2545","2680","2725","2507","2153","2043","2462","1561","1303","2775","2227","2062",""
"MA200-0416","19717","56","1","1.10","1.4","2023-05-04T08:14:00","120","2023/05/04","08:14:00","-15.753936350345612","35.0025529996492","6.2","13","30","64","83","-188","23832","-7336","16","150","149.67","117.56","32.12","26.78","46.8","14.47","91916","26.88","DUALSPOT-UV-BLUE-GREEN-RED-IR","676398","696366","907070","23.031312","6.107294","0.004198","671889","879010","761408","17.620898","4.409784","-0.004122","772315","889554","814689","15.053541","3.563303","-0.017343","775613","910129","861910","12.397133","2.757352","-0.041870","681379","844240","951178","9.315601","2.150236","-0.048618","5700","6149","6310","4745","4504","4424","4122","3471","3269","3955","2904","2604","4510","3429","3104",""
"MA200-0416","19718","56","1","1.10","1.4","2023-05-04T08:14:30","120","2023/05/04","08:14:30","-15.752504110336304","35.00295616639778","5.7","13","30","64","83","-304","23768","-7511","16","150","149.60","117.31","32.29","26.82","46.6","14.44","91956","26.94","DUALSPOT-UV-BLUE-GREEN-RED-IR","671920","693525","904399","23.451702","6.236112","0.005691","673364","882608","765080","17.908054","4.488367","-0.000448","772397","891141","816592","15.294539","3.624552","-0.007320","777107","913155","865146","12.594420","2.803105","-0.020191","682000","845970","953410","9.457821","2.180767","-0.042395","21049","23428","24291","18147","18038","18002","17056","15746","15339","16873","14213","13452","16936","13206","12088",""
"MA200-0416","19719","56","1","1.10","1.4","2023-05-04T08:15:00","120","2023/05/04","08:15:00","-15.751141726970673","35.003840499557555","6.7","13","30","64","83","-1168","23828","-7732","16","150","150.55","117.62","32.94","26.85","46.5","14.44","92012","27.00","DUALSPOT-UV-BLUE-GREEN-RED-IR","647796","685914","905376","26.640526","7.265688","0.006521","652181","874631","766031","20.727210","5.369978","0.006563","750491","884041","817430","17.793748","4.383850","0.005688","758842","908036","866773","14.727993","3.430175","0.004114","669765","842518","954745","11.079056","2.639395","0.001186","159245","183595","192726","177690","198421","205670","176414","191385","196280","181995","191001","193735","192557","194510","195120",""
"MA200-0416","19720","56","1","1.10","1.4","2023-05-04T08:15:30","120","2023/05/04","08:15:30","-15.750025808811188","35.005137831903994","5.4","13","30","64","83","-1208","23780","-6747","16","150","150.43","117.90","32.53","26.90","46.4","14.44","92080","27.06","DUALSPOT-UV-BLUE-GREEN-RED-IR","648325","687023","907096","27.362484","7.488096","0.005058","648545","870331","762469","21.352122","5.555212","0.004283","745957","879333","813241","18.394358","4.553068","0.001495","753824","902648","861797","15.272072","3.578728","-0.000892","669645","842891","955325","11.503757","2.748380","-0.008778","35966","40163","41744","39293","42219","43248","42293","43193","43489","46298","45822","45676","50321","46808","45705",""
"MA200-0416","19721","56","1","1.10","1.4","2023-05-04T08:16:00","120","2023/05/04","08:16:00","-15.749145686626434","35.00644449843094","5.9","13","30","64","83","-435","24360","-4708","16","150","149.87","117.59","32.28","26.94","46.3","14.42","92088","27.06","DUALSPOT-UV-BLUE-GREEN-RED-IR","649467","688367","909013","27.397312","7.499399","0.007317","649340","871595","763622","21.380112","5.561357","-0.017376","746639","880313","814206","18.419444","4.558348","-0.024380","754917","904154","863281","15.294356","3.581130","-0.250679","670253","843834","956353","11.524956","2.751188","-0.184279","1739","2056","2175","1764","1411","1286","1771","1358","1222","1901","746","393","2518","1214","806",""
"MA200-0416","19722","56","1","1.10","1.4","2023-05-04T08:16:30","120","2023/05/04","08:16:30","-15.7485973238945","35.00691149896011","1.0","13","30","64","83","588","24284","-4220","16","150","149.83","117.62","32.21","26.98","46.2","14.45","92072","27.13","DUALSPOT-UV-BLUE-GREEN-RED-IR","648890","688067","908725","27.449462","7.515346","0.005044","648790","871107","763286","21.422694","5.572218","-0.004770","745908","879713","813734","18.456824","4.567164","-0.012247","754537","903912","863116","15.325511","3.586959","-0.045999","665227","837668","949507","11.554058","2.758257","-0.015068","2604","2908","3022","2683","2499","2434","2638","2272","2152","2657","1815","1558","3456","3066","2943",""
"MA200-0416","19723","56","1","1.10","1.4","2023-05-04T08:17:00","120","2023/05/04","08:17:00","-15.748473882675171","35.00643966533244","2.5","13","30","64","83","11","23688","-7488","16","150","150.49","118.02","32.47","27.01","46.1","14.44","92032","27.19","DUALSPOT-UV-BLUE-GREEN-RED-IR","645845","685274","905288","27.529652","7.539154","0.003566","650189","873493","765523","21.486622","5.591499","0.005358","747817","882375","816342","18.511154","4.582232","0.000566","752056","901315","860733","15.369931","3.598136","-0.008183","667156","840398","952659","11.590683","2.767040","-0.017517","3990","4306","4425","4015","4402","4538","3822","3852","3862","3776","3453","3354","4335","3778","3603",""
"MA200-0416","19724","56","1","1.10","1.4","2023-05-04T08:17:30","120","2023/05/04","08:17:30","-15.747743248939514","35.00641283206642","4.5","13","30","64","83","608","24200","-5775","16","150","149.70","117.34","32.35","27.06","46.2","14.50","91996","27.19","DUALSPOT-UV-BLUE-GREEN-RED-IR","645654","686196","907171","27.760356","7.605821","0.002235","646102","869122","762072","21.662048","5.638796","-0.001429","746957","882415","816698","18.661754","4.620618","-0.005986","751878","901958","861599","15.492084","3.628176","-0.010607","666747","840480","953001","11.684727","2.791068","-0.009131","11547","12102","12311","11082","10836","10749","10655","9849","9584","10443","9315","8970","11195","10374","10116",""
"MA200-0416","19725","56","1","1.10","1.4","2023-05-04T08:18:00","120","2023/05/04","08:18:00","-15.747029662132263","35.00660149892792","2.7","13","30","64","83","836","24136","-6072","16","150","149.73","117.46","32.27","27.10","46.1","14.50","91960","27.25","DUALSPOT-UV-BLUE-GREEN-RED-IR","646066","687249","908879","27.896782","7.647714","0.005004","646539","870342","763354","21.769084","5.669933","0.003390","747532","883597","818000","18.755060","4.645813","-0.001240","752705","903413","863127","15.570415","3.647727","-0.008716","666992","841143","953848","11.745617","2.805531","-0.018417","6821","7625","7928","6755","7153","7293","6595","6482","6445","6690","6078","5891","7241","6261","5953",""
"MA200-0416","19726","56","1","1.10","1.4","2023-05-04T08:18:30","120","2023/05/04","08:18:30","-15.746378660202026","35.006743165664375","2.6","13","30","64","83","1648","24080","-5524","16","150","149.70","117.46","32.24","27.14","45.9","14.49","91908","27.31","DUALSPOT-UV-BLUE-GREEN-RED-IR","641569","682985","903604","28.003734","7.683330","0.008116","646410","870727","763921","21.853244","5.694813","0.004325","743638","879503","814353","18.828270","4.665959","0.000194","754008","905455","865242","15.632425","3.663045","-0.009593","667695","842362","955377","11.796806","2.816981","-0.027207","5348","6489","6921","5311","5721","5866","5174","5188","5193","5296","4767","4605","6087","4961","4608",""
"MA200-0416","19727","56","1","1.10","1.4","2023-05-04T08:19:00","120","2023/05/04","08:19:00","-15.745875716209412","35.00673299934715","3.0","13","30","64","83","-704","23392","-6596","16","150","149.98","117.60","32.37","27.19","45.8","14.48","91876","27.31","DUALSPOT-UV-BLUE-GREEN-RED-IR","641347","683346","904379","28.125298","7.719780","0.003895","646912","872027","765249","21.951534","5.722528","0.001455","742865","879140","814225","18.911278","4.687476","-0.004444","753851","905710","865609","15.699467","3.678136","-0.019889","667284","842177","955319","11.848751","2.829623","-0.015154","6071","6613","6818","6195","6346","6400","5859","5518","5405","5719","4677","4358","6170","5455","5230",""
"MA200-0416","19728","56","1","1.10","1.4","2023-05-04T08:19:30","120","2023/05/04","08:19:30","-15.746159672737122","35.00596116529778","2.7","13","30","64","83","-1892","23592","-5836","16","150","150.16","117.78","32.38","27.23","45.6","14.48","91916","27.38","DUALSPOT-UV-BLUE-GREEN-RED-IR","641288","683703","905136","28.209778","7.744348","0.002617","646652","872072","765393","22.013796","5.736297","-0.016337","743340","880075","815160","18.966656","4.699648","-0.019167","749632","900993","861176","15.745942","3.686952","-0.043205","663778","838050","950683","11.885391","2.837829","-0.027074","4212","4456","4548","3918","3152","2882","3903","3120","2862","3958","2731","2356","4345","3540","3287",""
"MA200-0416","19729","56","1","1.10","1.4","2023-05-04T08:20:00","120","2023/05/04","08:20:00","-15.746468544006348","35.00497316615656","3.3","13","30","64","83","-1756","23756","-6052","16","150","149.39","117.22","32.16","27.28","45.5","14.49","91936","27.44","DUALSPOT-UV-BLUE-GREEN-RED-IR","642011","684734","906675","28.296376","7.775507","0.010617","642978","867362","761367","22.071104","5.752838","0.002975","743687","880739","815863","19.018638","4.711961","-0.011665","750166","901906","862110","15.794057","3.696190","-0.040797","663760","838202","950906","11.930027","2.846176","-0.060261","4339","5690","6202","3624","3812","3878","3681","3178","3013","4117","2881","2504","5319","3625","3094",""
"MA200-0416","19730","56","1","1.10","1.4","2023-05-04T08:20:30","120","2023/05/04","08:20:30","-15.746480286121368","35.00470533268526","1.1","13","30","64","83","376","23936","-6108","16","150","149.73","117.46","32.27","27.32","45.4","14.50","91944","27.44","DUALSPOT-UV-BLUE-GREEN-RED-IR","642803","685691","908040","28.320572","7.784452","0.011400","643803","868611","762503","22.088198","5.757932","0.004672","743996","881232","816342","19.034688","4.714758","-0.049735","751362","903483","863621","15.806526","3.697294","-0.487132","664472","839216","952066","11.943180","2.849245","-0.020659","1209","1628","1786","1078","1170","1202","1134","719","582","1065","342","122","1564","1328","1254",""
"MA200-0416","19731","56","1","1.10","1.4","2023-05-04T08:21:00","120","2023/05/04","08:21:00","-15.746864199638367","35.004205499310046","2.2","13","30","64","83","-516","23076","-8320","16","150","150.11","116.86","33.26","27.36","45.3","14.49","91972","27.44","DUALSPOT-UV-BLUE-GREEN-RED-IR","642553","686639","909988","28.548008","7.853920","0.003214","643624","869669","763857","22.278306","5.812387","0.000391","743339","881594","817059","19.199322","4.760623","-0.001504","750349","903217","863669","15.942838","3.731823","-0.010512","663556","838738","951794","12.044258","2.875025","-0.013106","11431","12269","12586","12060","12138","12166","11696","11450","11368","11703","10416","10023","12083","10829","10436",""
"MA200-0416","19732","56","1","1.10","1.4","2023-05-04T08:21:30","120","2023/05/04","08:21:30","-15.747212707996368","35.00372333312407","1.8","13","30","64","83","-908","23300","-7092","16","150","150.16","117.50","32.66","27.41","45.4","14.56","92012","27.50","DUALSPOT-UV-BLUE-GREEN-RED-IR","638186","682174","904226","28.627922","7.879589","0.006176","643687","869922","764188","22.331136","5.826734","-0.001435","743573","882099","817553","19.245212","4.768896","-0.045551","751716","905088","865482","15.979446","3.738170","-0.060358","664326","839871","953122","12.072613","2.880478","-0.056324","3994","4616","4852","3333","3256","3229","3242","2103","1727","3125","1950","1591","3371","2332","2006",""
"MA200-0416","19733","56","1","1.10","1.4","2023-05-04T08:22:00","120","2023/05/04","08:22:00","-15.747511088848114","35.00316766672768","2.2","13","30","64","82","-4087","23232","-7947","16","150","149.76","117.70","32.06","27.45","45.5","14.62","92056","27.56","DUALSPOT-UV-BLUE-GREEN-RED-IR","637349","681360","903183","28.642922","7.884142","0.004754","643366","869586","763853","22.342358","5.827903","-0.227872","742663","881099","816656","19.256012","4.770982","-0.032753","750271","903438","863892","15.987450","3.736459","0.109611","663200","838511","951564","12.081917","2.881844","-0.126846","748","834","866","706","270","116","761","540","467","682","-535","-906","1104","595","436",""
"MA200-0416","19734","56","1","1.10","1.4","2023-05-04T08:22:30","120","2023/05/04","08:22:30","-15.747422993183136","35.002612666459754","3.2","13","30","64","83","-1020","24496","-5928","16","150","150.21","117.54","32.67","27.50","45.3","14.61","92120","27.56","DUALSPOT-UV-BLUE-GREEN-RED-IR","639290","683556","906140","28.662118","7.890796","0.008877","640855","866279","761012","22.357984","5.832470","0.002903","740424","878541","814298","19.268270","4.772729","-0.095445","747779","900504","861125","15.997951","3.738170","-0.073374","665056","840940","954382","12.095306","2.885009","-0.020194","959","1196","1286","985","1036","1053","865","443","304","896","525","412","1591","1353","1278",""
"MA200-0416","19735","56","1","1.10","1.4","2023-05-04T08:23:00","120","2023/05/04","08:23:00","-15.746869206428528","35.00235899956897","2.8","13","30","64","83","-2556","23516","-6340","16","150","149.49","117.05","32.44","27.54","45.2","14.59","92168","27.63","DUALSPOT-UV-BLUE-GREEN-RED-IR","640956","685534","908951","28.707356","7.907125","0.010254","641960","867951","762562","22.386244","5.840099","-0.001626","741141","879528","815270","19.290324","4.777509","-0.021141","747940","900796","861430","16.013958","3.740531","-0.097936","665235","841258","954800","12.109760","2.887851","-0.050962","2270","2956","3217","1789","1743","1727","1564","1223","1111","1372","729","534","1725","1223","1066",""
"MA200-0416","19736","56","1","1.10","1.4","2023-05-04T08:23:30","120","2023/05/04","08:23:30","-15.746774911880493","35.00227266619913","0.6","13","30","64","82","-104","23440","-8388","16","150","149.40","117.29","32.11","27.58","45.0","14.57","92180","27.63","DUALSPOT-UV-BLUE-GREEN-RED-IR","640840","685529","909036","28.736878","7.916906","0.007830","642432","868731","763266","22.406622","5.846142","0.004527","740790","879234","815003","19.308250","4.780602","-0.050017","749049","902259","862839","16.028486","3.742045","-0.262416","665392","841550","955134","12.122974","2.890178","-0.072657","1478","1789","1907","1287","1395","1433","1268","799","645","1242","473","238","1573","1012","836",""
"MA200-0416","19737","56","1","1.10","1.4","2023-05-04T08:24:00","120","2023/05/04","08:24:00","-15.746964514255524","35.0024729995057","0.3","13","30","64","83","-76","24268","-4160","16","150","149.83","116.98","32.84","27.63","44.8","14.53","92160","27.69","DUALSPOT-UV-BLUE-GREEN-RED-IR","636939","681484","903720","28.765790","7.925764","0.003888","643209","869908","764334","22.426396","5.849874","-0.035537","741313","879972","815733","19.324056","4.783809","-0.030219","750134","903687","864217","16.041023","3.743916","-0.097838","665843","842212","955887","12.136795","2.892949","-0.049552","1451","1584","1634","1253","842","697","1121","810","708","1075","571","418","1650","1178","1030",""
"MA200-0416","19738","56","1","1.10","1.4","2023-05-04T08:24:30","120","2023/05/04","08:24:30","-15.74685537815094","35.002469832776114","1.3","13","30","64","82","-892","22768","-10176","16","150","149.70","117.39","32.31","27.68","44.6","14.54","92152","27.75","DUALSPOT-UV-BLUE-GREEN-RED-IR","635794","680784","903013","28.845772","7.947201","-0.001302","642215","869086","763750","22.486332","5.863970","-0.010899","740341","879280","815173","19.374530","4.794311","-0.024767","749058","902765","863387","16.080473","3.750550","-0.064050","660678","835941","948821","12.165157","2.897429","-0.104306","4001","3896","3856","3784","3234","3039","3569","2698","2412","3371","2059","1660","3375","1937","1487",""
"MA200-0416","19739","56","1","1.10","1.4","2023-05-04T08:25:00","120","2023/05/04","08:25:00","-15.747225880622864","35.00251999963075","1.7","13","30","64","82","1168","23104","-8047","16","150","149.76","117.82","31.94","27.72","44.4","14.50","92136","27.75","DUALSPOT-UV-BLUE-GREEN-RED-IR","638426","683733","907051","28.897366","7.961904","0.002282","640173","866437","761438","22.523078","5.873096","-0.005694","742093","881492","817263","19.406978","4.800499","-0.033539","752041","906486","866954","16.106871","3.752672","-0.687885","662516","838327","951569","12.184383","2.899891","-0.184745","2572","2703","2753","2312","2117","2049","2286","1608","1385","2247","666","186","2279","1076","701",""
"MA200-0416","19740","56","1","1.10","1.4","2023-05-04T08:25:30","120","2023/05/04","08:25:30","-15.747501611709595","35.00299449963495","3.1","13","30","64","82","3720","23992","-4508","16","150","150.29","117.06","33.23","27.76","44.1","14.43","92080","27.81","DUALSPOT-UV-BLUE-GREEN-RED-IR","639673","685174","909049","28.925662","7.972816","0.011446","640873","867508","762448","22.542140","5.880176","0.013073","739424","878409","814448","19.423074","4.805291","0.003145","747542","901118","861863","16.119072","3.755706","-0.011963","663370","839491","952899","12.197796","2.902531","-0.055194","1419","1928","2122","1207","1579","1711","1141","1197","1215","1045","916","876","1600","1109","956",""
"MA200-0416","19741","56","1","1.10","1.4","2023-05-04T08:26:00","120","2023/05/04","08:26:00","-15.747290849685669","35.00364233274013","3.0","13","30","64","82","884","24236","-5556","16","150","149.61","117.31","32.29","27.81","43.8","14.38","92024","27.88","DUALSPOT-UV-BLUE-GREEN-RED-IR","639733","685341","909328","28.942810","7.977751","0.002035","641407","868301","763173","22.555370","5.883329","-0.009852","738739","877684","813762","19.432462","4.805845","1.234264","747907","901646","862369","16.126686","3.756666","-0.149549","663028","839123","952538","12.208344","2.905169","-0.011180","858","897","912","836","723","684","664","142","-28","651","298","190","1256","1141","1105",""
"MA200-0416","19742","56","1","1.10","1.4","2023-05-04T08:26:30","120","2023/05/04","08:26:30","-15.746753573417664","35.004314832389355","4.0","13","30","64","82","-540","23596","-6884","16","150","149.90","117.26","32.63","27.84","43.7","14.36","91968","27.88","DUALSPOT-UV-BLUE-GREEN-RED-IR","640002","685717","909872","28.961876","7.982889","-0.001572","641406","868437","763302","22.570250","5.885851","-0.049759","739722","878935","814937","19.445452","4.807484","-0.136340","749401","903558","864205","16.138771","3.756820","0.316587","663836","840241","953774","12.218960","2.907673","-0.020500","954","924","913","940","572","443","919","416","251","1033","47","-251","1264","1071","1011",""
"MA200-0416","19743","56","1","1.10","1.4","2023-05-04T08:27:00","120","2023/05/04","08:27:00","-15.746390461921692","35.00542933261022","4.6","13","30","64","83","-184","24540","-5436","16","150","150.09","117.38","32.71","27.88","43.5","14.34","91944","27.88","DUALSPOT-UV-BLUE-GREEN-RED-IR","640312","686156","910534","28.985958","7.990864","0.007117","642276","869694","764441","22.588850","5.889326","-0.035646","739314","878580","814659","19.461882","4.810494","-0.042898","749327","903591","864256","16.151073","3.758525","-0.117709","663521","839918","953454","12.231071","2.909429","-0.138743","1205","1431","1518","1174","787","650","1162","764","633","1051","522","362","1441","750","534",""
"MA200-0416","19744","56","1","1.10","1.4","2023-05-04T08:27:30","120","2023/05/04","08:27:30","-15.746005296707153","35.006308999378234","3.7","13","30","64","82","955","23644","-6820","16","150","150.36","116.91","33.45","27.91","43.4","14.32","91912","27.94","DUALSPOT-UV-BLUE-GREEN-RED-IR","635284","681436","904678","29.117856","8.032963","0.004721","641795","869670","764643","22.674630","5.912845","-0.002643","739810","879719","815874","19.534114","4.828084","-0.012637","750290","905185","865898","16.209166","3.769862","-0.043657","664097","840976","954785","12.278358","2.919948","-0.033605","6626","7391","7682","5439","5212","5131","5129","4365","4114","4985","3399","2919","5650","4392","4000",""
"MA200-0416","19745","56","1","1.10","1.4","2023-05-04T08:28:00","120","2023/05/04","08:28:00","-15.745750486850739","35.00676449947059","1.2","13","30","64","82","132","23828","-6447","16","150","149.63","117.14","32.49","27.98","43.3","14.34","91884","27.94","DUALSPOT-UV-BLUE-GREEN-RED-IR","635492","682056","905739","29.208352","8.061441","0.005372","642053","870400","765369","22.736592","5.930244","0.000732","739243","879320","815589","19.584460","4.840487","-0.008886","751071","906384","867085","16.248144","3.777027","-0.048237","664250","841362","955292","12.309242","2.926874","-0.027242","4537","5148","5381","3921","3970","3987","3568","3169","3039","3338","2212","1871","3682","2977","2758",""
"MA200-0416","19746","56","1","1.10","1.4","2023-05-04T08:28:30","120","2023/05/04","08:28:30","-15.74556851387024","35.00613349862397","3.0","13","30","64","82","-916","23224","-8560","16","150","150.37","117.61","32.76","27.98","43.2","14.31","91904","28.00","DUALSPOT-UV-BLUE-GREEN-RED-IR","635778","683075","907467","29.355068","8.103285","0.001090","641984","870982","766080","22.839264","5.953603","-0.014424","739621","880415","816773","19.672298","4.858845","-0.025211","745447","900156","861266","16.322445","3.791224","-0.042386","664248","841800","955858","12.369503","2.938545","-0.053802","7327","7502","7569","6471","5286","4867","6200","4652","4144","6338","4348","3746","7157","4976","4297",""
"MA200-0416","19747","56","1","1.10","1.4","2023-05-04T08:29:00","120","2023/05/04","08:29:00","-15.74543845653534","35.00530833238736","2.9","13","30","64","82","-3168","23508","-6372","16","150","150.56","117.34","33.23","28.03","43.2","14.35","91992","28.00","DUALSPOT-UV-BLUE-GREEN-RED-IR","636301","684098","909141","29.441666","8.131433","0.005764","638733","867016","762739","22.901018","5.971950","0.002725","739787","881013","817452","19.725188","4.872841","-0.004832","745558","900616","861784","16.363960","3.799885","-0.031891","664528","842369","956632","12.403713","2.946530","-0.024141","4334","4976","5220","3901","4093","4161","3742","3497","3416","3549","2615","2332","4072","3357","3134",""
"MA200-0416","19748","56","1","1.10","1.4","2023-05-04T08:29:30","120","2023/05/04","08:29:30","-15.745301365852356","35.00437666568905","3.0","13","30","64","82","-1724","24380","-5912","16","150","150.43","117.26","33.16","28.08","43.2","14.38","92060","28.06","DUALSPOT-UV-BLUE-GREEN-RED-IR","635246","683219","908163","29.521942","8.158493","0.007101","637840","866105","762061","22.964402","5.990123","0.000802","738579","879823","816429","19.778894","4.885942","-0.011287","744672","899801","861079","16.410543","3.810584","-0.019739","659191","835797","949228","12.440369","2.954586","-0.033200","4020","4792","5087","4007","4062","4082","3802","3279","3108","3985","3236","3010","4366","3393","3090",""
"MA200-0416","19749","56","1","1.10","1.4","2023-05-04T08:30:00","120","2023/05/04","08:30:00","-15.744941532611847","35.003500833176076","2.2","13","30","64","82","-1028","23812","-4704","16","150","150.49","117.00","33.49","28.11","43.0","14.36","92100","28.13","DUALSPOT-UV-BLUE-GREEN-RED-IR","632683","680581","904690","29.546048","8.165588","0.001277","639790","868843","764482","22.978660","5.992788","-0.038533","736101","876974","813790","19.793406","4.889482","-0.012310","747383","903147","864300","16.422428","3.812157","-0.141973","660682","837786","951454","12.452457","2.957565","-0.017898","1210","1244","1257","903","589","479","1029","877","827","1019","471","305","1443","1242","1180",""
"MA200-0416","19750","56","1","1.10","1.4","2023-05-04T08:30:30","120","2023/05/04","08:30:30","-15.744812190532684","35.00289733312093","2.2","13","30","64","82","-3056","23984","-5180","16","150","149.80","117.25","32.55","28.16","42.9","14.38","92096","28.25","DUALSPOT-UV-BLUE-GREEN-RED-IR","633437","682295","907636","29.745460","8.234781","0.008637","635713","864204","760795","23.135680","6.045894","0.009866","736947","878817","815864","19.930430","4.932702","0.007694","749222","906093","867416","16.535645","3.846317","0.006156","661894","839821","954029","12.533962","2.979161","-0.005057","9989","12487","13443","9927","12096","12863","9702","11024","11459","9687","10530","10785","9710","9269","9131",""
"MA200-0416","19751","56","1","1.10","1.4","2023-05-04T08:31:00","120","2023/05/04","08:31:00","-15.744694530963898","35.0026156664826","0.6","13","30","64","82","2692","24040","-4368","16","150","149.90","117.66","32.23","28.20","42.8","14.38","92116","28.38","DUALSPOT-UV-BLUE-GREEN-RED-IR","630555","679445","903926","29.777092","8.245378","0.007912","638868","868752","764890","23.160564","6.052023","-0.006858","734677","876334","813623","19.949144","4.935712","-0.060917","746627","903178","864632","16.550495","3.847491","-0.766542","663618","842172","956710","12.550011","2.982536","-0.034936","1579","1930","2065","1567","1409","1352","1320","775","596","1266","365","92","1905","1462","1324",""
"MA200-0416","19752","56","1","1.10","1.4","2023-05-04T08:31:30","120","2023/05/04","08:31:30","-15.744798839092255","35.00283183273859","2.1","13","30","64","82","-84","23819","-8334","16","150","150.49","117.09","33.40","28.26","42.9","14.47","92100","28.50","DUALSPOT-UV-BLUE-GREEN-RED-IR","633578","682920","908686","29.844128","8.262665","-0.005130","637011","866518","762979","23.218614","6.063102","-0.034922","736644","878979","816116","20.004426","4.945922","-0.044035","745528","902134","863683","16.597826","3.854334","-0.108210","661703","839929","954197","12.587257","2.988936","-0.086569","3362","3039","2916","3675","2459","2029","3919","2537","2083","4055","2055","1450","4443","2676","2126",""
"MA200-0416","19753","56","1","1.10","1.4","2023-05-04T08:32:00","120","2023/05/04","08:32:00","-15.744896650314331","35.00332266627811","2.0","13","30","64","82","-140","24160","-5476","16","150","150.01","117.04","32.96","28.31","42.9","14.51","92096","28.63","DUALSPOT-UV-BLUE-GREEN-RED-IR","631284","680639","905771","29.877864","8.273103","0.004019","635968","865294","761936","23.240566","6.069051","-0.002314","734789","876906","814223","20.022350","4.949916","-0.019187","748776","906221","867609","16.611774","3.855597","-0.455994","659440","837170","951136","12.602833","2.992380","-0.031139","1693","1860","1924","1390","1337","1319","1271","1005","918","1195","384","139","1858","1459","1335",""
"MA200-0416","19754","56","1","1.10","1.4","2023-05-04T08:32:30","120","2023/05/04","08:32:30","-15.745145201683044","35.004151666071266","3.9","13","30","64","82","252","24172","-4572","16","150","150.36","117.26","33.10","28.37","42.9","14.56","92072","28.75","DUALSPOT-UV-BLUE-GREEN-RED-IR","633455","683291","909504","29.946178","8.295610","0.006276","638278","868656","765022","23.285802","6.081766","-0.000246","735946","878555","815855","20.059212","4.958761","-0.012380","746385","903506","865059","16.640038","3.860795","-0.049905","660924","839185","953442","12.624969","2.997538","-0.023477","3421","3994","4213","2859","2847","2843","2609","2218","2090","2418","1575","1321","2637","2177","2034",""
"MA200-0416","19755","56","1","1.10","1.4","2023-05-04T08:33:00","120","2023/05/04","08:33:00","-15.74544608592987","35.00513349939138","4.0","13","30","64","82","-128","24088","-4244","16","150","150.16","117.18","32.98","28.41","42.8","14.56","92004","28.88","DUALSPOT-UV-BLUE-GREEN-RED-IR","629432","679340","904490","30.026664","8.321768","0.005876","635396","865131","762028","23.342014","6.098551","0.003272","733949","876430","813991","20.106846","4.971927","-0.001200","743788","900633","862399","16.677956","3.869581","-0.017907","662881","841899","956625","12.655941","3.005167","-0.015454","4034","4658","4898","3556","3773","3850","3374","3314","3295","3246","2672","2499","3692","3231","3088",""
"MA200-0416","19756","56","1","1.10","1.4","2023-05-04T08:33:30","120","2023/05/04","08:33:30","-15.745531141757965","35.00607183156535","4.1","13","30","64","81","107","24176","-5088","16","150","149.53","117.09","32.44","28.46","42.5","14.50","91908","28.94","DUALSPOT-UV-BLUE-GREEN-RED-IR","630119","680221","905745","30.061428","8.333879","0.008738","636266","866464","763271","23.368764","6.108015","0.011674","733436","875932","813568","20.128794","4.976624","-0.021537","744163","901195","862954","16.697706","3.873539","-0.033744","658274","836168","950147","12.673866","3.009781","-0.008076","1743","2192","2365","1693","2163","2329","1556","1202","1085","1692","1224","1082","2138","1987","1940",""
"MA200-0416","19757","56","1","1.10","1.4","2023-05-04T08:34:00","120","2023/05/04","08:34:00","-15.745729446411133","35.006838832981884","2.2","13","30","64","82","-1146","23319","-7684","16","150","149.59","116.71","32.88","28.53","42.2","14.44","91892","29.00","DUALSPOT-UV-BLUE-GREEN-RED-IR","627983","678164","903158","30.113746","8.347496","-0.003912","634954","864913","761987","23.406680","6.117952","-0.004455","735937","879220","816655","20.160140","4.983944","-0.014593","742292","899170","861064","16.721432","3.877759","-0.055192","661021","839770","954303","12.696735","3.015324","-0.017666","2632","2432","2355","2408","2240","2180","2229","1848","1722","2039","1287","1060","2737","2354","2235",""
"MA200-0416","19758","56","1","1.10","1.4","2023-05-04T08:34:30","120","2023/05/04","08:34:30","-15.745629072189331","35.00742099946365","2.4","13","30","64","82","284","23796","-6769","16","150","150.28","117.46","32.82","28.58","42.0","14.40","91876","29.13","DUALSPOT-UV-BLUE-GREEN-RED-IR","629652","680124","905813","30.148388","8.358118","0.003936","636471","867108","763956","23.432632","6.123279","-0.023919","732902","875705","813390","20.183144","4.987663","-0.063002","744327","901728","863544","16.738926","3.879970","-0.148295","662073","841237","955965","12.712780","3.017573","-0.148401","1732","1900","1965","1637","1203","1049","1626","940","715","1494","675","429","1908","957","661",""
"MA200-0416","19759","56","1","1.10","1.4","2023-05-04T08:35:00","120","2023/05/04","08:35:00","-15.745407938957214","35.0082019995898","2.3","13","30","64","82","364","24432","-5560","16","150","150.14","117.09","33.06","28.64","41.7","14.37","91860","29.19","DUALSPOT-UV-BLUE-GREEN-RED-IR","631422","682162","908618","30.174678","8.364055","-0.012691","637824","869122","765744","23.449748","6.126165","-0.051189","738013","881918","819222","20.198002","4.989249","-0.235280","746406","904321","865998","16.749823","3.879756","0.211914","658444","836716","950867","12.725361","3.018859","-0.401195","1318","1054","953","1083","646","492","1053","398","183","933","-65","-366","1501","543","245",""
"MA200-0416","19760","56","1","1.10","1.4","2023-05-04T08:35:30","120","2023/05/04","08:35:30","-15.74523013830185","35.00893183145672","1.3","13","30","64","81","-1076","23896","-4628","16","150","150.49","116.63","33.86","28.70","41.6","14.36","91856","29.25","DUALSPOT-UV-BLUE-GREEN-RED-IR","630977","681735","908027","30.181346","8.366346","0.006698","633261","862913","760266","23.454956","6.126821","-0.139867","733780","876889","814540","20.200992","4.988164","0.074419","741446","898359","860262","16.752909","3.877759","0.078344","658652","836994","951186","12.730026","3.020945","0.032550","335","397","420","331","143","77","212","-265","-422","265","-591","-849","558","860","954",""
"MA200-0416","19761","56","1","1.10","1.4","2023-05-04T08:36:00","120","2023/05/04","08:36:00","-15.745070338249207","35.00945149734616","1.9","13","30","64","82","492","24680","-7215","16","150","149.76","117.34","32.42","28.74","41.4","14.32","91828","29.25","DUALSPOT-UV-BLUE-GREEN-RED-IR","628675","679275","904784","30.190690","8.368816","-0.002099","636271","867063","763944","23.461896","6.126886","0.181154","735889","879525","816950","20.208100","4.987764","0.132245","744116","901680","863410","16.757776","3.876191","0.092515","660341","839213","953698","12.737774","3.021056","0.401359","467","447","439","438","14","-134","502","-102","-300","416","-485","-756","922","47","-224",""
"MA200-0416","19762","56","1","1.10","1.4","2023-05-04T08:36:30","120","2023/05/04","08:36:30","-15.744966685771942","35.00983266439289","1.7","13","30","64","81","2400","23576","-9120","16","150","149.33","117.10","32.22","28.78","41.3","14.33","91804","29.31","DUALSPOT-UV-BLUE-GREEN-RED-IR","627960","678681","904090","30.228592","8.378902","-0.001577","635334","866007","763039","23.485688","6.130760","-0.052511","735534","879245","816719","20.226694","4.989994","-0.147617","742705","900098","861910","16.771555","3.875743","0.190964","659831","838640","953067","12.748947","3.021920","-1.281367","1901","1838","1814","1506","891","674","1318","574","330","1180","-139","-535","1332","374","76",""
"MA200-0416","19763","56","1","1.10","1.4","2023-05-04T08:37:00","120","2023/05/04","08:37:00","-15.744866669178009","35.01029216405004","2.2","14","30","64","81","-1476","24012","-4344","16","150","150.55","117.43","33.13","28.84","41.3","14.38","91772","29.38","DUALSPOT-UV-BLUE-GREEN-RED-IR","629668","680736","906943","30.263916","8.389753","0.003616","636669","868039","764905","23.514982","6.138557","-0.003533","732357","875646","813406","20.251052","4.994035","-0.059576","746378","904714","866357","16.793360","3.877865","-0.342107","661215","840545","955303","12.769371","3.026434","-0.031053","1766","1923","1984","1849","1744","1707","1722","1012","780","1862","642","276","2429","1903","1739",""
"MA200-0416","19764","56","1","1.10","1.4","2023-05-04T08:37:30","120","2023/05/04","08:37:30","-15.744739353656769","35.01079616416246","2.3","14","30","64","81","-1304","24300","-5120","16","150","149.90","116.91","32.99","28.89","41.2","14.39","91736","29.38","DUALSPOT-UV-BLUE-GREEN-RED-IR","629302","680537","906833","30.313838","8.406908","0.007636","636574","868113","765037","23.550894","6.148756","0.000362","732267","875741","813570","20.286104","5.002845","-0.008372","745966","904400","866131","16.819142","3.883230","-0.030834","660798","840126","954864","12.790970","3.030958","-0.039877","2508","3054","3263","2277","2291","2296","2489","2216","2127","2212","1631","1456","2580","1915","1709",""
"MA200-0416","19765","56","1","1.10","1.4","2023-05-04T08:38:00","120","2023/05/04","08:38:00","-15.74451470375061","35.01129799801856","3.1","14","30","64","82","-220","24076","-5548","16","150","149.90","117.14","32.75","28.91","41.0","14.33","91708","29.38","DUALSPOT-UV-BLUE-GREEN-RED-IR","629571","681079","907699","30.366982","8.423042","0.003499","636495","868278","765229","23.592016","6.159639","-0.003302","731852","875429","813389","20.320624","5.012244","-0.001763","746439","905214","866916","16.849250","3.888064","-0.073561","660749","840231","955046","12.815983","3.037367","-0.009583","2664","2893","2981","2602","2463","2414","2446","2382","2361","2578","1480","1151","2982","2733","2656",""
"MA200-0416","19766","56","1","1.10","1.4","2023-05-04T08:38:30","120","2023/05/04","08:38:30","-15.744074881076813","35.0118969976902","2.5","14","30","64","81","-2208","23704","-3336","16","150","150.08","116.81","33.26","28.95","40.9","14.32","91684","29.38","DUALSPOT-UV-BLUE-GREEN-RED-IR","630244","681956","908960","30.398220","8.432419","0.002294","633486","864256","761772","23.614174","6.165611","-0.003291","732319","876155","814040","20.338366","5.014509","-0.134388","746670","905601","867290","16.863912","3.889900","-0.158921","661056","840742","955658","12.832077","3.040944","-0.031490","1570","1655","1688","1406","1331","1304","1260","565","337","1259","553","342","1924","1502","1370",""
"MA200-0416","19767","56","1","1.10","1.4","2023-05-04T08:39:00","120","2023/05/04","08:39:00","-15.743822157382965","35.01242916472256","2.5","14","30","64","81","273","24457","-4965","16","150","150.05","117.46","32.58","28.99","40.8","14.32","91660","29.38","DUALSPOT-UV-BLUE-GREEN-RED-IR","630741","682649","909961","30.428874","8.441648","0.003473","633868","864970","762426","23.636366","6.169157","-0.056954","732226","876168","814083","20.356174","5.016053","-0.511691","740396","898143","860173","16.877870","3.890490","0.642493","656763","835384","949596","12.846226","3.043070","-0.116943","1532","1663","1713","1400","806","596","1258","393","110","1192","181","-121","1682","911","672",""
"MA200-0416","19768","56","1","1.10","1.4","2023-05-04T08:39:30","120","2023/05/04","08:39:30","-15.743673622608185","35.013227998279035","2.9","14","30","64","81","408","24100","-5916","16","150","149.67","117.17","32.50","29.03","40.7","14.34","0","0.00","DUALSPOT-UV-BLUE-GREEN-RED-IR","625603","677511","903406","30.514404","8.470181","0.007182","634194","865784","763269","23.692574","6.185484","0.002536","733344","877856","815776","20.404284","5.029452","0.000270","741434","899693","861779","16.917460","3.899377","-0.019461","657589","836636","951095","12.877701","3.050634","-0.016479","4287","5156","5490","3556","3724","3783","3408","3422","3427","3389","2743","2550","3752","3251","3095",""
"MA200-0416","19769","56","1","1.10","1.4","2023-05-04T08:40:00","120","2023/05/04","08:40:00","-15.74356484413147","35.013624330982566","0.5","14","30","64","81","-967","23940","-6575","16","150","150.03","117.74","32.29","29.06","40.6","14.33","0","0.00","DUALSPOT-UV-BLUE-GREEN-RED-IR","624221","676384","902116","30.598496","8.495951","0.004573","633181","864776","762527","23.757640","6.204706","0.003986","732386","877023","815096","20.457880","5.043554","-0.002776","740034","898287","860462","16.961192","3.909772","-0.012344","656703","835711","950079","12.910172","3.057479","-0.033691","4194","4687","4877","4096","4413","4525","3779","3626","3576","3726","3230","3081","3852","2961","2684",""
"MA200-0416","19770","56","1","1.10","1.4","2023-05-04T08:40:30","120","2023/05/04","08:40:30","-15.743602991104126","35.01361349783838","0.3","14","30","64","81","1052","23544","-7436","16","150","149.49","116.97","32.52","29.11","40.5","14.31","91628","29.44","DUALSPOT-UV-BLUE-GREEN-RED-IR","627160","679919","906984","30.648892","8.510763","0.002397","635195","867767","765237","23.787230","6.211632","-0.011430","734405","879685","817634","20.482030","5.048496","-0.026327","744115","903413","865410","16.978506","3.912490","-0.076711","658874","838599","953434","12.927467","3.061895","-0.009248","2530","2675","2731","1875","1579","1474","1714","1261","1113","1485","838","644","2065","1897","1845",""
"MA200-0416","19771","56","1","1.10","1.4","2023-05-04T08:41:00","120","2023/05/04","08:41:00","-15.74359405040741","35.01405899785459","1.6","14","30","64","81","-2704","23956","-4016","16","150","150.36","117.46","32.90","29.15","40.3","14.29","91652","29.44","DUALSPOT-UV-BLUE-GREEN-RED-IR","627443","680522","908007","30.735958","8.534187","-0.001880","632341","864174","762159","23.847444","6.226289","-0.009033","733832","879280","817307","20.530982","5.059082","-0.021121","744150","903701","865743","17.016970","3.918081","-0.097918","658555","838376","953218","12.957745","3.067384","-0.066296","4353","4181","4115","3800","3302","3126","3459","2671","2413","3285","1704","1232","3600","2330","1936",""
"MA200-0416","19772","56","1","1.10","1.4","2023-05-04T08:41:30","120","2023/05/04","08:41:30","-15.74364584684372","35.014508832246065","5.8","14","30","64","81","1743","23848","-7688","16","150","149.70","117.70","32.00","29.18","40.2","14.27","91660","29.50","DUALSPOT-UV-BLUE-GREEN-RED-IR","628442","681782","909710","30.766304","8.541868","-0.003428","632765","864904","762857","23.866732","6.230955","-0.007330","730648","875585","813913","20.547276","5.062765","-0.013997","745412","905313","867308","17.028330","3.919517","-0.133710","658960","839027","953952","12.969704","3.068658","-0.301897","1514","1409","1369","1214","1081","1033","1149","955","892","968","450","295","1419","556","288",""
"MA200-0416","19773","56","1","1.10","1.4","2023-05-04T08:42:00","120","2023/05/04","08:42:00","-15.74331283569336","35.01512416359037","0.2","14","30","64","81","-722","23891","-6319","16","150","149.39","117.02","32.36","29.22","40.0","14.23","91660","29.50","DUALSPOT-UV-BLUE-GREEN-RED-IR","628275","681772","909845","30.810348","8.555073","0.003386","632718","865064","763043","23.898712","6.238460","-0.010785","730599","875670","814063","20.573756","5.067623","-0.039237","739545","898293","860612","17.047636","3.921967","-0.138698","659267","839519","954593","12.989727","3.073646","-0.011501","2210","2396","2468","2025","1719","1610","1878","1246","1039","1655","759","491","2390","2153","2079",""
"MA200-0416","19774","56","1","1.10","1.4","2023-05-04T08:42:30","120","2023/05/04","08:42:30","-15.743391752243042","35.015362998470664","3.5","14","30","64","81","-479","24028","-6056","16","150","150.36","117.62","32.75","29.27","39.9","14.23","91656","29.56","DUALSPOT-UV-BLUE-GREEN-RED-IR","624268","677641","904388","30.847592","8.564129","-0.006894","634094","867144","764888","23.923610","6.243019","-0.036066","731754","877217","815528","20.595316","5.070979","-0.068440","740208","899281","861529","17.063880","3.922992","13.967845","659912","840440","955636","13.004139","3.075286","-0.264359","1859","1624","1533","1569","1032","842","1521","850","631","1385","314","-5","1711","699","385",""
