"Serial number","Datum ID","Session ID","Data format version","Firmware version","App version","Date / time local","Timezone offset (mins)","Date local (yyyy/MM/dd)","Time local (hh:mm:ss)","GPS lat (ddmm.mmmmm)","GPS long (dddmm.mmmmm)","GPS speed (km/h)","GPS sat count","Timebase (s)","Status","Battery remaining (%)","Accel X","Accel Y","Accel Z","Tape position","Flow setpoint (mL/min)","Flow total (mL/min)","Flow1 (mL/min)","Flow2 (mL/min)","Sample temp (C)","Sample RH (%)","Sample dewpoint (C)","Internal pressure (Pa)","Internal temp (C)","Optical config","UV Sen1","UV Sen2","UV Ref","UV ATN1","UV ATN2","UV K","Blue Sen1","Blue Sen2","Blue Ref","Blue ATN1","Blue ATN2","Blue K","Green Sen1","Green Sen2","Green Ref","Green ATN1","Green ATN2","Green K","Red Sen1","Red Sen2","Red Ref","Red ATN1","Red ATN2","Red K","IR Sen1","IR Sen2","IR Ref","IR ATN1","IR ATN2","IR K","UV BC1","UV BC2","UV BCc","Blue BC1","Blue BC2","Blue BCc","Green BC1","Green BC2","Green BCc","Red BC1","Red BC2","Red BCc","IR BC1","IR BC2","IR BCc","Readable status"
"MA200-0416","20459","58","1","1.10","1.4","2023-05-07T08:08:34","120","2023/05/07","08:08:34","0","0","0.0","0","30","82","92","-23339","5960","-8506","1","150","0.00","0.00","0.00","0.00","0.0","-204.27","90452","22.44","DUALSPOT-UV-BLUE-GREEN-RED-IR","863492","736443","897431","0.000000","0.000000","0.000000","859829","976305","800204","0.000000","0.000000","0.000000","961720","980530","856886","0.000000","0.000000","0.000000","872289","924376","841834","0.000000","0.000000","0.000000","0","0","0","0.000000","0.000000","0.000000","","","","","","","","","","","","","","","","Start up-Optical saturation"
"MA200-0416","20460","58","1","1.10","1.4","2023-05-07T08:09:04","120","2023/05/07","08:09:04","0","0","0.0","3","30","66","91","-24788","-5156","-2908","1","150","150.01","114.54","35.46","23.46","56.3","14.25","90464","22.88","DUALSPOT-UV-BLUE-GREEN-RED-IR","869524","742430","905255","0.000000","0.000000","0.000000","818177","929535","762348","0.000000","0.000000","0.000000","917086","935529","817919","0.000000","0.000000","0.000000","893190","947051","862901","0.000000","0.000000","0.000000","756324","868906","949979","0.000000","0.000000","0.000000","","","","","","","","","","","","","","","","Start up"
"MA200-0416","20461","58","1","1.10","1.4","2023-05-07T08:09:34","120","2023/05/07","08:09:34","0","0","0.0","4","30","66","92","-24956","-4208","-1856","1","150","149.63","114.60","35.03","23.54","55.9","14.21","90460","23.19","DUALSPOT-UV-BLUE-GREEN-RED-IR","868026","741860","904908","0.000000","0.000000","0.000000","817114","928861","762028","0.000000","0.000000","0.000000","913187","932008","814992","0.000000","0.000000","0.000000","891958","946162","862224","0.000000","0.000000","0.000000","759363","872753","954246","0.000000","0.000000","0.000000","","","","","","","","","","","","","","","","Start up"
"MA200-0416","20462","58","1","1.10","1.4","2023-05-07T08:10:04","120","2023/05/07","08:10:04","0","0","0.0","4","30","66","90","-25080","-4273","-1900","1","150","149.47","114.88","34.60","23.62","55.5","14.18","90456","23.44","DUALSPOT-UV-BLUE-GREEN-RED-IR","871283","745320","909452","0.000000","0.000000","0.000000","814550","926573","760283","0.000000","0.000000","0.000000","914671","934038","816923","0.000000","0.000000","0.000000","895439","950284","866080","0.000000","0.000000","0.000000","757266","870585","951998","0.000000","0.000000","0.000000","","","","","","","","","","","","","","","","Start up"
"MA200-0416","20463","58","1","1.10","1.4","2023-05-07T08:10:34","120","2023/05/07","08:10:34","0","0","0.0","6","30","66","91","-25060","-4232","-2011","1","150","150.15","115.08","35.07","23.70","55.1","14.14","90460","23.63","DUALSPOT-UV-BLUE-GREEN-RED-IR","871323","746124","910711","0.000000","0.000000","0.000000","819114","932406","765230","0.000000","0.000000","0.000000","909161","928934","812632","0.000000","0.000000","0.000000","895810","951103","866948","0.000000","0.000000","0.000000","756990","870565","952100","0.000000","0.000000","0.000000","","","","","","","","","","","","","","","","Start up"
"MA200-0416","20464","58","1","1.10","1.4","2023-05-07T08:11:04","120","2023/05/07","08:11:04","-15.795438587665558","35.0028313328512","0.6","6","30","64","91","-24812","-4304","-1408","1","150","149.51","115.20","34.31","23.77","54.7","14.12","90460","23.69","DUALSPOT-UV-BLUE-GREEN-RED-IR","866318","742603","906754","0.000000","0.000000","0.000000","815080","928435","762193","0.000000","0.000000","0.000000","910125","930461","814107","0.000000","0.000000","0.000000","892146","947694","863998","0.000000","0.000000","0.000000","758898","873051","954939","0.000000","0.000000","0.000000","","","","","","","","","","","","","","","",""
"MA200-0416","20465","58","1","1.10","1.4","2023-05-07T08:11:34","120","2023/05/07","08:11:34","-15.795598983764648","35.002784999785945","0.0","8","30","64","90","-25084","-4324","-1408","1","150","149.80","115.03","34.77","23.85","54.5","14.11","90464","23.81","DUALSPOT-UV-BLUE-GREEN-RED-IR","868349","745190","910254","0.144371","0.035478","0.000000","817291","931675","765027","0.094848","0.024055","0.000000","912257","933238","816695","0.077766","0.018627","0.000000","894034","950146","866353","0.061291","0.013894","0.000000","755929","869934","951629","0.044363","0.009872","0.000000","7371","5993","7371","6112","5129","6112","5612","4448","5612","5345","4009","5345","5387","3966","5387",""
"MA200-0416","20466","58","1","1.10","1.4","2023-05-07T08:12:04","120","2023/05/07","08:12:04","-15.79561299085617","35.00277733313851","0.0","8","30","64","90","-25428","-4416","-1884","1","150","149.57","114.80","34.77","23.92","54.3","14.12","90472","23.94","DUALSPOT-UV-BLUE-GREEN-RED-IR","863185","742005","906938","0.371141","0.098060","0.000000","813636","928383","762630","0.227635","0.063119","0.000000","908126","929715","813823","0.181967","0.048339","0.000000","889127","945490","862316","0.141733","0.037050","0.000000","756962","871492","953449","0.096700","0.024346","0.000000","11602","10572","11602","8575","8329","8575","7535","7095","7535","7030","6682","7030","6368","5815","6368",""
"MA200-0416","20467","58","1","1.10","1.4","2023-05-07T08:12:34","120","2023/05/07","08:12:34","-15.795610189437866","35.00277699972503","0.0","8","30","64","90","-25056","-4264","-2019","1","150","149.62","114.82","34.80","23.99","54.0","14.11","90468","24.00","DUALSPOT-UV-BLUE-GREEN-RED-IR","863808","743412","909018","0.540253","0.142433","0.000000","814220","929827","764005","0.340801","0.092243","0.000000","908640","930841","815019","0.273776","0.069779","0.000000","890897","947876","864623","0.215238","0.054270","0.000000","757565","872515","954679","0.148389","0.035679","0.000000","8650","7489","8650","7306","6204","7306","6638","5114","6638","6422","4964","6422","6288","4549","6288",""
"MA200-0416","20468","58","1","1.10","1.4","2023-05-07T08:13:04","120","2023/05/07","08:13:04","-15.795616090297699","35.00278566638008","0.0","8","30","64","90","-25096","-4392","-2016","1","150","149.40","114.79","34.61","24.05","53.8","14.10","90468","24.06","DUALSPOT-UV-BLUE-GREEN-RED-IR","858269","739482","904567","0.689891","0.180673","0.000000","814331","930659","764910","0.445216","0.118869","0.000000","909305","932154","816355","0.361699","0.092720","0.000000","886603","943841","861080","0.284850","0.072014","0.000000","754807","869618","951663","0.196933","0.049285","0.000000","7656","6490","7656","6743","5703","6743","6358","5503","6358","6083","5144","6083","5907","5492","5907",""
"MA200-0416","20469","58","1","1.10","1.4","2023-05-07T08:13:34","120","2023/05/07","08:13:34","-15.795606911182404","35.002791999839246","0.0","8","30","64","90","-25008","-4192","-1716","1","150","149.34","115.09","34.25","24.12","53.5","14.09","90464","24.13","DUALSPOT-UV-BLUE-GREEN-RED-IR","859192","741196","907061","0.853378","0.223043","0.000000","810173","926668","761859","0.558012","0.148635","0.000000","908992","932477","816815","0.453502","0.114858","0.000000","886775","944553","861889","0.358879","0.089252","0.000000","751042","865672","947449","0.250404","0.060804","0.000000","8343","7265","8343","7265","6442","7265","6622","5365","6622","6453","5049","6453","6490","4697","6490",""
"MA200-0416","20470","58","1","1.10","1.4","2023-05-07T08:14:04","120","2023/05/07","08:14:04","-15.795596837997437","35.002800832968205","0.0","8","30","64","90","-25100","-4268","-1743","1","150","149.61","114.80","34.80","24.18","53.3","14.09","90464","24.25","DUALSPOT-UV-BLUE-GREEN-RED-IR","860403","743078","909737","1.014927","0.266071","0.000000","811107","928444","763499","0.661593","0.174205","0.000000","904603","928549","813551","0.540507","0.136668","0.000000","888309","946686","863999","0.427949","0.104236","0.000000","755475","871063","953475","0.299823","0.074164","0.000000","8265","7261","8265","6688","5446","6688","6292","5202","6292","6036","4319","6036","6013","5362","6013",""
"MA200-0416","20471","58","1","1.10","1.4","2023-05-07T08:14:34","120","2023/05/07","08:14:34","-15.79558777809143","35.00280449935235","0.0","8","30","64","89","-25248","-4408","-2320","1","150","149.53","114.66","34.87","24.25","53.1","14.10","90460","24.31","DUALSPOT-UV-BLUE-GREEN-RED-IR","858750","742421","909302","1.156166","0.304636","0.000000","809695","927435","762897","0.755679","0.200265","0.000000","904099","928539","813698","0.615609","0.155520","0.000000","888197","946966","864353","0.489014","0.119436","0.000000","755261","871083","953568","0.342105","0.085113","0.000000","7235","6496","7235","6083","5540","6083","5438","4488","5438","5343","4373","5343","5151","4386","5151",""
"MA200-0416","20472","58","1","1.10","1.4","2023-05-07T08:15:04","120","2023/05/07","08:15:04","-15.7955961227417","35.00280016637407","0.0","8","30","64","89","-24928","-4344","-2016","1","150","149.94","114.92","35.02","24.30","53.0","14.10","90468","24.31","DUALSPOT-UV-BLUE-GREEN-RED-IR","856729","741394","908358","1.290679","0.339843","0.000000","808011","926146","761988","0.844007","0.222503","0.000000","906026","931051","816037","0.688612","0.173581","0.000000","884924","943903","861662","0.545918","0.132328","0.000000","753545","869362","951796","0.381517","0.094562","0.000000","6875","5905","6875","5697","4707","5697","5274","4281","5274","4967","3693","4967","4790","3769","4790",""
"MA200-0416","20473","58","1","1.10","1.4","2023-05-07T08:15:34","120","2023/05/07","08:15:34","-15.795602977275848","35.00277966633439","0.0","8","30","64","89","-24940","-4164","-1520","1","150","150.16","114.48","35.68","24.36","52.8","14.11","90464","24.38","DUALSPOT-UV-BLUE-GREEN-RED-IR","857590","742775","910364","1.413025","0.373992","0.000000","808695","927466","763222","0.925719","0.243806","0.000000","906060","931550","816602","0.756490","0.190567","0.000000","885775","945145","862946","0.599038","0.145161","0.000000","753603","869658","952217","0.417564","0.104376","0.000000","6277","5621","6277","5291","4426","5291","4922","3952","4922","4655","3608","4655","4398","3842","4398",""
"MA200-0416","20474","58","1","1.10","1.4","2023-05-07T08:16:04","120","2023/05/07","08:16:04","-15.795605957508087","35.002769832732156","0.0","8","30","64","89","-25140","-4360","-1532","1","150","149.92","114.61","35.31","24.42","52.6","14.11","90464","24.44","DUALSPOT-UV-BLUE-GREEN-RED-IR","856783","742772","910655","1.539245","0.407365","0.000000","808911","928235","764017","1.004648","0.264392","0.000000","906048","931990","817115","0.819158","0.206059","0.000000","887113","946935","864674","0.648224","0.156807","0.000000","753986","870344","953047","0.452970","0.112625","0.000000","6468","5551","6468","5105","4321","5105","4539","3642","4539","4305","3309","4305","4315","3263","4315",""
"MA200-0416","20475","58","1","1.10","1.4","2023-05-07T08:16:34","120","2023/05/07","08:16:34","-15.79561197757721","35.0027708329726","0.0","8","30","64","89","-24952","-4336","-1727","1","150","149.80","114.88","34.92","24.47","52.5","14.12","90464","24.50","DUALSPOT-UV-BLUE-GREEN-RED-IR","852433","739673","907109","1.660018","0.439624","0.000000","805081","924398","761022","1.083856","0.284700","0.000000","902195","928463","814142","0.883490","0.220918","0.000000","888326","948652","866289","0.697433","0.166005","0.000000","754821","871556","954428","0.488729","0.121971","0.000000","6175","5426","6175","5111","4311","5111","4649","3532","4649","4297","2642","4297","4348","3738","4348",""
"MA200-0416","20476","58","1","1.10","1.4","2023-05-07T08:17:04","120","2023/05/07","08:17:04","-15.795607328414917","35.00275983288884","0.1","9","30","64","89","-24988","-4236","-1556","1","150","149.39","114.44","34.95","24.53","52.4","14.12","90464","24.56","DUALSPOT-UV-BLUE-GREEN-RED-IR","853075","740825","908849","1.774728","0.470478","0.000000","805497","925379","761971","1.157361","0.303529","0.000000","902935","929633","815302","0.941068","0.234759","0.000000","883755","944057","862197","0.742560","0.175649","0.000000","751877","868321","950968","0.520492","0.129923","0.000000","5887","5185","5887","4761","3994","4761","4177","3288","4177","3956","2768","3956","3877","3179","3877",""
"MA200-0416","20477","58","1","1.10","1.4","2023-05-07T08:17:34","120","2023/05/07","08:17:34","-15.795670211315155","35.002764999633655","0.0","8","30","64","89","-24884","-4732","-1584","1","150","150.36","114.80","35.56","24.58","52.3","14.15","90468","24.63","DUALSPOT-UV-BLUE-GREEN-RED-IR","850385","739537","907714","1.943549","0.515602","0.000000","804261","924765","761687","1.260328","0.330490","0.000000","901300","928595","814571","1.022762","0.255626","0.000000","882347","943066","861434","0.804966","0.192213","0.000000","750898","867490","950175","0.562582","0.141217","0.000000","8637","7453","8637","6649","5620","6649","5908","4871","5908","5453","4672","5453","5121","4436","5121",""
"MA200-0416","20478","58","1","1.10","1.4","2023-05-07T08:18:04","120","2023/05/07","08:18:04","-15.79568636417389","35.00287633296102","3.1","9","30","64","89","-24676","-4688","2168","1","150","149.73","115.21","34.52","24.63","52.2","14.16","90472","24.69","DUALSPOT-UV-BLUE-GREEN-RED-IR","845756","736070","903718","2.071956","0.549652","0.000000","806361","927600","764175","1.341283","0.351123","0.000000","898284","925853","812245","1.086915","0.270540","0.000000","886370","947664","865715","0.854879","0.202435","0.000000","753112","870244","953288","0.594833","0.148242","0.000000","6546","5793","6546","5209","4431","5209","4622","3586","4622","4346","2971","4346","3910","2842","3910",""
"MA200-0416","20479","58","1","1.10","1.4","2023-05-07T08:18:34","120","2023/05/07","08:18:34","-15.79599130153656","35.002847333205864","0.6","9","30","64","89","-25048","-5508","-996","1","150","149.37","114.42","34.95","24.69","52.2","14.21","90472","24.75","DUALSPOT-UV-BLUE-GREEN-RED-IR","846090","737190","905431","2.216966","0.586172","0.000000","806541","928484","765065","1.429963","0.371711","0.000000","903247","931517","817336","1.156610","0.285685","0.000000","880781","942117","860770","0.909328","0.213778","0.000000","753538","870975","954169","0.631034","0.157173","0.000000","7443","6137","7443","5745","4366","5745","5057","3597","5057","4774","3255","4774","4419","3569","4419",""
"MA200-0416","20480","58","1","1.10","1.4","2023-05-07T08:19:04","120","2023/05/07","08:19:04","-15.796056628227234","35.00283266603947","0.8","10","30","64","89","-24880","-4164","-324","1","150","149.53","115.21","34.31","24.73","52.1","14.25","90472","24.81","DUALSPOT-UV-BLUE-GREEN-RED-IR","847728","739191","908166","2.329597","0.618576","0.000000","802794","924686","762099","1.508337","0.393169","0.000000","898310","926857","813413","1.221752","0.302428","0.000000","881320","943036","861674","0.959539","0.224727","0.000000","753671","871389","954713","0.669456","0.167071","0.000000","5742","5546","5742","5043","4635","5043","4694","4050","4694","4372","3201","4372","4658","4029","4658",""
"MA200-0416","20481","58","1","1.10","1.4","2023-05-07T08:19:34","120","2023/05/07","08:19:34","-15.796163320541382","35.003357832785696","2.3","10","30","64","89","-24320","-7184","-1564","1","150","149.86","115.14","34.72","24.78","52.1","14.28","90508","24.88","DUALSPOT-UV-BLUE-GREEN-RED-IR","847030","739338","908748","2.475136","0.660062","0.000000","803532","926237","763584","1.609516","0.421821","0.000000","898971","928122","814692","1.306575","0.325751","0.000000","882837","945191","863792","1.029258","0.242937","0.000000","754182","872316","955823","0.717956","0.179610","0.000000","7424","7019","7424","6514","6118","6514","6116","5577","6116","6074","5262","6074","5884","5045","5884",""
"MA200-0416","20482","58","1","1.10","1.4","2023-05-07T08:20:04","120","2023/05/07","08:20:04","-15.795843720436096","35.004189665894955","0.0","10","30","64","88","-24300","-7696","-720","1","150","150.16","115.27","34.89","24.84","51.9","14.27","90596","24.88","DUALSPOT-UV-BLUE-GREEN-RED-IR","847902","740736","910747","2.593973","0.691789","0.000000","803617","926848","764228","1.688295","0.441675","0.000000","898522","928096","814810","1.371581","0.341600","0.000000","882663","945369","864048","1.080459","0.254285","0.000000","750067","867783","950933","0.758932","0.189983","0.000000","6055","5341","6055","5066","4218","5066","4681","3771","4681","4456","3263","4456","4965","4153","4965",""
"MA200-0416","20483","58","1","1.10","1.4","2023-05-07T08:20:34","120","2023/05/07","08:20:34","-15.79367220401764","35.004225166048855","12.6","11","30","64","88","-25712","-5144","-1316","1","150","149.90","115.04","34.86","24.89","51.8","14.30","90696","24.88","DUALSPOT-UV-BLUE-GREEN-RED-IR","844841","739354","909604","2.807269","0.749181","0.000000","801816","925911","763822","1.841586","0.482534","0.000000","896425","926888","814030","1.494759","0.370991","0.000000","880144","943448","862535","1.176607","0.277304","0.000000","752325","870919","954575","0.825708","0.206260","0.000000","10890","9670","10890","9878","8689","9878","8889","6999","8889","8385","6624","8385","8109","6522","8109",""
"MA200-0416","20484","58","1","1.10","1.4","2023-05-07T08:21:04","120","2023/05/07","08:21:04","-15.79051274061203","35.00437016552314","11.4","10","30","64","88","-24504","-3592","-1224","1","150","150.69","115.95","34.74","24.93","51.5","14.23","90436","24.94","DUALSPOT-UV-BLUE-GREEN-RED-IR","839670","736143","906303","3.073954","0.824295","-0.028992","796322","920767","759956","2.032965","0.536537","0.000000","897318","928829","816061","1.655697","0.416953","0.000000","882454","946717","865830","1.305663","0.313032","0.000000","749828","868552","952206","0.916307","0.231246","0.000000","13509","12700","12403","12235","11524","12235","11523","10984","11523","11166","10318","11166","10915","10047","10915",""
"MA200-0416","20485","58","1","1.10","1.4","2023-05-07T08:21:34","120","2023/05/07","08:21:34","-15.78962779045105","35.00456183310598","0.1","10","30","64","88","-24680","-3984","2320","1","150","149.09","114.88","34.21","24.98","51.1","14.17","90436","24.88","DUALSPOT-UV-BLUE-GREEN-RED-IR","841414","738383","909382","3.209412","0.860696","-0.047944","798368","923703","762601","2.122729","0.561380","0.000000","894780","926681","814355","1.729476","0.435812","0.000000","879302","943756","863227","1.362705","0.325901","0.000000","751449","870665","954647","0.957912","0.242014","0.000000","6925","6250","6002","5792","5383","5792","5332","4576","5332","4981","3774","4981","5059","4397","5059",""
"MA200-0416","20486","58","1","1.10","1.4","2023-05-07T08:22:04","120","2023/05/07","08:22:04","-15.789065778255463","35.00477149896324","0.9","11","30","64","88","-24300","-6172","3692","1","150","149.51","115.43","34.07","25.01","50.9","14.14","90424","24.94","DUALSPOT-UV-BLUE-GREEN-RED-IR","835655","734174","904641","3.356857","0.903253","-0.009301","800307","926732","765263","2.222740","0.586265","0.000000","894962","927514","815255","1.810097","0.456184","0.000000","880016","945048","864528","1.427388","0.341284","0.000000","752279","871918","956168","1.001836","0.257596","0.000000","7502","7336","7275","6422","5414","6422","5798","4964","5798","5621","4529","5621","5315","6388","5315",""
"MA200-0416","20487","58","1","1.10","1.4","2023-05-07T08:22:34","120","2023/05/07","08:22:34","-15.78687995672226","35.00516516529024","10.6","10","30","64","88","-24088","-1288","4172","1","150","149.68","115.31","34.37","25.04","50.8","14.12","90352","24.94","DUALSPOT-UV-BLUE-GREEN-RED-IR","838579","738087","910059","3.607812","0.969820","-0.049087","797618","924874","764098","2.405911","0.634002","0.000000","892322","925802","814038","1.962936","0.494766","0.000000","877381","943059","862980","1.547998","0.369960","0.000000","750296","870155","954403","1.085468","0.280069","0.000000","12782","11376","10859","11775","10296","11775","11003","9320","11003","10493","8371","10493","10131","9134","10131",""
"MA200-0416","20488","58","1","1.10","1.4","2023-05-07T08:23:04","120","2023/05/07","08:23:04","-15.785475850105286","35.00538516556844","6.9","11","30","64","88","-24600","40","4336","1","150","150.43","115.20","35.23","25.07","50.5","14.08","90284","24.94","DUALSPOT-UV-BLUE-GREEN-RED-IR","826713","732570","905512","4.167786","1.117458","-0.055705","793619","925136","765788","2.840179","0.746511","0.000000","888504","926037","815584","2.318699","0.584614","0.000000","875195","944258","865178","1.832002","0.440127","0.000000","748563","870468","955663","1.288730","0.329962","0.000000","28552","24614","23172","27946","23674","27946","25640","21173","25640","24734","19982","24734","24649","19784","24649",""
"MA200-0416","20489","58","1","1.10","1.4","2023-05-07T08:23:34","120","2023/05/07","08:23:34","-15.784888207912445","35.0063101653941","9.0","10","30","64","88","-24920","-4408","4112","1","150","150.05","115.26","34.79","25.10","50.3","14.05","90280","24.94","DUALSPOT-UV-BLUE-GREEN-RED-IR","815793","729423","904740","5.245462","1.414819","-0.025409","785534","922398","765627","3.699702","0.979124","-0.044244","880484","923440","815139","3.052282","0.780427","-0.060305","869162","942518","865190","2.432525","0.599319","0.000000","741193","864997","950891","1.714635","0.442226","0.000000","54919","50202","48460","55284","49565","47507","52841","46727","44627","52273","45906","52273","51620","45077","51620",""
"MA200-0416","20490","58","1","1.10","1.4","2023-05-07T08:24:04","120","2023/05/07","08:24:04","-15.78594046831131","35.008641998283565","9.9","10","30","64","88","-24356","-1140","4824","1","150","150.36","115.59","34.77","25.13","50.2","14.02","90380","24.94","DUALSPOT-UV-BLUE-GREEN-RED-IR","812259","727973","903721","6.102646","1.651947","-0.020251","781848","919729","763911","4.383689","1.164745","-0.035004","877929","922246","814549","3.654981","0.942099","-0.046645","866730","941225","864392","2.936983","0.731289","0.000000","739397","863795","949883","2.073665","0.536591","0.000000","43555","40061","38765","43865","39580","38030","43288","38608","36982","43783","38084","43783","43389","37917","43389",""
"MA200-0416","20491","58","1","1.10","1.4","2023-05-07T08:24:34","120","2023/05/07","08:24:34","-15.786925196647644","35.01133349817246","12.2","11","30","64","88","-24468","-2572","4728","1","150","149.53","114.79","34.73","25.15","50.0","14.00","90336","24.94","DUALSPOT-UV-BLUE-GREEN-RED-IR","802782","726799","905840","7.496721","2.047111","-0.012683","770252","913935","761604","5.559051","1.493745","-0.020507","869733","920650","815479","4.687345","1.225197","-0.030976","860475","940507","865801","3.805668","0.966895","-0.042367","739267","867724","955877","2.710399","0.707844","0.000000","71329","66827","65136","75904","70223","68136","74664","67672","65197","75921","68058","65380","77485","68880","77485",""
"MA200-0416","20492","58","1","1.10","1.4","2023-05-07T08:25:04","120","2023/05/07","08:25:04","-15.78744512796402","35.013992831110954","11.0","12","30","64","88","-24544","119","4340","1","150","150.49","115.20","35.30","25.16","50.0","14.00","90440","24.94","DUALSPOT-UV-BLUE-GREEN-RED-IR","800552","726015","905469","7.736042","2.113018","-0.020911","772935","918363","765657","5.745971","1.540821","-0.055952","868689","920613","815759","4.849613","1.265788","-0.068168","860281","941193","866702","3.938871","0.998223","-0.114754","735284","863693","951628","2.806221","0.731208","0.000000","12202","10967","10503","12029","9887","9102","11694","9547","8789","11601","8904","7989","11620","9247","11620",""
"MA200-0416","20493","58","1","1.10","1.4","2023-05-07T08:25:34","120","2023/05/07","08:25:34","-15.785626411437988","35.01716649532318","16.2","11","30","64","87","-24392","-1508","3896","1","150","148.57","114.78","33.79","25.17","50.0","14.00","90220","24.94","DUALSPOT-UV-BLUE-GREEN-RED-IR","794971","723738","904033","8.289812","2.270813","-0.005600","768500","915969","764606","6.197476","1.667266","-0.011550","864132","918319","814581","5.240703","1.372683","-0.020524","854635","937196","863750","4.266676","1.086044","-0.032216","735621","865532","954211","3.039718","0.792341","-0.057985","28337","27425","27080","29161","27737","27213","28288","26260","25541","28652","26071","25190","28418","25269","24159",""
"MA200-0416","20494","58","1","1.10","1.4","2023-05-07T08:26:04","120","2023/05/07","08:26:04","-15.785204529762268","35.02162316069007","17.3","11","30","64","87","-24796","-2408","2904","1","150","150.28","115.75","34.53","25.19","49.9","13.99","90088","24.94","DUALSPOT-UV-BLUE-GREEN-RED-IR","795153","724882","905901","8.470958","2.321552","-0.010843","768159","916488","765305","6.329083","1.701860","-0.030682","864212","919171","815594","5.352491","1.400232","-0.057563","856150","939517","866113","4.357150","1.108128","-0.073984","732951","862785","951351","3.103502","0.807586","-0.118399","9191","8630","8418","8428","7426","7058","8018","6623","6129","7841","6416","5930","7697","6167","5629",""
"MA200-0416","20495","58","1","1.10","1.4","2023-05-07T08:26:34","120","2023/05/07","08:26:34","-15.78442770242691","35.02381816320121","11.6","11","30","64","87","-23984","-2364","4836","1","150","149.45","114.88","34.57","25.20","49.9","14.00","90220","24.94","DUALSPOT-UV-BLUE-GREEN-RED-IR","790204","723141","905211","9.026423","2.486301","-0.002239","765350","916006","765873","6.778147","1.832204","-0.007527","860280","917509","815002","5.739367","1.511538","-0.011043","852605","937728","865181","4.676375","1.196253","-0.026700","734203","865677","955121","3.331609","0.869672","-0.044548","28400","27992","27837","28979","27952","27572","27959","26732","26293","27879","25576","24784","27738","25089","24153",""
"MA200-0416","20496","58","1","1.10","1.4","2023-05-07T08:27:04","120","2023/05/07","08:27:04","-15.785536587238312","35.026557160541415","9.7","11","30","64","87","-24019","-1446","5296","1","150","150.24","115.11","35.13","25.21","49.7","13.96","90152","24.94","DUALSPOT-UV-BLUE-GREEN-RED-IR","788423","722501","904863","9.206420","2.536810","-0.013607","763945","915308","765555","6.910153","1.867574","-0.029090","858963","916883","814688","5.848897","1.538414","-0.061983","851428","937135","864846","4.764631","1.218313","-0.067484","733511","865286","954814","3.391416","0.883391","-0.149205","9184","8444","8162","8501","7463","7078","7900","6351","5798","7692","6299","5820","7258","5454","4819",""
"MA200-0416","20497","58","1","1.10","1.4","2023-05-07T08:27:34","120","2023/05/07","08:27:34","-15.786521136760712","35.02899583056569","8.3","11","30","64","86","-24400","-3271","4568","1","150","150.03","114.96","35.07","25.21","49.6","13.92","90032","24.88","DUALSPOT-UV-BLUE-GREEN-RED-IR","790978","726092","910004","9.450818","2.603130","-0.019048","761033","912930","763944","7.089175","1.913433","-0.039705","856581","915334","813604","5.998970","1.576674","-0.047825","848106","934265","862436","4.883432","1.246912","-0.080935","731568","863523","953037","3.470615","0.900915","-0.170004","12487","11106","10582","11544","9693","9008","10838","9057","8422","10368","8181","7431","9624","6979","6052",""
"MA200-0416","20498","58","1","1.10","1.4","2023-05-07T08:28:04","120","2023/05/07","08:28:04","-15.786342859268188","35.03095499612391","9.9","11","30","64","87","-23907","-4484","5292","1","150","149.42","114.93","34.48","25.21","49.5","13.88","89940","24.88","DUALSPOT-UV-BLUE-GREEN-RED-IR","785970","721913","904942","9.547348","2.629680","-0.013604","761295","913662","764665","7.156606","1.931654","-0.022023","857815","916985","815163","6.055761","1.591069","-0.044036","850753","937440","865431","4.929406","1.256841","-0.122247","729269","860977","950268","3.501056","0.908230","-0.104977","4933","4522","4366","4349","3917","3757","4102","3465","3238","4013","2888","2504","3700","2963","2705",""
"MA200-0416","20499","58","1","1.10","1.4","2023-05-07T08:28:34","120","2023/05/07","08:28:34","-15.786565959453583","35.03315199166536","4.0","12","30","64","87","-24128","124","5272","1","150","149.32","114.72","34.59","25.21","49.3","13.84","89816","24.88","DUALSPOT-UV-BLUE-GREEN-RED-IR","785927","722201","905454","9.608000","2.647672","-0.002371","761810","914557","765464","7.196831","1.941751","-0.041338","857080","916439","814729","6.088669","1.599443","-0.044071","849801","936612","864731","4.955288","1.262808","-0.093189","732393","864795","954562","3.518627","0.911651","-0.260418","3105","3055","3036","2599","2164","2003","2381","2009","1877","2263","1730","1548","2139","1381","1116",""
"MA200-0416","20500","58","1","1.10","1.4","2023-05-07T08:29:04","120","2023/05/07","08:29:04","-15.787191689014435","35.035089157521725","1.7","12","30","64","86","-24212","-4248","4996","1","150","149.40","114.83","34.57","25.21","49.3","13.83","89656","24.88","DUALSPOT-UV-BLUE-GREEN-RED-IR","784765","721583","904920","9.683120","2.669002","-0.008801","761305","914350","765442","7.249354","1.955907","-0.023110","856490","916159","814606","6.132985","1.610946","-0.037491","849818","936937","865111","4.990580","1.271391","-0.069642","732322","864905","954713","3.542945","0.917256","-0.130648","3842","3623","3540","3390","3035","2904","3204","2762","2605","3083","2490","2288","2958","2264","2022",""
"MA200-0416","20501","58","1","1.10","1.4","2023-05-07T08:29:34","120","2023/05/07","08:29:34","-15.78715854883194","35.03517632931471","0.5","11","30","64","86","-24104","-3544","4071","1","150","149.61","114.88","34.73","25.21","49.4","13.85","89652","24.94","DUALSPOT-UV-BLUE-GREEN-RED-IR","784556","722086","905843","9.821837","2.705589","-0.021754","760625","914225","765507","7.354100","1.981174","-0.051991","856312","916550","815111","6.222994","1.631111","-0.086881","849214","936762","865105","5.062913","1.286733","-0.131711","732162","865023","954947","3.590814","0.927454","-0.184166","7092","6187","5843","6759","5393","4889","6505","4820","4222","6317","4432","3789","5821","4102","3503",""
"MA200-0416","20502","58","1","1.10","1.4","2023-05-07T08:30:04","120","2023/05/07","08:30:04","-15.787153482437134","35.035169661045074","0.0","12","30","64","86","-24528","-2016","3896","1","150","149.96","115.31","34.65","25.21","49.5","13.90","89652","24.94","DUALSPOT-UV-BLUE-GREEN-RED-IR","783331","722044","906205","10.014827","2.752224","-0.036921","754549","907919","760452","7.491769","2.008276","-0.118889","855733","916824","815524","6.339115","1.652533","-0.172349","849470","937776","866179","5.157624","1.304066","-0.212746","732308","865646","955726","3.651548","0.937325","-0.442365","9829","7905","7176","8850","5798","4681","8360","5133","3995","8240","5019","3929","7357","3979","2813",""
"MA200-0416","20503","58","1","1.10","1.4","2023-05-07T08:30:34","120","2023/05/07","08:30:34","-15.787151157855988","35.03516332805157","0.0","12","30","64","86","-24480","-1964","3664","1","150","150.01","114.66","35.35","25.22","49.6","13.93","89648","24.94","DUALSPOT-UV-BLUE-GREEN-RED-IR","783288","722305","906749","10.085851","2.772918","-0.008115","755107","908919","761376","7.543810","2.022176","-0.029591","855515","916877","815647","6.381423","1.662325","-0.079656","848813","937310","865759","5.191541","1.311976","-0.093143","732028","865460","955585","3.675382","0.942854","-0.135756","3638","3438","3363","3364","2915","2750","3063","2299","2031","2967","2244","2000","2903","2185","1937",""
"MA200-0416","20504","58","1","1.10","1.4","2023-05-07T08:31:04","120","2023/05/07","08:31:04","-15.787152171134949","35.035172160714865","0.1","12","30","64","86","-24468","-1984","3339","1","150","149.49","114.80","34.69","25.22","49.7","13.96","89648","25.00","DUALSPOT-UV-BLUE-GREEN-RED-IR","782650","722106","906702","10.156206","2.792867","-0.009134","755017","909097","761628","7.590455","2.034788","-0.022104","855246","916820","815687","6.419975","1.671678","-0.056581","849282","938047","866544","5.223778","1.318723","-0.133611","728400","861316","951029","3.698726","0.947368","-0.253616","3599","3378","3294","3012","2695","2579","2788","2238","2045","2817","1951","1659","2840","1817","1465",""
"MA200-0416","20505","58","1","1.10","1.4","2023-05-07T08:31:34","120","2023/05/07","08:31:34","-15.78715068101883","35.03517749160528","0.0","12","30","64","86","-24538","-1703","2942","1","150","150.36","115.16","35.20","25.22","49.7","13.97","89648","25.00","DUALSPOT-UV-BLUE-GREEN-RED-IR","783577","723419","908581","10.247628","2.821045","0.001092","755561","910247","762750","7.658455","2.053850","-0.016705","855793","917840","816723","6.479860","1.688122","-0.024624","843555","932070","861134","5.272415","1.332301","-0.024925","732709","866650","957011","3.733972","0.956728","-0.057446","4663","4701","4715","4377","4014","3881","4317","3878","3723","4237","3869","3745","4275","3714","3520",""
"MA200-0416","20506","58","1","1.10","1.4","2023-05-07T08:32:04","120","2023/05/07","08:32:04","-15.78715580701828","35.03516882658005","0.1","13","30","64","86","-24444","-1996","3523","1","150","149.80","114.92","34.88","25.24","49.8","14.00","0","0.00","DUALSPOT-UV-BLUE-GREEN-RED-IR","783338","723613","909056","10.333766","2.847427","0.001203","755381","910401","763010","7.720215","2.072273","-0.003115","855314","917687","816694","6.530726","1.701921","-0.025690","844492","933366","862427","5.313066","1.341641","-0.090646","728726","862140","952081","3.763990","0.964218","-0.083507","4402","4442","4457","3984","3915","3890","3674","3284","3146","3548","2686","2395","3648","2999","2776",""
"MA200-0416","20507","58","1","1.10","1.4","2023-05-07T08:32:34","120","2023/05/07","08:32:34","-15.787152647972107","35.03516365587711","0.0","13","30","64","86","-24540","-2040","3500","1","150","149.45","114.60","34.85","25.27","49.8","14.03","0","0.00","DUALSPOT-UV-BLUE-GREEN-RED-IR","783816","724413","910278","10.407451","2.870056","0.001302","755830","911309","763881","7.772712","2.087169","-0.012939","855641","918332","817350","6.574012","1.713604","-0.027272","845195","934408","863462","5.349508","1.350540","-0.066863","729530","863261","953385","3.789720","0.970089","-0.133141","3776","3814","3828","3396","3169","3085","3135","2783","2659","3190","2562","2349","3136","2353","2084",""
"MA200-0416","20508","58","1","1.10","1.4","2023-05-07T08:33:04","120","2023/05/07","08:33:04","-15.787151157855988","35.03517099097371","0.0","13","30","64","86","-24612","-1948","3787","1","150","149.59","114.96","34.63","25.30","49.8","14.05","89648","25.06","DUALSPOT-UV-BLUE-GREEN-RED-IR","778397","719739","904559","10.473406","2.890010","0.000572","755996","911784","764372","7.816693","2.098928","-0.023236","851801","914417","813958","6.610871","1.722234","-0.065182","846261","935813","864801","5.379238","1.356590","-0.142459","729906","863844","954099","3.810758","0.975132","-0.099378","3369","3384","3390","2836","2517","2400","2661","2069","1860","2594","1752","1468","2556","2033","1854",""
"MA200-0416","20509","58","1","1.10","1.4","2023-05-07T08:33:34","120","2023/05/07","08:33:34","-15.787142515182495","35.035177659243345","0.1","14","30","64","86","-24680","-1900","3284","1","150","150.14","114.88","35.27","25.32","49.7","14.06","89648","25.13","DUALSPOT-UV-BLUE-GREEN-RED-IR","777036","718821","903585","10.537215","2.908619","-0.007057","755663","911677","764363","7.859788","2.108787","-0.067982","850427","913191","812925","6.645244","1.729506","-0.109110","844487","934025","863209","5.406601","1.362628","-0.111476","728742","862625","952780","3.832883","0.979226","-0.298466","3262","3099","3036","2781","2072","1812","2484","1711","1440","2389","1717","1491","2690","1621","1254",""
"MA200-0416","20510","58","1","1.10","1.4","2023-05-07T08:34:04","120","2023/05/07","08:34:04","-15.787136137485504","35.03520232439041","0.0","14","30","64","86","-24488","-1988","3926","1","150","150.55","115.26","35.30","25.34","49.7","14.07","89648","25.13","DUALSPOT-UV-BLUE-GREEN-RED-IR","779309","721209","906746","10.597567","2.926841","-0.001866","752864","908559","761848","7.899356","2.120536","-0.005483","851876","914978","814566","6.677396","1.737612","-0.046994","847044","937050","866026","5.432107","1.368475","-0.093168","730084","864341","954723","3.850340","0.983875","-0.055108","3075","3032","3015","2544","2467","2439","2315","1906","1762","2220","1662","1474","2115","1840","1745",""
"MA200-0416","20511","58","1","1.10","1.4","2023-05-07T08:34:34","120","2023/05/07","08:34:34","-15.787144660949707","35.035191994160414","0.1","14","30","64","86","-24764","-1868","4388","1","150","150.24","115.18","35.06","25.37","49.6","14.07","0","0.00","DUALSPOT-UV-BLUE-GREEN-RED-IR","779570","721732","907582","10.656336","2.946045","0.008662","752824","908690","762023","7.934848","2.130275","-0.019600","852119","915418","815024","6.706298","1.745230","-0.032988","841452","931030","860543","5.454889","1.373017","-0.156802","730560","864969","955462","3.867332","0.987483","-0.176831","2996","3217","3301","2284","2059","1976","2083","1804","1705","1984","1299","1069","2060","1437","1223",""
"MA200-0416","20512","58","1","1.10","1.4","2023-05-07T08:35:04","120","2023/05/07","08:35:04","-15.78714269399643","35.03516682609916","0.1","14","30","64","86","-24512","-1996","3492","1","150","149.62","114.76","34.86","25.39","49.5","14.06","0","0.00","DUALSPOT-UV-BLUE-GREEN-RED-IR","777982","720554","906258","10.714344","2.964111","0.003161","751643","907556","761138","7.972176","2.140712","-0.015291","851176","914621","814368","6.736392","1.752638","-0.051140","840478","930104","859699","5.477590","1.378029","-0.104869","729745","864121","954559","3.885870","0.992104","-0.081566","2968","3044","3073","2411","2219","2149","2177","1764","1619","1984","1442","1260","2256","1852","1713",""
"MA200-0416","20513","58","1","1.10","1.4","2023-05-07T08:35:34","120","2023/05/07","08:35:34","-15.787141263484955","35.03516782820225","0.1","13","30","64","86","-24604","-2172","4320","1","150","149.57","114.96","34.61","25.42","49.4","14.05","89652","25.25","DUALSPOT-UV-BLUE-GREEN-RED-IR","781224","723836","910568","10.772790","2.982431","0.005000","754241","910936","764052","8.010532","2.151107","-0.019722","853118","916899","816492","6.766946","1.761055","-0.019193","843262","933344","862784","5.502187","1.384187","-0.052804","727651","861784","952043","3.904304","0.996200","-0.138946","2986","3109","3156","2473","2226","2136","2206","2018","1952","2146","1784","1663","2240","1653","1452",""
"MA200-0416","20514","58","1","1.10","1.4","2023-05-07T08:36:04","120","2023/05/07","08:36:04","-15.787132620811462","35.035167161375284","0.0","13","30","64","85","-24680","-2060","4044","1","150","150.11","115.07","35.04","25.45","49.4","14.07","89652","25.25","DUALSPOT-UV-BLUE-GREEN-RED-IR","775687","719046","904731","10.835232","3.001205","-0.001660","754704","911756","764797","8.048650","2.161502","-0.020721","853279","917315","816931","6.799418","1.768779","-0.061800","843853","934186","863588","5.526717","1.387727","-0.427202","728160","862500","952829","3.920818","0.998611","-0.591041","3187","3146","3131","2455","2198","2104","2342","1830","1649","2138","1013","636","2004","961","604",""
"MA200-0416","20515","58","1","1.10","1.4","2023-05-07T08:36:34","120","2023/05/07","08:36:34","-15.787120699882507","35.03516115620732","0.0","13","30","64","85","-24680","-2148","3832","1","150","149.73","115.11","34.63","25.47","49.3","14.07","89652","25.31","DUALSPOT-UV-BLUE-GREEN-RED-IR","773904","717715","903187","10.899341","3.020048","-0.003011","752834","909767","763230","8.091797","2.171772","-0.049368","852138","916347","816119","6.831361","1.775068","-0.128196","843116","933601","863073","5.552973","1.393181","-0.126820","727384","861712","952024","3.940399","1.003325","-0.092887","3271","3196","3167","2778","2198","1985","2303","1507","1228","2288","1580","1342","2376","1901","1739",""
"MA200-0416","20516","58","1","1.10","1.4","2023-05-07T08:37:04","120","2023/05/07","08:37:04","-15.787127375602722","35.03515099361539","0.1","13","30","64","86","-24396","-1792","4044","1","150","149.96","114.76","35.20","25.49","49.4","14.10","89652","25.31","DUALSPOT-UV-BLUE-GREEN-RED-IR","776210","720258","906632","10.977065","3.042297","-0.009286","750648","907474","761436","8.143136","2.185773","-0.021955","849157","913440","813600","6.875706","1.785195","-0.076678","845040","935992","865368","5.587513","1.400352","-0.135760","728841","863607","954161","3.966388","1.009818","-0.083623","3978","3712","3610","3316","2948","2813","3208","2388","2100","3019","2043","1717","3163","2576","2375",""
"MA200-0416","20517","58","1","1.10","1.4","2023-05-07T08:37:34","120","2023/05/07","08:37:34","-15.787117183208466","35.03515099361539","0.0","13","30","72","86","-24446","-2053","3919","1","150","150.21","114.92","35.30","25.52","49.3","14.11","89652","25.31","DUALSPOT-UV-BLUE-GREEN-RED-IR","776284","720733","907398","11.056685","3.066576","-0.000906","750637","907831","761847","8.197513","2.199821","-0.033839","853168","918068","817824","6.920374","1.796758","-0.038929","845804","937101","866436","5.624103","1.409113","-0.074042","631471","748387","826917","3.993116","1.016113","-0.113937","4069","4040","4029","3507","2950","2746","3227","2719","2542","3194","2490","2255","3249","2491","2233",""
"MA200-0416","20518","58","1","1.10","1.4","2023-05-07T08:38:04","120","2023/05/07","08:38:04","-15.78711998462677","35.03517699241638","0.1","13","30","64","86","-24548","-1968","3848","1","150","149.80","115.09","34.71","25.56","49.3","14.13","89656","25.38","DUALSPOT-UV-BLUE-GREEN-RED-IR","776771","721536","908639","11.130810","3.087680","-0.007554","751018","908618","762630","8.249754","2.213924","-0.020308","849014","913840","814141","6.961704","1.805789","-0.085141","846520","938144","867456","5.657555","1.415778","-0.146328","728921","864043","954769","4.018596","1.022753","-0.055518","3783","3571","3489","3365","3011","2882","2981","2159","1871","2916","1925","1595","3092","2672","2528",""
"MA200-0416","20519","58","1","1.10","1.4","2023-05-07T08:38:34","120","2023/05/07","08:38:34","-15.78712409734726","35.03518632799387","0.0","13","30","64","85","-24512","-1952","3928","1","150","150.36","114.92","35.44","25.58","49.2","14.15","89660","25.44","DUALSPOT-UV-BLUE-GREEN-RED-IR","776529","721667","909006","11.202251","3.111042","0.006873","750691","908550","762638","8.297214","2.228008","-0.006570","849333","914446","814753","7.000649","1.817178","-0.010735","841163","932401","862235","5.688538","1.423765","-0.049275","729447","864820","955709","4.042829","1.029181","-0.057175","3651","3871","3956","3061","2945","2903","2813","2668","2617","2704","2260","2112","2945","2533","2392",""
"MA200-0416","20520","58","1","1.10","1.4","2023-05-07T08:39:04","120","2023/05/07","08:39:04","-15.787125527858734","35.03519815951586","0.0","13","30","64","85","-24504","-2032","3932","1","150","149.90","115.12","34.78","25.60","49.2","14.16","89660","25.44","DUALSPOT-UV-BLUE-GREEN-RED-IR","777003","722446","910208","11.272587","3.132019","-0.001611","751362","909655","763662","8.342722","2.240133","-0.023089","849852","915278","815573","7.038200","1.825821","-0.067358","842051","933597","863399","5.717404","1.429480","-0.148696","729702","865273","956240","4.065277","1.033318","-0.269634","3588","3542","3524","2930","2584","2457","2708","2063","1837","2515","1648","1359","2724","1661","1299",""
"MA200-0416","20521","58","1","1.10","1.4","2023-05-07T08:39:34","120","2023/05/07","08:39:34","-15.787135004997253","35.035205993801355","0.0","13","30","64","85","-24476","-1992","3752","1","150","149.99","115.64","34.35","25.63","49.2","14.18","89660","25.44","DUALSPOT-UV-BLUE-GREEN-RED-IR","771978","718132","904905","11.340945","3.152748","0.002484","751977","910679","764603","8.385123","2.252554","-0.002290","849875","915536","815848","7.071865","1.834023","-0.045324","841863","933602","863440","5.745410","1.436037","-0.068497","724852","859639","950053","4.083086","1.037507","-0.094810","3472","3544","3572","2718","2680","2667","2416","1982","1830","2429","1915","1743","2151","1703","1550",""
"MA200-0416","20522","58","1","1.10","1.4","2023-05-07T08:40:04","120","2023/05/07","08:40:04","-15.787138998508453","35.03524415940046","0.1","13","30","64","85","-24540","-2040","3892","1","150","150.36","115.14","35.22","25.66","49.1","14.18","89660","25.50","DUALSPOT-UV-BLUE-GREEN-RED-IR","769656","716280","902724","11.401897","3.172187","0.004892","750221","908838","763136","8.424245","2.261619","-0.058841","848645","914479","814977","7.104827","1.842415","-0.041175","840860","932691","862652","5.769584","1.440359","-0.215146","724018","858780","949158","4.102132","1.041802","-0.132539","3109","3241","3292","2518","1908","1684","2376","1978","1838","2106","1231","939","2310","1703","1496",""
"MA200-0416","20523","58","1","1.10","1.4","2023-05-07T08:40:34","120","2023/05/07","08:40:34","-15.787141859531403","35.03525049239397","0.0","13","30","64","85","-24452","-2068","3648","1","150","149.32","114.92","34.40","25.68","49.0","14.17","89660","25.50","DUALSPOT-UV-BLUE-GREEN-RED-IR","772525","719257","906646","11.459614","3.187439","-0.016930","752564","911914","765823","8.462010","2.271551","-0.023537","849715","915820","816227","7.133246","1.848215","-0.105608","843209","935453","865210","5.792797","1.445144","-0.122329","725351","860482","951056","4.119323","1.046018","-0.077597","2950","2604","2470","2436","2140","2031","2053","1399","1171","2026","1395","1186","2089","1712","1583",""
"MA200-0416","20524","58","1","1.10","1.4","2023-05-07T08:41:04","120","2023/05/07","08:41:04","-15.787138998508453","35.035248160362244","0.0","13","30","64","85","-24368","-1796","3855","1","150","149.34","114.75","34.59","25.72","49.0","14.19","89664","25.56","DUALSPOT-UV-BLUE-GREEN-RED-IR","772631","719648","907298","11.517910","3.204538","-0.003345","752618","912243","766130","8.498674","2.280794","-0.033873","845912","911895","812773","7.163520","1.854521","-0.099709","844528","937113","866795","5.815894","1.448762","-0.305049","725999","861348","952054","4.136762","1.049194","-0.272889","2983","2903","2873","2368","1981","1839","2190","1513","1277","2019","1049","727","2122","1282","997",""
"MA200-0416","20525","58","1","1.10","1.4","2023-05-07T08:41:34","120","2023/05/07","08:41:34","-15.78713196516037","35.03523749113083","0.0","13","30","64","84","-24492","-2212","3828","1","150","147.77","114.88","32.89","25.75","49.0","14.24","89664","25.56","DUALSPOT-UV-BLUE-GREEN-RED-IR","771171","718571","906109","11.575483","3.221386","0.002554","747180","905894","760881","8.534587","2.289598","-0.028657","849086","915520","816062","7.192427","1.861417","-0.040400","842200","934696","864591","5.838689","1.453019","-0.147831","724412","859585","950120","4.153413","1.052434","-0.180908","2943","3008","3033","2317","1984","1862","2089","1740","1618","1990","1298","1068","2024","1376","1156",""
"MA200-0416","20526","58","1","1.10","1.4","2023-05-07T08:42:04","120","2023/05/07","08:42:04","-15.787138164043427","35.03522649034858","0.1","13","30","64","85","-24456","-2080","3536","1","150","150.05","115.03","35.02","25.76","49.0","14.24","89664","25.56","DUALSPOT-UV-BLUE-GREEN-RED-IR","773424","720949","909255","11.630777","3.238584","0.002509","748920","908204","762903","8.567756","2.298069","-0.032961","846304","912747","813654","7.220132","1.867699","-0.072705","838494","930738","860973","5.860034","1.456898","-0.197285","726309","861962","952812","4.169048","1.055637","-0.187025","2823","2884","2908","2137","1793","1666","1999","1489","1311","1861","1111","863","1898","1277","1066",""
"MA200-0416","20527","58","1","1.10","1.4","2023-05-07T08:42:34","120","2023/05/07","08:42:34","-15.787134349346161","35.03523115813732","0.0","13","30","64","85","-24372","-2024","3487","1","150","149.70","114.96","34.74","25.79","49.1","14.29","89668","25.63","DUALSPOT-UV-BLUE-GREEN-RED-IR","773468","721469","910169","11.715187","3.263334","-0.003675","749226","909036","763714","8.627990","2.313089","-0.036381","845655","912412","813443","7.268120","1.878905","-0.060829","838893","931508","861760","5.898598","1.463986","-0.184588","726131","861965","952879","4.199501","1.062490","-0.123674","4312","4184","4134","3884","3205","2956","3465","2677","2403","3365","2046","1611","3700","2755","2435",""
"MA200-0416","20528","58","1","1.10","1.4","2023-05-07T08:43:04","120","2023/05/07","08:43:04","-15.787141859531403","35.03522815555334","0.0","13","30","64","85","-24480","-2016","3739","1","150","149.95","115.50","34.45","25.82","49.1","14.32","89668","25.63","DUALSPOT-UV-BLUE-GREEN-RED-IR","773658","722067","911142","11.803905","3.291296","0.006174","749232","909440","764197","8.690899","2.331142","-0.006280","846100","913237","814291","7.321478","1.893717","-0.014077","839396","932369","862663","5.942725","1.476133","-0.019224","726405","862496","953533","4.230963","1.070067","-0.082076","4511","4767","4866","4037","3884","3828","3835","3569","3477","3833","3537","3440","3805","3072","2824",""
"MA200-0416","20529","58","1","1.10","1.4","2023-05-07T08:43:34","120","2023/05/07","08:43:34","-15.787133872509003","35.035229325294495","0.0","13","30","64","85","-24564","-2052","3755","1","150","150.30","115.49","34.82","25.84","49.1","14.34","89668","25.69","DUALSPOT-UV-BLUE-GREEN-RED-IR","767654","716903","904860","11.890242","3.317215","-0.000491","749130","909715","764555","8.754043","2.350425","0.001994","846062","913521","814671","7.374013","1.907760","-0.024477","839637","932898","863232","5.986737","1.487643","-0.035778","726566","862888","954039","4.264263","1.079608","-0.016670","4391","4372","4365","4053","4105","4125","3776","3348","3199","3823","3316","3149","4028","3828","3760",""
"MA200-0416","20530","58","1","1.10","1.4","2023-05-07T08:44:04","120","2023/05/07","08:44:04","-15.787120819091797","35.03523198887706","0.1","13","30","64","85","-24628","-2084","3916","1","150","149.95","114.99","34.96","25.89","49.1","14.39","89672","25.69","DUALSPOT-UV-BLUE-GREEN-RED-IR","768339","717914","906370","11.965845","3.339830","-0.001909","749719","910745","765527","8.801462","2.361332","-0.056675","846248","914022","815191","7.415206","1.916343","-0.099398","840317","933956","864253","6.018668","1.493376","-0.198564","726864","863418","954680","4.289339","1.083957","-0.315226","3861","3799","3775","3057","2312","2039","2974","2038","1712","2786","1645","1269","3046","1737","1295",""
"MA200-0416","20531","58","1","1.10","1.4","2023-05-07T08:44:34","120","2023/05/07","08:44:34","-15.787124633789062","35.03522032126784","0.1","13","30","64","85","-24516","-2032","3839","1","150","150.55","115.49","35.07","25.91","49.1","14.42","89672","25.75","DUALSPOT-UV-BLUE-GREEN-RED-IR","768371","718409","907265","12.060865","3.368867","0.000725","745107","905572","761271","8.862119","2.378076","-0.016007","846705","914872","816046","7.462520","1.927698","-0.052826","841982","936085","866283","6.056042","1.500970","-0.129708","727291","864138","955525","4.316120","1.089864","-0.133794","4832","4863","4875","3893","3539","3409","3401","2688","2439","3246","2172","1818","3239","2353","2053",""
"MA200-0416","20532","58","1","1.10","1.4","2023-05-07T08:45:04","120","2023/05/07","08:45:04","-15.787119686603546","35.03522165864706","0.1","13","30","64","85","-24496","-1980","3739","1","150","149.76","114.60","35.17","25.94","49.2","14.47","89676","25.75","DUALSPOT-UV-BLUE-GREEN-RED-IR","768503","718883","908065","12.137949","3.392458","-0.000307","745058","905830","761591","8.910151","2.390825","-0.025399","846500","914914","816155","7.501984","1.938605","-0.020610","842229","936550","866771","6.086891","1.507903","-0.090748","727503","864519","955992","4.338405","1.095492","-0.071542","3950","3940","3936","3107","2687","2533","2859","2575","2476","2700","1977","1739","2716","2235","2073",""
"MA200-0416","20533","58","1","1.10","1.4","2023-05-07T08:45:34","120","2023/05/07","08:45:34","-15.787107288837433","35.03523449599743","0.0","13","30","64","85","-24600","-2116","3723","1","150","149.61","115.33","34.27","25.97","49.1","14.47","89676","25.81","DUALSPOT-UV-BLUE-GREEN-RED-IR","768892","719571","909093","12.203421","3.412548","0.003551","746247","907512","763095","8.950282","2.401643","-0.016231","846399","914981","816290","7.533551","1.945198","-0.088714","843009","937579","867786","6.111835","1.513398","-0.085675","723154","859477","950442","4.358799","1.099394","-0.208509","3334","3443","3485","2579","2340","2252","2272","1597","1362","2169","1608","1424","2470","1590","1294",""
"MA200-0416","20534","58","1","1.10","1.4","2023-05-07T08:46:04","120","2023/05/07","08:46:04","-15.78709727525711","35.03523499518633","0.1","13","30","64","85","-24440","-1976","3623","1","150","149.63","115.00","34.64","25.99","49.2","14.52","0","0.00","DUALSPOT-UV-BLUE-GREEN-RED-IR","768605","719791","909591","12.287453","3.436628","-0.005882","745687","907241","763000","9.009662","2.416532","-0.032945","846417","915413","816744","7.581336","1.956152","-0.062610","836826","931020","861803","6.151944","1.522529","-0.078047","727582","864916","956549","4.387949","1.106408","-0.083863","4292","4083","4002","3827","3186","2951","3449","2625","2339","3499","2645","2364","3541","2828","2588",""
"MA200-0416","20535","58","1","1.10","1.4","2023-05-07T08:46:34","120","2023/05/07","08:46:34","-15.787108778953552","35.03523099049926","0.1","12","30","64","84","-24512","-2084","3980","1","150","150.36","115.59","34.77","26.02","49.1","14.50","0","0.00","DUALSPOT-UV-BLUE-GREEN-RED-IR","766885","718540","908258","12.367275","3.461490","0.003809","744295","905919","761987","9.062329","2.431129","-0.013259","845370","914513","816068","7.625581","1.967389","-0.034803","834838","929063","860057","6.187919","1.530635","-0.080765","721929","858392","949394","4.415722","1.112657","-0.114939","4056","4200","4256","3377","3112","3015","3177","2683","2511","3122","2339","2081","3356","2511","2226",""
"MA200-0416","20536","58","1","1.10","1.4","2023-05-07T08:47:04","120","2023/05/07","08:47:04","-15.78711074590683","35.035226326435804","0.1","12","30","64","84","-24424","-2008","3748","1","150","150.68","115.60","35.08","26.05","49.0","14.50","89684","25.88","DUALSPOT-UV-BLUE-GREEN-RED-IR","762336","714601","903449","12.432602","3.481754","0.002400","745357","907445","763372","9.106196","2.443885","-0.006648","845445","914853","816427","7.662565","1.977491","-0.020310","835797","930304","861253","6.215001","1.535488","-0.191999","722527","859184","950312","4.436693","1.118181","-0.048328","3319","3392","3421","2813","2695","2652","2656","2390","2298","2350","1387","1071","2534","2199","2086",""
"MA200-0416","20537","58","1","1.10","1.4","2023-05-07T08:47:34","120","2023/05/07","08:47:34","-15.787114381790161","35.0352219901979","0.0","12","30","64","85","-24500","-2092","3823","1","150","150.29","115.43","34.86","26.08","49.0","14.52","89684","25.88","DUALSPOT-UV-BLUE-GREEN-RED-IR","764144","716634","906207","12.501957","3.502254","-0.002425","746897","909670","765306","9.151915","2.454876","-0.042228","842820","912239","814169","7.697613","1.984918","-0.087282","838453","933487","864251","6.243946","1.541251","-0.132226","724201","861363","952746","4.458240","1.122096","-0.255325","3528","3454","3425","2936","2337","2117","2520","1768","1507","2515","1658","1377","2607","1568","1219",""
"MA200-0416","20538","58","1","1.10","1.4","2023-05-07T08:48:04","120","2023/05/07","08:48:04","-15.787126362323761","35.03521465882659","0.0","12","30","64","84","-24528","-1903","3784","1","150","149.73","115.79","33.94","26.10","49.0","14.55","89680","25.94","DUALSPOT-UV-BLUE-GREEN-RED-IR","762763","715690","905185","12.571587","3.523258","0.003110","745731","908523","764447","9.195027","2.466713","-0.010272","841561","911128","813233","7.732589","1.993340","-0.040913","836887","931956","862861","6.270735","1.545626","-0.227206","722906","859947","951220","4.477142","1.126132","-0.127083","3531","3635","3675","2760","2585","2521","2507","2060","1905","2321","1293","957","2280","1661","1453",""
"MA200-0416","20539","58","1","1.10","1.4","2023-05-07T08:48:34","120","2023/05/07","08:48:34","-15.787130177021027","35.03521582111716","0.0","12","30","64","85","-24532","-2160","3592","1","150","149.33","115.24","34.09","26.13","48.9","14.55","89684","26.00","DUALSPOT-UV-BLUE-GREEN-RED-IR","764825","717917","908218","12.633434","3.543357","0.009534","743074","905501","761970","9.231729","2.477060","-0.007436","843208","913112","815070","7.761664","2.000457","-0.039024","839572","935129","865852","6.293266","1.551062","-0.051509","724184","861586","953076","4.493705","1.130682","-0.023488","3152","3463","3584","2361","2250","2209","2094","1733","1607","1961","1599","1481","2007","1864","1816",""
"MA200-0416","20540","58","1","1.10","1.4","2023-05-07T08:49:04","120","2023/05/07","08:49:04","-15.787137985229492","35.035199996083975","0.1","12","30","64","84","-24536","-2088","3816","1","150","149.80","115.33","34.46","26.16","48.9","14.55","89684","26.00","DUALSPOT-UV-BLUE-GREEN-RED-IR","764702","718075","908561","12.690605","3.560627","0.001177","743107","905773","762299","9.266071","2.486610","-0.011297","843439","913534","815466","7.788319","2.006262","-0.073877","834713","929817","861007","6.314671","1.556284","-0.051021","725085","862735","954362","4.509414","1.133964","-0.148875","2911","2943","2955","2207","2054","1998","1918","1398","1217","1861","1520","1408","1902","1330","1138",""
"MA200-0416","20541","58","1","1.10","1.4","2023-05-07T08:49:34","120","2023/05/07","08:49:34","-15.787145793437958","35.035175662487745","0.1","12","30","64","84","-24620","-2048","3707","1","150","149.73","114.95","34.78","26.19","48.7","14.53","89684","26.06","DUALSPOT-UV-BLUE-GREEN-RED-IR","766140","719714","910768","12.744665","3.577879","0.005554","744143","907275","763599","9.300633","2.495855","-0.020235","843792","914101","816029","7.815254","2.013457","-0.023977","835071","930368","861503","6.332637","1.558495","-0.582613","724974","862746","954417","4.524727","1.136153","-0.526750","2762","2913","2972","2228","1970","1875","1945","1717","1638","1568","637","334","1860","879","549",""
"MA200-0416","20542","58","1","1.10","1.4","2023-05-07T08:50:04","120","2023/05/07","08:50:04","-15.787146925926208","35.03517749160528","0.0","12","30","64","84","-24492","-2024","3912","1","150","149.86","115.33","34.53","26.22","48.6","14.52","89684","26.06","DUALSPOT-UV-BLUE-GREEN-RED-IR","766128","720005","911309","12.803219","3.594869","-0.003477","744226","907606","763965","9.336321","2.505510","-0.016221","843433","913961","815981","7.843638","2.018589","-0.145667","835437","930973","862099","6.356141","1.563609","-0.089373","725232","863141","954899","4.541755","1.141019","-0.014181","2981","2890","2854","2293","2073","1992","2043","1234","953","2044","1486","1303","2062","1969","1937",""
"MA200-0416","20543","58","1","1.10","1.4","2023-05-07T08:50:34","120","2023/05/07","08:50:34","-15.78715968132019","35.035165656358004","0.0","12","30","64","84","-24496","-2027","3755","1","150","149.90","115.71","34.18","26.24","48.5","14.51","89684","26.06","DUALSPOT-UV-BLUE-GREEN-RED-IR","760603","715106","905309","12.865068","3.614984","0.009564","744274","907885","764333","9.374262","2.515815","-0.013201","844073","914845","816845","7.875008","2.027804","-0.000966","835908","931689","862808","6.379713","1.567095","-0.306847","725307","863370","955202","4.558708","1.144515","-0.148297","3139","3456","3580","2430","2234","2163","2250","2238","2233","2043","1023","691","2046","1428","1221",""
"MA200-0416","20544","58","1","1.10","1.4","2023-05-07T08:51:04","120","2023/05/07","08:51:04","-15.787164628505707","35.0351699963212","0.0","12","30","64","84","-24488","-2027","3716","1","150","149.90","115.20","34.70","26.27","48.4","14.50","89688","26.13","DUALSPOT-UV-BLUE-GREEN-RED-IR","760674","715467","905931","12.925581","3.634269","0.005774","744580","908554","764921","9.413147","2.526889","-0.008569","843745","914719","816768","7.905704","2.035171","-0.047679","836487","932462","863561","6.402921","1.573020","-0.039583","725561","863794","955701","4.576278","1.148630","-0.092354","3085","3264","3334","2502","2365","2315","2212","1762","1606","2021","1712","1612","2130","1656","1497",""
"MA200-0416","20545","58","1","1.10","1.4","2023-05-07T08:51:34","120","2023/05/07","08:51:34","-15.787160277366638","35.03516215831041","0.1","12","30","64","84","-24569","-2066","3816","1","150","150.13","115.18","34.94","26.31","48.2","14.48","89688","26.13","DUALSPOT-UV-BLUE-GREEN-RED-IR","759221","714363","904655","12.980619","3.651687","0.004363","743380","907305","763973","9.448874","2.537178","-0.007900","842533","913578","815804","7.932563","2.041906","-0.038417","834994","930991","862250","6.425604","1.577586","-0.125313","724392","862500","954360","4.593782","1.152957","-0.071501","2806","2927","2975","2299","2182","2139","1935","1600","1483","1975","1310","1094","2122","1729","1597",""
"MA200-0416","20546","58","1","1.10","1.4","2023-05-07T08:52:04","120","2023/05/07","08:52:04","-15.787156105041504","35.03515999391675","0.1","12","30","64","84","-24384","-1868","3755","1","150","150.28","115.63","34.66","26.33","48.0","14.42","89688","26.19","DUALSPOT-UV-BLUE-GREEN-RED-IR","760667","715978","906866","13.030882","3.666938","0.001298","739809","903162","760526","9.479395","2.545278","-0.019572","844355","915741","817791","7.959754","2.049262","-0.018981","838291","934770","865797","6.445720","1.582843","-0.031720","722077","859803","951365","4.607904","1.156675","-0.042027","2553","2584","2597","1956","1732","1650","1952","1762","1696","1745","1521","1449","1706","1498","1429",""
"MA200-0416","20547","58","1","1.10","1.4","2023-05-07T08:52:34","120","2023/05/07","08:52:34","-15.787155449390411","35.03520265966654","0.1","12","30","64","84","-24448","-1668","3832","1","150","150.43","116.17","34.26","26.35","47.8","14.40","89684","26.19","DUALSPOT-UV-BLUE-GREEN-RED-IR","761517","717025","908298","13.078770","3.680799","-0.002018","740834","904587","761784","9.508846","2.553611","-0.006162","844136","915654","817766","7.982147","2.054709","-0.038652","837888","934465","865549","6.462170","1.584691","-0.706120","721736","859504","951046","4.621570","1.160395","-0.024743","2421","2376","2358","1879","1803","1775","1600","1320","1223","1420","541","255","1643","1517","1474",""
"MA200-0416","20548","58","1","1.10","1.4","2023-05-07T08:53:04","120","2023/05/07","08:53:04","-15.787145793437958","35.03521182388067","0.1","12","30","64","84","-24484","-2060","4007","1","150","149.61","115.79","33.82","26.37","47.7","14.39","89688","26.19","DUALSPOT-UV-BLUE-GREEN-RED-IR","761689","717412","908970","13.129196","3.696645","0.007289","740926","904905","762147","9.541077","2.561174","-0.038503","840205","911572","814158","8.007074","2.058870","-0.170157","838986","935854","866831","6.481345","1.587856","-0.209444","722241","860211","951883","4.635299","1.162692","-0.286319","2557","2752","2828","2063","1657","1509","1787","1021","756","1661","939","704","1656","948","711",""
"MA200-0416","20549","58","1","1.10","1.4","2023-05-07T08:53:34","120","2023/05/07","08:53:34","-15.787259042263031","35.035164158791304","0.0","12","30","64","84","-24108","-4384","6116","1","150","150.49","115.67","34.82","26.40","47.7","14.42","89692","26.25","DUALSPOT-UV-BLUE-GREEN-RED-IR","761664","717655","909413","13.182085","3.712593","0.000180","741476","905808","762945","9.574102","2.569835","-0.022307","839888","911399","814064","8.033067","2.065599","-0.028902","838775","935728","866764","6.501990","1.591921","-0.129960","722105","860105","951802","4.649313","1.165091","-0.291400","2685","2690","2691","2116","1844","1744","1865","1604","1514","1790","1171","970","1692","962","718",""
"MA200-0416","20550","58","1","1.10","1.4","2023-05-07T08:54:04","120","2023/05/07","08:54:04","-15.786965191364288","35.03444232419133","7.4","12","30","64","84","-23620","-3832","5760","1","150","149.80","115.30","34.50","26.42","47.6","14.39","89736","26.25","DUALSPOT-UV-BLUE-GREEN-RED-IR","762043","718287","910369","13.237165","3.729164","0.000566","741492","906069","763206","9.607630","2.578102","-0.032975","840288","911992","814639","8.058650","2.070731","-0.098939","838952","936129","867180","6.521590","1.595122","-0.231358","722202","860360","952069","4.664053","1.167901","-0.201333","2806","2821","2827","2155","1776","1637","1842","1234","1024","1705","930","679","1785","1137","921",""
"MA200-0416","20551","58","1","1.10","1.4","2023-05-07T08:54:34","120","2023/05/07","08:54:34","-15.786687731742859","35.03359616175294","0.6","12","30","64","84","-23676","-656","6440","1","150","149.96","115.47","34.49","26.45","47.4","14.36","89800","26.25","DUALSPOT-UV-BLUE-GREEN-RED-IR","760122","716746","908534","13.288570","3.744215","-0.002121","739646","903998","761554","9.637475","2.586870","-0.002370","839169","910965","813761","8.082599","2.077031","-0.023650","831841","928317","859976","6.540876","1.599914","-0.043731","721405","859473","951153","4.680399","1.172926","0.008081","2614","2563","2543","1916","1884","1873","1721","1516","1445","1675","1394","1302","1977","2035","2055",""
"MA200-0416","20552","58","1","1.10","1.4","2023-05-07T08:55:04","120","2023/05/07","08:55:04","-15.787494838237762","35.03578732535243","6.5","12","30","64","84","-23952","-4408","5364","1","150","149.63","115.04","34.60","26.46","47.2","14.29","89628","26.25","DUALSPOT-UV-BLUE-GREEN-RED-IR","761789","718562","910992","13.336681","3.759447","0.005133","741409","906372","763613","9.668408","2.596025","-0.002293","839747","911768","814543","8.107549","2.083182","-0.039494","833120","929907","861460","6.557649","1.602810","-0.196809","722024","860362","952145","4.693399","1.175710","-0.132950","2456","2586","2636","1993","1961","1950","1800","1476","1363","1462","840","638","1578","1124","972",""
"MA200-0416","20553","58","1","1.10","1.4","2023-05-07T08:55:34","120","2023/05/07","08:55:34","-15.787308394908905","35.03529715910554","6.2","12","30","64","84","-23844","-4248","5672","1","150","149.94","115.54","34.39","26.47","47.1","14.27","89684","26.25","DUALSPOT-UV-BLUE-GREEN-RED-IR","755514","712889","903947","13.390335","3.774875","-0.003706","740932","906016","763390","9.700850","2.604681","-0.017023","840110","912360","815088","8.133728","2.089476","-0.042909","834007","931018","862523","6.579246","1.607514","-0.083740","722685","861213","953130","4.708315","1.178785","-0.147698","2727","2634","2598","2081","1865","1786","1881","1519","1394","1875","1371","1209","1803","1248","1063",""
"MA200-0416","20554","58","1","1.10","1.4","2023-05-07T08:56:04","120","2023/05/07","08:56:04","-15.786872327327728","35.034252159297466","1.5","12","30","64","84","-24003","-4338","5550","1","150","150.13","115.64","34.48","26.49","46.9","14.24","89756","26.25","DUALSPOT-UV-BLUE-GREEN-RED-IR","760671","718004","910552","13.441090","3.792335","0.013114","740573","905759","763232","9.732602","2.613020","-0.020022","839544","911917","814758","8.158488","2.096009","-0.022493","833017","930040","861645","6.596496","1.611537","-0.061416","721888","860363","952218","4.722671","1.181714","-0.154169","2577","2973","3129","2035","1792","1703","1777","1572","1501","1496","1170","1065","1734","1186","1003",""
"MA200-0416","20555","58","1","1.10","1.4","2023-05-07T08:56:34","120","2023/05/07","08:56:34","-15.786661028862","35.0333711579442","4.6","12","30","64","84","-23888","-4240","4728","1","150","150.66","115.91","34.76","26.51","46.8","14.21","89812","26.25","DUALSPOT-UV-BLUE-GREEN-RED-IR","755311","713236","904632","13.490997","3.806654","-0.004750","740981","906464","763874","9.762731","2.621858","-0.003123","839771","912322","815153","8.181984","2.101934","-0.033276","832910","930077","861738","6.615449","1.615864","-0.069748","722226","860902","952829","4.735689","1.183863","-0.315532","2529","2419","2376","1926","1885","1869","1683","1415","1322","1640","1249","1122","1568","863","629",""
"MA200-0416","20556","58","1","1.10","1.4","2023-05-07T08:57:04","120","2023/05/07","08:57:04","-15.786482691764832","35.03215266019106","3.7","12","30","64","84","-23240","-4408","8160","1","150","150.49","115.43","35.06","26.52","46.7","14.19","89904","26.31","DUALSPOT-UV-BLUE-GREEN-RED-IR","760253","718123","910999","13.543264","3.822576","0.000317","740197","905737","763338","9.796801","2.630399","-0.031988","839782","912498","815407","8.207238","2.107668","-0.062682","833827","931250","862861","6.635776","1.619786","-0.140464","722246","860969","952938","4.749105","1.187560","-0.029732","2659","2667","2670","2188","1806","1665","1816","1357","1199","1766","1122","914","1623","1472","1422",""
"MA200-0416","20557","58","1","1.10","1.4","2023-05-07T08:57:34","120","2023/05/07","08:57:34","-15.785895347595215","35.032605327665806","3.9","12","30","64","84","-24172","-1084","4116","1","150","149.33","115.04","34.29","26.53","46.6","14.17","89832","26.31","DUALSPOT-UV-BLUE-GREEN-RED-IR","755446","713876","905719","13.596115","3.836835","-0.011199","740624","906467","764015","9.828989","2.638565","-0.026015","839770","912678","815584","8.235061","2.114528","-0.036775","834180","931783","863386","6.655638","1.623648","-0.127886","722434","861303","953356","4.763748","1.189523","-0.576858","2698","2442","2341","2074","1765","1651","2008","1661","1541","1732","1130","935","1778","799","474",""
"MA200-0416","20558","58","1","1.10","1.4","2023-05-07T08:58:04","120","2023/05/07","08:58:04","-15.786049902439117","35.03375666216016","4.3","12","30","64","84","-23776","-859","5736","1","150","149.32","114.99","34.32","26.55","46.5","14.16","89748","26.25","DUALSPOT-UV-BLUE-GREEN-RED-IR","754855","713567","905498","13.649050","3.854913","0.012253","741059","907208","764733","9.861705","2.649229","0.011330","839146","912156","815167","8.258916","2.121580","-0.001594","833595","931271","862943","6.674887","1.628959","-0.016658","722090","861004","953031","4.776951","1.191385","-0.495383","2703","3093","3246","2109","2303","2374","1722","1705","1699","1679","1552","1511","1603","757","476",""
"MA200-0416","20559","58","1","1.10","1.4","2023-05-07T08:58:34","120","2023/05/07","08:58:34","-15.786469221115112","35.034881327301264","5.5","12","30","64","83","-24428","-1144","3952","1","150","150.03","115.55","34.48","26.55","46.5","14.14","89680","26.31","DUALSPOT-UV-BLUE-GREEN-RED-IR","752931","712037","903664","13.699694","3.869163","-0.006286","738886","904765","762727","9.892535","2.657447","-0.017225","838297","911396","814561","8.284772","2.127987","-0.035628","832047","929670","861503","6.694967","1.633781","-0.051966","721071","859856","951796","4.791065","1.194948","-0.053834","2574","2427","2370","1977","1767","1689","1857","1543","1434","1743","1403","1293","1706","1443","1356",""
"MA200-0416","20560","58","1","1.10","1.4","2023-05-07T08:59:04","120","2023/05/07","08:59:04","-15.786706149578094","35.03583665937185","4.2","12","30","64","84","-23980","-1280","5948","1","150","149.83","115.16","34.67","26.57","46.4","14.15","89624","26.31","DUALSPOT-UV-BLUE-GREEN-RED-IR","754342","713699","906033","13.770977","3.891920","0.005623","740670","907208","764875","9.932534","2.668075","-0.019288","838681","912029","815173","8.317227","2.136690","-0.020780","833261","931209","862983","6.718359","1.637709","-0.209734","721601","860624","952681","4.808231","1.197943","-0.264694","3635","3854","3941","2574","2272","2160","2339","2083","1995","2038","1136","846","2082","1206","916",""
"MA200-0416","20561","58","1","1.10","1.4","2023-05-07T08:59:34","120","2023/05/07","08:59:34","-15.7857466340065","35.03601699322462","4.2","12","30","64","83","-23608","-3939","5428","1","150","150.43","115.31","35.11","26.58","46.3","14.13","89632","26.31","DUALSPOT-UV-BLUE-GREEN-RED-IR","754267","713948","906518","13.834805","3.912368","0.004906","740462","907210","764952","9.973029","2.680044","-0.004182","839350","912952","816100","8.345480","2.142561","-0.089366","833484","931612","863386","6.740842","1.644165","-0.012107","722168","861395","953557","4.824142","1.202562","-0.013727","3251","3420","3487","2603","2527","2499","2034","1388","1165","1956","1844","1808","1927","1837","1807",""
"MA200-0416","20562","58","1","1.10","1.4","2023-05-07T09:00:04","120","2023/05/07","09:00:04","-15.784956693649292","35.03523916006088","3.2","12","30","64","84","-23832","-5524","3987","1","150","150.25","114.97","35.27","26.60","46.2","14.11","89708","26.31","DUALSPOT-UV-BLUE-GREEN-RED-IR","753721","713719","906401","13.891306","3.928320","-0.009014","740172","907074","764918","10.007455","2.688747","-0.031664","838869","912649","815866","8.374406","2.151287","-0.002750","833315","931584","863416","6.761319","1.648491","-0.103426","721516","860696","952800","4.838354","1.205465","-0.165783","2886","2656","2565","2219","1829","1685","2088","2053","2041","1786","1230","1051","1726","1149","958",""
"MA200-0416","20563","58","1","1.10","1.4","2023-05-07T09:00:34","120","2023/05/07","09:00:34","-15.784368395805359","35.0351098254323","4.0","12","30","64","83","-23703","-2434","5580","1","150","150.16","115.35","34.81","26.61","46.2","14.10","89748","26.31","DUALSPOT-UV-BLUE-GREEN-RED-IR","751555","711914","904236","13.947268","3.945474","0.001560","738618","905382","763558","10.040401","2.698110","-0.008599","837056","910846","814282","8.400232","2.156591","-0.089666","831248","929388","861426","6.781922","1.652420","-0.139806","720158","859208","951186","4.853452","1.207985","-0.302393","2849","2894","2912","2117","1994","1949","1858","1265","1060","1791","1132","919","1828","1011","740",""
"MA200-0416","20564","58","1","1.10","1.4","2023-05-07T09:01:04","120","2023/05/07","09:01:04","-15.7839475274086","35.034778993576765","4.0","12","30","64","83","-24408","-1640","5156","1","150","150.36","115.56","34.80","26.61","46.2","14.09","89792","26.31","DUALSPOT-UV-BLUE-GREEN-RED-IR","752208","713448","906642","14.110851","3.993620","-0.002320","738512","906218","764580","10.173282","2.735376","-0.010209","837348","912023","815652","8.514590","2.187419","-0.019303","832908","931993","864061","6.875790","1.677871","-0.022094","721262","860975","953329","4.917885","1.224206","-0.056828","8314","8125","8050","8524","7937","7722","8215","7353","7056","8149","7336","7074","7788","6510","6087",""
"MA200-0416","20565","58","1","1.10","1.4","2023-05-07T09:01:34","120","2023/05/07","09:01:34","-15.784948587417603","35.03370966017246","5.1","12","30","64","84","-24480","-3128","4312","1","150","150.36","115.47","34.89","26.63","46.1","14.10","89760","26.31","DUALSPOT-UV-BLUE-GREEN-RED-IR","751752","713386","906802","14.204178","4.023601","0.005720","738812","906924","765306","10.240801","2.755188","-0.003997","836903","911802","815553","8.572049","2.205080","0.002674","832123","931332","863537","6.923086","1.690889","-0.019262","720865","860701","953058","4.950145","1.231584","-0.096609","4747","5047","5166","4334","4210","4164","4131","4203","4228","4109","3743","3625","3902","2954","2640",""
"MA200-0416","20566","58","1","1.10","1.4","2023-05-07T09:02:04","120","2023/05/07","09:02:04","-15.785392820835114","35.03395149856806","2.7","12","30","64","83","-23336","-724","5900","1","150","150.30","115.64","34.66","26.63","46.1","14.10","89728","26.31","DUALSPOT-UV-BLUE-GREEN-RED-IR","750663","712586","905931","14.253897","4.038755","0.001606","738575","906836","765298","10.272058","2.764497","-0.000857","836663","911727","815527","8.599073","2.211898","-0.031489","832168","931535","863763","6.942262","1.695639","-0.042963","720761","860651","953058","4.963712","1.235875","0.013752","2525","2567","2584","2003","1991","1986","1940","1633","1526","1663","1374","1281","1638","1729","1759",""
"MA200-0416","20567","58","1","1.10","1.4","2023-05-07T09:02:34","120","2023/05/07","09:02:34","-15.785755693912506","35.0351823233068","5.3","12","30","64","83","-24100","-2176","4884","1","150","150.24","115.26","34.98","26.64","46.1","14.10","89656","26.31","DUALSPOT-UV-BLUE-GREEN-RED-IR","751076","713247","906911","14.302633","4.053531","-0.000101","734048","901464","760845","10.303806","2.774089","-0.000603","836670","911911","815729","8.622611","2.217418","-0.051137","832601","932179","864410","6.961851","1.698596","-0.285082","720744","860699","953153","4.976604","1.239240","-0.045976","2483","2481","2480","2042","2032","2029","1695","1310","1176","1705","847","571","1562","1344","1271",""
"MA200-0416","20568","58","1","1.10","1.4","2023-05-07T09:03:04","120","2023/05/07","09:03:04","-15.785815834999084","35.03613032400608","5.1","12","30","64","83","-24684","-2592","4652","1","150","147.77","114.00","33.77","26.65","46.0","14.08","89628","26.38","DUALSPOT-UV-BLUE-GREEN-RED-IR","749487","712021","905527","14.363287","4.073072","0.007590","736923","905270","764131","10.342537","2.784401","-0.015544","835630","910983","815001","8.653612","2.226597","-0.000057","830233","929701","862186","6.985219","1.705432","-0.002362","719602","859488","951831","4.993774","1.242171","-0.259113","3124","3398","3507","2518","2263","2169","2257","2256","2256","2056","2031","2023","2103","1212","917",""
"MA200-0416","20569","58","1","1.10","1.4","2023-05-07T09:03:34","120","2023/05/07","09:03:34","-15.785637736320496","35.03666999191046","0.1","12","30","64","83","-23836","-2904","6260","1","150","149.42","115.57","33.85","26.66","46.0","14.09","89640","26.38","DUALSPOT-UV-BLUE-GREEN-RED-IR","750578","713737","908081","14.472393","4.106292","0.003626","738196","907347","766073","10.410813","2.805118","0.004525","836647","912475","816484","8.706934","2.241611","-0.006293","832214","932226","864600","7.025086","1.715666","-0.027796","721249","861638","954268","5.021465","1.249089","-0.048423","5545","5765","5852","4379","4537","4596","3830","3682","3631","3460","3033","2895","3347","2855","2692",""
"MA200-0416","20570","58","1","1.10","1.4","2023-05-07T09:04:04","120","2023/05/07","09:04:04","-15.785623371601105","35.03668015822768","0.0","12","30","64","83","-23984","-2924","5948","1","150","149.80","115.11","34.69","26.67","46.0","14.09","89636","26.38","DUALSPOT-UV-BLUE-GREEN-RED-IR","748840","713354","908350","14.764244","4.198007","0.003816","732228","900998","761088","10.585042","2.857267","-0.000895","835481","912011","816357","8.841956","2.280468","-0.007322","831968","932558","865143","7.125430","1.743913","-0.013428","720551","861136","953881","5.082460","1.265606","-0.030730","14892","15528","15781","11221","11144","11115","9738","9299","9146","8746","8169","7982","7402","6651","6402",""
"MA200-0416","20571","58","1","1.10","1.4","2023-05-07T09:04:34","120","2023/05/07","09:04:34","-15.785613000392914","35.03667216002941","0.1","12","30","64","83","-23656","-2900","5972","1","150","149.51","115.47","34.03","26.69","45.9","14.08","89644","26.38","DUALSPOT-UV-BLUE-GREEN-RED-IR","747293","713194","908882","14.863899","4.230907","0.009678","731381","900862","761256","10.647125","2.876787","0.007881","835415","912534","817038","8.889194","2.295345","0.009532","832073","933122","865826","7.161621","1.753962","-0.011575","720707","861621","954532","5.108530","1.272725","-0.021248","5068","5678","5920","3985","4252","4350","3396","3629","3710","3144","2962","2903","3153","2921","2844",""
"MA200-0416","20572","58","1","1.10","1.4","2023-05-07T09:05:04","120","2023/05/07","09:05:04","-15.785616278648376","35.036685325205326","0.0","12","30","64","83","-23928","-2900","6692","1","150","150.28","115.42","34.86","26.70","45.9","14.10","0","0.00","DUALSPOT-UV-BLUE-GREEN-RED-IR","742097","711514","908841","15.667595","4.491701","0.006016","729477","900704","761848","11.028482","2.980274","-0.014674","832741","911473","816639","9.176899","2.365726","-0.037535","830611","932953","866048","7.375472","1.802534","-0.066280","719827","861502","954626","5.245699","1.300025","-0.158211","40899","43935","45155","24494","22004","21082","20695","16759","15393","18588","13977","12485","16602","10938","9072",""
"MA200-0416","20573","58","1","1.10","1.4","2023-05-07T09:05:34","120","2023/05/07","09:05:34","-15.785623013973236","35.03670232370496","0.0","12","30","64","83","-23960","-3172","5628","1","150","149.66","115.17","34.49","26.71","46.1","14.16","0","0.00","DUALSPOT-UV-BLUE-GREEN-RED-IR","739552","711105","909450","16.040461","4.607408","0.003012","728339","900714","762312","11.233045","3.039085","-0.005168","831759","911439","816952","9.328944","2.408040","-0.011300","830203","933270","866595","7.485884","1.831985","-0.022615","719439","861442","954745","5.314724","1.317513","-0.048445","19016","19704","19981","13167","12640","12445","10960","10185","9915","9618","8566","8225","8372","7083","6658",""
"MA200-0416","20574","58","1","1.10","1.4","2023-05-07T09:06:04","120","2023/05/07","09:06:04","-15.785618722438812","35.03670532256365","0.1","12","30","64","83","-23812","-3068","5756","1","150","149.92","114.95","34.97","26.73","46.3","14.24","89640","26.50","DUALSPOT-UV-BLUE-GREEN-RED-IR","737423","710248","909036","16.343761","4.700805","0.001037","727124","900052","762050","11.391649","3.083252","-0.011516","830735","910983","816731","9.444232","2.437794","-0.027188","822466","925056","859116","7.565425","1.851881","-0.040676","718397","860469","953732","5.359123","1.326273","-0.163447","15497","15687","15764","10228","9363","9042","8326","7064","6625","6942","5708","5308","5395","3499","2876",""
"MA200-0416","20575","58","1","1.10","1.4","2023-05-07T09:06:34","120","2023/05/07","09:06:34","-15.785609900951385","35.03668932616711","0.0","12","30","64","83","-23707","-3073","5003","1","150","149.73","114.99","34.74","26.75","46.5","14.32","89644","26.50","DUALSPOT-UV-BLUE-GREEN-RED-IR","729457","705886","905294","16.940350","4.882345","0.000592","726662","901611","764010","11.684622","3.163467","-0.012623","826174","907510","814115","9.652568","2.492118","-0.023453","823948","927797","862008","7.706578","1.885397","-0.051321","715445","857519","950633","5.439930","1.346015","-0.062670","30472","30692","30781","18887","17117","16459","15041","12982","12265","12315","9678","8824","9816","7938","7320",""
"MA200-0416","20576","58","1","1.10","1.4","2023-05-07T09:07:04","120","2023/05/07","09:07:04","-15.785603821277618","35.036666322499514","0.0","12","30","64","83","-23991","-3058","6837","1","150","150.20","115.10","35.10","26.78","46.7","14.43","89640","26.56","DUALSPOT-UV-BLUE-GREEN-RED-IR","728916","706620","906950","17.285402","4.986614","-0.000761","726127","901874","764548","11.861639","3.212385","-0.012469","826176","908186","814934","9.781290","2.525193","-0.027565","825638","930262","864421","7.798273","1.905996","-0.068645","716143","858628","952002","5.493547","1.357500","-0.119084","17608","17446","17380","11401","10330","9932","9285","7822","7313","7993","5887","5206","6507","4570","3934",""
"MA200-0416","20577","58","1","1.10","1.4","2023-05-07T09:07:34","120","2023/05/07","09:07:34","-15.785454034805298","35.03683865815401","3.3","12","30","64","83","-24696","-2784","5256","1","150","149.45","115.00","34.45","26.80","46.9","14.51","89644","26.63","DUALSPOT-UV-BLUE-GREEN-RED-IR","728375","706691","907487","17.439334","5.035263","0.004115","726875","903291","765897","11.949072","3.236030","-0.012875","825738","908097","814964","9.847486","2.540755","-0.041496","825257","930125","864391","7.846069","1.916957","-0.057317","715918","858564","951952","5.525116","1.363818","-0.142603","7862","8294","8470","5636","5088","4884","4779","3750","3392","4169","3192","2876","3834","2562","2144",""
"MA200-0416","20578","58","1","1.10","1.4","2023-05-07T09:08:04","120","2023/05/07","09:08:04","-15.784841179847717","35.03683248907328","3.1","12","30","64","83","-24048","-5676","3736","1","150","149.47","114.80","34.67","26.82","46.7","14.47","89692","26.63","DUALSPOT-UV-BLUE-GREEN-RED-IR","728922","707373","908397","17.470410","5.048151","0.019712","722701","898216","761667","11.974021","3.245491","0.021691","825996","908525","815415","9.867490","2.548027","0.021850","826022","931088","865322","7.862826","1.921833","-0.006441","716182","858967","952444","5.538309","1.367466","-0.022772","1589","2183","2424","1611","2023","2176","1446","1741","1844","1464","1411","1393","1605","1469","1425",""
"MA200-0416","20579","58","1","1.10","1.4","2023-05-07T09:08:34","120","2023/05/07","09:08:34","-15.784388244152069","35.036384992301464","3.3","12","30","64","82","-23948","-3804","4092","1","150","149.90","114.84","35.06","26.84","46.5","14.43","89740","26.63","DUALSPOT-UV-BLUE-GREEN-RED-IR","726893","705713","906496","17.529894","5.066307","-0.000018","721032","896457","760307","12.018769","3.257650","-0.014777","824990","907693","814734","9.903879","2.557027","-0.034712","824831","929949","864336","7.892238","1.929260","-0.037604","715269","858005","951425","5.560776","1.372278","-0.117977","3042","3041","3041","2888","2571","2453","2630","2131","1957","2569","2125","1981","2732","1917","1650",""
"MA200-0416","20580","58","1","1.10","1.4","2023-05-07T09:09:04","120","2023/05/07","09:09:04","-15.78382670879364","35.03579032421112","2.3","12","30","64","83","-23804","-6488","5024","1","150","149.45","115.43","34.01","26.85","46.3","14.37","0","0.00","DUALSPOT-UV-BLUE-GREEN-RED-IR","729010","707994","909514","17.578440","5.083463","0.012465","722507","898507","762091","12.055289","3.268671","0.002665","826113","909090","816067","9.934074","2.566201","0.004048","826730","932246","866503","7.913589","1.933843","-0.070835","716414","859500","953120","5.577699","1.376719","-0.030448","2470","2962","3163","2345","2402","2423","2171","2239","2262","1855","1351","1189","2048","1824","1750",""
"MA200-0416","20581","58","1","1.10","1.4","2023-05-07T09:09:34","120","2023/05/07","09:09:34","-15.783549964427948","35.03550016134977","1.4","12","30","64","83","-24288","-4572","4420","1","150","150.41","115.29","35.12","26.87","46.1","14.32","0","0.00","DUALSPOT-UV-BLUE-GREEN-RED-IR","727961","707118","908505","17.612546","5.096126","0.013373","721780","897747","761536","12.081018","3.276477","-0.000441","825400","908475","815570","9.955789","2.571654","-0.031140","825545","931075","865427","7.931620","1.938051","-0.056482","715601","858622","952182","5.589832","1.379866","-0.043903","1737","2117","2272","1654","1648","1645","1563","1289","1193","1569","1202","1083","1470","1251","1180",""
"MA200-0416","20582","58","1","1.10","1.4","2023-05-07T09:10:04","120","2023/05/07","09:10:04","-15.782945215702057","35.035825323313475","4.5","12","30","64","83","-24168","-2780","4224","1","150","150.49","115.50","34.99","26.90","46.1","14.32","89856","26.75","DUALSPOT-UV-BLUE-GREEN-RED-IR","730380","709618","911846","17.643300","5.105880","0.003516","723721","900300","763738","12.104579","3.284053","0.006428","826615","909922","816896","9.973866","2.575195","-0.091230","822201","927388","862025","7.945016","1.939804","-0.381074","717053","860410","954193","5.600916","1.381399","-0.462544","1563","1637","1667","1512","1605","1639","1299","840","680","1163","502","288","1340","611","373",""
"MA200-0416","20583","58","1","1.10","1.4","2023-05-07T09:10:34","120","2023/05/07","09:10:34","-15.78223603963852","35.03657015413046","4.5","12","30","64","82","-23468","-1144","4012","1","150","149.61","115.07","34.54","26.93","45.8","14.26","89820","26.75","DUALSPOT-UV-BLUE-GREEN-RED-IR","724981","704509","905379","17.680168","5.118288","0.008240","724250","901110","764529","12.127841","3.292011","0.013262","822696","905702","813156","9.990538","2.580595","0.009642","822707","928036","862659","7.959615","1.943928","-0.010584","717514","861037","954873","5.612211","1.383488","-0.184884","1881","2109","2202","1498","1707","1785","1202","1297","1331","1272","1198","1173","1371","845","672",""
"MA200-0416","20584","58","1","1.10","1.4","2023-05-07T09:11:04","120","2023/05/07","09:11:04","-15.782200038433075","35.03719399124384","4.2","12","30","64","82","-24008","1200","4920","1","150","150.49","115.26","35.23","26.95","45.5","14.17","89768","26.75","DUALSPOT-UV-BLUE-GREEN-RED-IR","723755","703697","904575","17.761020","5.146648","0.009685","722808","899635","763330","12.173515","3.304498","-0.013919","825837","909423","816568","10.029257","2.591681","-0.009299","821211","926544","861309","7.984055","1.949603","-0.058429","716524","859974","953725","5.627859","1.387243","-0.070950","4120","4728","4976","2937","2627","2512","2788","2612","2551","2127","1615","1450","1896","1488","1355",""
"MA200-0416","20585","58","1","1.10","1.4","2023-05-07T09:11:34","120","2023/05/07","09:11:34","-15.782690465450287","35.03787065297365","3.5","12","30","64","82","-23530","419","7130","1","150","150.08","115.21","34.87","26.97","45.3","14.13","89664","26.81","DUALSPOT-UV-BLUE-GREEN-RED-IR","725297","705367","906815","17.793242","5.156610","0.001665","724148","901442","764916","12.195145","3.310400","-0.012803","822890","906288","813773","10.044409","2.594692","-0.085826","823760","929495","864085","7.996621","1.952040","-0.113049","717742","861511","955485","5.637853","1.389067","-0.197256","1642","1678","1692","1391","1254","1203","1091","716","586","1094","701","574","1211","730","573",""
"MA200-0416","20586","58","1","1.10","1.4","2023-05-07T09:12:04","120","2023/05/07","09:12:04","-15.782608687877655","35.03879299387336","2.1","12","30","64","82","-23564","-1694","6505","1","150","149.44","114.59","34.85","26.99","45.2","14.10","89600","26.81","DUALSPOT-UV-BLUE-GREEN-RED-IR","724027","704363","905654","17.835786","5.171386","0.009336","723141","900338","764029","12.222334","3.317642","-0.016827","821498","904929","812606","10.066730","2.599066","-0.091505","821811","927422","862192","8.011827","1.954055","-0.367478","716713","860364","954199","5.648870","1.392056","-0.029631","2180","2490","2616","1759","1540","1459","1617","1042","841","1331","579","337","1343","1197","1150",""
"MA200-0416","20587","58","1","1.10","1.4","2023-05-07T09:12:34","120","2023/05/07","09:12:34","-15.781453371047974","35.038844492286444","4.8","12","30","64","82","-24424","-1811","4464","1","150","149.53","115.12","34.41","27.01","45.0","14.06","89632","26.81","DUALSPOT-UV-BLUE-GREEN-RED-IR","723364","705284","907819","18.158182","5.272217","0.003385","722309","901042","765236","12.484044","3.395628","-0.000324","821545","906460","814518","10.294068","2.665842","-0.002307","823532","930642","865643","8.198096","2.005762","-0.012689","712925","856678","950469","5.783935","1.427983","-0.029564","16449","17213","17526","16853","16803","16785","16395","16113","16015","16233","15077","14703","16389","14587","13996",""
"MA200-0416","20588","58","1","1.10","1.4","2023-05-07T09:13:04","120","2023/05/07","09:13:04","-15.78009158372879","35.03913049399853","3.0","12","30","64","82","-23312","-6064","5248","1","150","149.87","114.67","35.20","27.02","44.8","14.01","0","0.00","DUALSPOT-UV-BLUE-GREEN-RED-IR","722923","705582","908557","18.284108","5.307737","-0.007053","717950","896204","761317","12.566879","3.417408","-0.019523","820944","906316","814564","10.359688","2.681029","-0.047953","823080","930544","865657","8.248163","2.016241","-0.088206","712590","856515","950393","5.819481","1.435430","-0.125150","6450","5927","5713","5355","4587","4300","4750","3582","3174","4380","2986","2535","4330","2955","2505",""
"MA200-0416","20589","58","1","1.10","1.4","2023-05-07T09:13:34","120","2023/05/07","09:13:34","-15.779033362865448","35.038892824202776","5.7","12","30","64","82","-23432","-4084","6116","1","150","149.90","114.92","34.98","27.05","44.7","13.97","0","0.00","DUALSPOT-UV-BLUE-GREEN-RED-IR","720148","703657","906526","18.442016","5.355680","-0.000195","720277","899971","764797","12.692318","3.452573","-0.009590","818818","904695","813347","10.464490","2.709061","-0.018694","820279","928013","863494","8.333081","2.038408","-0.027876","710910","854949","948785","5.882196","1.451409","-0.046934","8071","8050","8042","8092","7452","7214","7571","6653","6332","7413","6358","6016","7623","6381","5974",""
"MA200-0416","20590","58","1","1.10","1.4","2023-05-07T09:14:04","120","2023/05/07","09:14:04","-15.778301358222961","35.03821548447013","2.2","12","30","64","82","-23580","-2708","5684","1","150","149.37","115.03","34.34","27.06","44.5","13.93","89748","26.81","DUALSPOT-UV-BLUE-GREEN-RED-IR","719974","705139","909474","18.782226","5.467005","0.006349","715766","896096","762196","12.974142","3.540575","0.004573","817898","905275","814493","10.710598","2.782858","0.000542","820768","929964","865831","8.536869","2.096749","-0.006755","710973","855933","950319","6.029306","1.493964","-0.007157","17371","19039","19723","18162","18995","19308","17762","17839","17866","17774","17043","16805","17865","17309","17126",""
"MA200-0416","20591","58","1","1.10","1.4","2023-05-07T09:14:34","120","2023/05/07","09:14:34","-15.777894079685211","35.0376249961555","3.5","12","30","64","82","-24028","-1764","5804","1","150","149.63","114.76","34.87","27.08","44.4","13.91","89768","26.81","DUALSPOT-UV-BLUE-GREEN-RED-IR","719202","704975","909675","18.935830","5.517772","0.005811","715018","895842","762219","13.099775","3.579502","0.002005","817275","905184","814625","10.819365","2.815556","-0.001359","819855","929421","865540","8.627467","2.123296","-0.005767","714933","861058","956140","6.092823","1.509951","-0.048557","7861","8550","8833","8115","8274","8334","7868","7784","7754","7920","7637","7545","7731","6404","5966",""
"MA200-0416","20592","58","1","1.10","1.4","2023-05-07T09:15:04","120","2023/05/07","09:15:04","-15.778081834316254","35.03692615777254","4.1","12","30","64","82","-24680","-2464","4452","1","150","150.01","114.54","35.47","27.09","44.4","13.91","89788","26.81","DUALSPOT-UV-BLUE-GREEN-RED-IR","713463","703162","909808","19.721240","5.781843","0.005484","710757","894168","762245","13.681561","3.761339","0.000923","813348","904058","814823","11.309508","2.962166","-0.004283","816665","928503","865679","9.018081","2.235890","-0.011237","708520","855002","950142","6.357401","1.582477","-0.028386","40276","43729","45161","37655","38004","38137","35528","34317","33887","34215","31847","31067","32269","28564","27336",""
"MA200-0416","20593","58","1","1.10","1.4","2023-05-07T09:15:34","120","2023/05/07","09:15:34","-15.778419494628906","35.035511665046215","6.6","12","30","64","82","-24280","-2256","4196","1","150","150.29","114.96","35.34","27.11","44.3","13.92","89796","26.88","DUALSPOT-UV-BLUE-GREEN-RED-IR","713116","703401","910520","19.870494","5.834089","0.008264","710607","894528","762782","13.794525","3.796493","0.001223","813240","904390","815315","11.407167","2.990436","-0.007516","816960","929224","866490","9.096637","2.256090","-0.030534","708679","855474","950767","6.411548","1.596838","-0.034870","7626","8684","9124","7284","7375","7409","7053","6642","6496","6855","5735","5365","6580","5677","5377",""
"MA200-0416","20594","58","1","1.10","1.4","2023-05-07T09:16:04","120","2023/05/07","09:16:04","-15.778761088848114","35.0339919924736","5.2","12","30","64","82","-23484","-2926","5253","1","150","150.23","114.76","35.47","27.12","44.2","13.90","89756","26.88","DUALSPOT-UV-BLUE-GREEN-RED-IR","711970","702683","909874","19.978166","5.870659","0.006149","709771","893873","762348","13.862615","3.815788","-0.009355","812456","903880","814975","11.462524","3.006381","-0.008873","817315","929938","867219","9.140744","2.266663","-0.046520","708334","855237","950566","6.442337","1.603820","-0.085223","5510","6055","6282","4398","4032","3893","4004","3732","3635","3856","2990","2705","3747","2750","2419",""
"MA200-0416","20595","58","1","1.10","1.4","2023-05-07T09:16:34","120","2023/05/07","09:16:34","-15.779095113277435","35.03247433155775","6.3","12","30","64","82","-24060","-4732","5224","1","150","150.05","115.33","34.71","27.13","44.2","13.88","89804","26.88","DUALSPOT-UV-BLUE-GREEN-RED-IR","711993","703023","910471","20.042178","5.892368","0.007596","709682","894042","762610","13.911073","3.830677","0.002010","811992","903615","814828","11.502816","3.016800","-0.020520","816434","929111","866537","9.171371","2.274657","-0.023407","708179","855233","950598","6.464559","1.607849","-0.174043","3259","3673","3845","3114","3179","3204","2900","2491","2346","2664","2310","2193","2691","1621","1266",""
"MA200-0416","20596","58","1","1.10","1.4","2023-05-07T09:17:04","120","2023/05/07","09:17:04","-15.779526054859161","35.03081833012402","6.4","12","30","64","82","-23729","-3283","4725","1","150","149.73","115.17","34.56","27.14","44.1","13.87","89968","26.88","DUALSPOT-UV-BLUE-GREEN-RED-IR","711767","702998","910627","20.092002","5.909197","0.007514","709616","894198","762813","13.946625","3.840923","-0.004154","811847","903660","814939","11.533742","3.025311","-0.010970","816342","929187","866638","9.193564","2.279145","-0.083280","707946","855054","950420","6.480528","1.612882","0.009708","2541","2860","2992","2288","2197","2163","2229","2044","1979","1933","1302","1095","1936","2034","2066",""
"MA200-0416","20597","58","1","1.10","1.4","2023-05-07T09:17:34","120","2023/05/07","09:17:34","-15.780175566673279","35.02935182675719","6.0","12","30","64","82","-24224","-3964","5640","1","150","149.94","114.96","34.98","27.16","44.1","13.88","90028","26.88","DUALSPOT-UV-BLUE-GREEN-RED-IR","711424","703068","910977","20.172876","5.935724","0.004939","709350","894226","762957","13.998573","3.855758","-0.006603","812020","904174","815470","11.576204","3.035742","-0.030513","816248","929356","866872","9.228271","2.287818","-0.033763","708513","855860","951388","6.503574","1.618143","-0.076595","4132","4454","4589","3349","3144","3066","3066","2476","2266","3028","2487","2309","2800","2101","1869",""
"MA200-0416","20598","58","1","1.10","1.4","2023-05-07T09:18:04","120","2023/05/07","09:18:04","-15.78113329410553","35.028278494253755","4.4","12","30","64","82","-24244","-3780","4808","1","150","149.51","114.80","34.71","27.17","44.1","13.89","90116","26.88","DUALSPOT-UV-BLUE-GREEN-RED-IR","711089","703089","911211","20.244504","5.960119","0.007509","709249","894470","763260","14.050933","3.869062","-0.020103","811683","904060","815508","11.619943","3.047288","-0.017885","809802","922230","860266","9.261811","2.294994","-0.068624","707954","855360","950863","6.528597","1.623987","-0.066537","3664","4128","4321","3381","2841","2636","3163","2761","2618","2931","2074","1792","3044","2352","2122",""
"MA200-0416","20599","58","1","1.10","1.4","2023-05-07T09:18:34","120","2023/05/07","09:18:34","-15.78210461139679","35.02724132873118","6.4","12","30","64","82","-23312","-3468","5860","1","150","149.86","115.26","34.60","27.19","44.0","13.89","90168","26.88","DUALSPOT-UV-BLUE-GREEN-RED-IR","710935","703120","911375","20.292994","5.974779","0.000488","709256","894669","763504","14.085855","3.879797","0.002269","811409","903953","815425","11.648916","3.054881","-0.017856","816305","929776","867364","9.285204","2.300478","-0.044274","707814","855300","950853","6.545810","1.626400","-0.372842","2471","2488","2495","2246","2299","2320","2087","1821","1727","2036","1590","1443","2086","974","606",""
"MA200-0416","20600","58","1","1.10","1.4","2023-05-07T09:19:04","120","2023/05/07","09:19:04","-15.783228516578674","35.0260991640389","7.0","12","30","64","82","-23820","-4000","4504","1","150","149.90","114.68","35.22","27.20","44.0","13.87","90232","26.88","DUALSPOT-UV-BLUE-GREEN-RED-IR","705225","697672","904395","20.332840","5.988226","0.006046","708901","894400","763318","14.116515","3.887580","-0.022272","811165","903801","815359","11.674376","3.060960","-0.036963","816093","929675","867309","9.304598","2.304388","-0.090303","707864","855473","951036","6.559871","1.629844","-0.056140","2040","2242","2326","1982","1638","1507","1843","1433","1287","1696","1113","922","1712","1366","1251",""
"MA200-0416","20601","58","1","1.10","1.4","2023-05-07T09:19:34","120","2023/05/07","09:19:34","-15.784377872943878","35.02516549639404","4.0","12","30","64","82","-24380","-1384","4892","1","150","149.86","114.99","34.87","27.20","43.9","13.86","90300","26.88","DUALSPOT-UV-BLUE-GREEN-RED-IR","709820","702631","911108","20.403950","6.011127","0.003968","708530","894278","763335","14.160346","3.899747","-0.009333","810611","903548","815189","11.710929","3.069758","-0.033126","816051","929895","867575","9.333070","2.310235","-0.080467","707653","855348","950955","6.579538","1.633291","-0.194534","3632","3857","3952","2825","2586","2495","2639","2094","1901","2484","1682","1418","2389","1380","1047",""
"MA200-0416","20602","58","1","1.10","1.4","2023-05-07T09:20:04","120","2023/05/07","09:20:04","-15.785049498081207","35.025314996019006","6.3","12","30","64","82","-24046","-1253","5550","1","150","149.45","115.12","34.33","27.21","44.1","13.93","90248","26.88","DUALSPOT-UV-BLUE-GREEN-RED-IR","707096","700839","909105","20.567340","6.045820","-0.033498","706576","892662","762149","14.274583","3.922784","-0.056510","808799","902201","814142","11.800210","3.086412","-0.087206","807181","920325","858780","9.399294","2.323228","-0.088595","705968","853716","949234","6.631551","1.643309","-0.134152","8336","5935","4936","7356","4974","4071","6439","4027","3173","5771","3797","3149","6311","4076","3340",""
"MA200-0416","20603","58","1","1.10","1.4","2023-05-07T09:20:34","120","2023/05/07","09:20:34","-15.78563803434372","35.02681549452245","6.5","12","30","64","82","-24340","-1356","4964","1","150","150.16","115.08","35.08","27.23","44.1","13.95","90184","26.88","DUALSPOT-UV-BLUE-GREEN-RED-IR","703555","697619","905136","20.651734","6.073473","0.004636","707764","894507","763870","14.347168","3.947317","0.009082","809895","903707","815642","11.863169","3.106880","0.006949","809709","923464","861800","9.450652","2.336771","-0.023154","707272","855463","951282","6.671070","1.654589","-0.013890","4307","4629","4763","4675","5183","5376","4542","4843","4950","4477","3872","3673","4797","4491","4390",""
"MA200-0416","20604","58","1","1.10","1.4","2023-05-07T09:21:04","120","2023/05/07","09:21:04","-15.78629618883133","35.0284429974854","6.5","12","30","64","82","-23828","-1440","4924","1","150","149.59","115.17","34.42","27.24","44.0","13.93","90104","26.94","DUALSPOT-UV-BLUE-GREEN-RED-IR","703433","698072","906097","20.753812","6.108568","0.008461","707334","894582","764169","14.432438","3.973091","0.001062","809783","904137","816262","11.936727","3.128809","-0.000292","809318","923488","861998","9.509959","2.354086","-0.003338","707109","855616","951591","6.715267","1.665911","-0.034941","5206","5988","6314","5488","5550","5574","5302","5289","5284","5166","5046","5007","5360","4594","4342",""
"MA200-0416","20605","58","1","1.10","1.4","2023-05-07T09:21:34","120","2023/05/07","09:21:34","-15.786287069320679","35.02964732609689","5.1","12","30","64","82","-23780","-1352","4620","1","150","150.36","115.18","35.18","27.25","43.9","13.89","90032","26.94","DUALSPOT-UV-BLUE-GREEN-RED-IR","703237","698210","906510","20.845940","6.139038","0.005037","707175","894702","764450","14.507136","3.997909","0.007448","809430","904055","816300","12.001923","3.148133","-0.003489","809704","924209","862765","9.564346","2.369464","-0.011465","707441","856225","952307","6.755403","1.676136","-0.041955","4697","5086","5249","4807","5229","5390","4699","4560","4510","4737","4385","4269","4867","4059","3792",""
"MA200-0416","20606","58","1","1.10","1.4","2023-05-07T09:22:04","120","2023/05/07","09:22:04","-15.786338210105896","35.030790496617556","5.2","12","30","64","82","-23736","-788","5484","1","150","149.37","115.07","34.31","27.26","43.7","13.85","89984","26.94","DUALSPOT-UV-BLUE-GREEN-RED-IR","703502","698608","907091","20.875304","6.150015","0.012678","707452","895215","764924","14.529881","4.004663","-0.000398","809554","904355","816618","12.021772","3.154182","0.002429","809696","924325","862908","9.579615","2.372724","-0.063233","707116","855878","951981","6.765033","1.679130","0.007997","1498","1879","2038","1465","1459","1456","1432","1463","1475","1331","953","829","1169","1219","1236",""
"MA200-0416","20607","58","1","1.10","1.4","2023-05-07T09:22:34","120","2023/05/07","09:22:34","-15.786414444446564","35.03196466341615","3.8","12","30","64","82","-23924","-2428","5744","1","150","149.83","114.88","34.95","27.27","43.7","13.84","89940","27.00","DUALSPOT-UV-BLUE-GREEN-RED-IR","703141","698391","906883","20.901372","6.157644","-0.002736","707015","894818","764624","14.552002","4.011207","-0.002714","805410","899849","812551","12.040784","3.158414","-0.047482","810553","925400","863945","9.595039","2.376968","-0.015193","707505","856441","952628","6.777860","1.682764","-0.014909","1332","1282","1260","1427","1388","1373","1374","1005","874","1347","1218","1175","1559","1452","1416",""
"MA200-0416","20608","58","1","1.10","1.4","2023-05-07T09:23:04","120","2023/05/07","09:23:04","-15.786446332931519","35.03178533166647","7.9","12","30","64","82","-24820","-4320","4108","1","150","149.45","115.31","34.13","27.28","43.7","13.85","89940","26.94","DUALSPOT-UV-BLUE-GREEN-RED-IR","703248","698628","907312","20.931266","6.168342","0.010926","707389","895493","765270","14.576987","4.018146","-0.006404","809069","904103","816456","12.062855","3.163957","-0.021427","809708","924531","863160","9.610744","2.380788","-0.032262","707216","856150","952331","6.787775","1.684130","-0.361740","1522","1841","1974","1606","1506","1469","1589","1348","1262","1366","1123","1043","1201","559","347",""
"MA200-0416","20609","58","1","1.10","1.4","2023-05-07T09:23:34","120","2023/05/07","09:23:34","-15.786357343196869","35.03025549650192","4.2","12","30","64","81","-23156","-1376","5140","1","150","149.63","114.84","34.79","27.29","43.6","13.83","90024","26.94","DUALSPOT-UV-BLUE-GREEN-RED-IR","703760","699274","908227","20.958600","6.177953","0.008846","707616","895872","765622","14.599145","4.024385","-0.007388","809257","904399","816758","12.082224","3.169829","0.000064","810379","925421","864046","9.625830","2.383673","-0.099900","707471","856565","952800","6.800283","1.686807","-0.094224","1398","1622","1716","1430","1329","1291","1400","1401","1401","1317","831","671","1521","1074","927",""
"MA200-0416","20610","58","1","1.10","1.4","2023-05-07T09:24:04","120","2023/05/07","09:24:04","-15.786563158035278","35.02940332889557","0.0","13","30","64","82","-24412","-2804","4472","1","150","150.05","115.11","34.94","27.30","43.5","13.81","90072","27.00","DUALSPOT-UV-BLUE-GREEN-RED-IR","703364","698958","907892","20.982612","6.185095","-0.001415","707360","895723","765524","14.621022","4.030054","-0.017334","809842","905178","817525","12.100862","3.174508","-0.025337","811327","926606","865128","9.639698","2.386457","-0.085002","707786","856990","953325","6.810461","1.689963","0.004059","1225","1200","1189","1408","1202","1124","1344","1111","1028","1208","799","664","1235","1261","1270",""
"MA200-0416","20611","58","1","1.10","1.4","2023-05-07T09:24:34","120","2023/05/07","09:24:34","-15.786512196063995","35.02882032841444","10.7","12","30","64","82","-23696","-2212","5672","1","150","149.33","114.40","34.93","27.32","43.6","13.85","90072","27.06","DUALSPOT-UV-BLUE-GREEN-RED-IR","703586","699348","908471","21.010714","6.193996","0.002408","707574","896129","765935","14.643369","4.035329","-0.031132","805272","900168","813041","12.118083","3.178102","-0.061954","811048","926412","865006","9.654648","2.388836","-0.181248","707549","856801","953136","6.821573","1.691861","-0.207418","1442","1497","1519","1448","1119","994","1249","854","713","1311","683","476","1356","759","561",""
"MA200-0416","20612","58","1","1.10","1.4","2023-05-07T09:25:04","120","2023/05/07","09:25:04","-15.78505551815033","35.025173496454954","15.6","12","30","64","82","-24108","-3568","5100","1","150","149.83","114.76","35.07","27.35","43.5","13.85","90220","27.06","DUALSPOT-UV-BLUE-GREEN-RED-IR","678959","691843","910394","22.655044","6.744489","0.005280","681514","882463","762493","16.107365","4.507416","0.004414","782688","892476","813592","13.348200","3.563350","0.002446","786383","913703","859697","10.666607","2.696335","-0.000725","695112","852751","953915","7.594370","1.918482","-0.007539","84161","92192","95596","94573","99786","101812","88994","91196","91998","88471","87963","87792","94072","90265","88978",""
"MA200-0416","20613","58","1","1.10","1.4","2023-05-07T09:25:34","120","2023/05/07","09:25:34","-15.783743858337402","35.022739661857486","9.6","12","30","64","82","-24456","524","4820","1","150","149.80","114.72","35.07","27.37","43.5","13.86","90192","27.06","DUALSPOT-UV-BLUE-GREEN-RED-IR","675264","690762","911066","25.390706","7.709411","0.007126","677982","881066","762758","18.482192","5.308920","0.006893","778839","891153","813803","15.539681","4.280132","0.005666","789149","919749","866707","12.575726","3.302634","0.003984","692979","852220","954353","9.023996","2.354663","-0.000291","140058","161605","170999","153456","169424","175859","158591","169685","173902","166953","173446","175758","174079","173742","173623",""
"MA200-0416","20614","58","1","1.10","1.4","2023-05-07T09:26:04","120","2023/05/07","09:26:04","-15.780353367328644","35.02410649508238","15.8","12","30","64","81","-25336","-1188","2636","1","150","150.28","115.00","35.28","27.38","43.3","13.81","89992","27.06","DUALSPOT-UV-BLUE-GREEN-RED-IR","667800","684675","904239","25.747952","7.841972","0.008992","675916","880280","762981","18.815250","5.426067","0.009074","777052","890935","814484","15.843186","4.381323","0.006759","787184","919102","866861","12.839162","3.387892","0.005408","691793","851945","954703","9.224659","2.417250","0.002395","18245","22068","23742","21469","24614","25889","21910","23811","24538","22982","24244","24697","24375","24781","24925",""
"MA200-0416","20615","58","1","1.10","1.4","2023-05-07T09:26:34","120","2023/05/07","09:26:34","-15.778047978878021","35.023613162338734","1.9","12","30","64","81","-24136","-1696","5000","1","150","150.43","115.30","35.13","27.39","43.1","13.75","89948","27.06","DUALSPOT-UV-BLUE-GREEN-RED-IR","666946","684548","904690","25.918162","7.905184","0.009237","675245","880292","763409","18.969880","5.480289","0.009222","775637","890157","814153","15.983238","4.429019","0.008756","780687","912296","860759","12.959615","3.426635","0.005419","691173","851785","954739","9.318722","2.444957","-0.005078","8671","10567","11400","9942","11441","12050","10084","11271","11726","10481","11063","11273","11396","11017","10881",""
"MA200-0416","20616","58","1","1.10","1.4","2023-05-07T09:27:04","120","2023/05/07","09:27:04","-15.777711868286133","35.02352699637413","1.6","12","30","64","81","-24348","-3239","3580","1","150","149.83","114.72","35.11","27.41","43.0","13.74","89936","27.13","DUALSPOT-UV-BLUE-GREEN-RED-IR","666915","684761","905112","25.988162","7.929746","0.006697","674783","880011","763260","19.035412","5.500555","0.000755","776098","891001","815036","16.043842","4.448074","0.002269","782057","914178","862601","13.010942","3.440363","-0.015923","691605","852487","955617","9.358936","2.456529","-0.009436","3584","4108","4339","4234","4278","4296","4385","4505","4551","4488","3922","3718","4897","4603","4499",""
"MA200-0416","20617","58","1","1.10","1.4","2023-05-07T09:27:34","120","2023/05/07","09:27:34","-15.77734112739563","35.022654162719846","4.4","12","30","64","81","-24708","-2744","2848","1","150","149.73","114.84","34.89","27.43","43.1","13.77","89944","27.13","DUALSPOT-UV-BLUE-GREEN-RED-IR","666808","685197","906050","26.100542","7.967201","0.004690","675219","881234","764587","19.135032","5.531221","0.000950","775398","890749","815008","16.131191","4.472220","-0.008841","781300","913784","862417","13.084306","3.460986","-0.008655","691092","852190","955409","9.412724","2.470627","-0.024313","5747","6304","6549","6430","6515","6549","6314","5745","5526","6409","5929","5757","6542","5644","5324",""
"MA200-0416","20618","58","1","1.10","1.4","2023-05-07T09:28:04","120","2023/05/07","09:28:04","-15.776833891868591","35.021368162706494","5.3","12","30","64","81","-24288","-2872","5208","1","150","149.33","114.32","35.01","27.45","43.1","13.79","89956","27.19","DUALSPOT-UV-BLUE-GREEN-RED-IR","666328","684950","905927","26.173316","7.993294","0.007544","674471","880558","764107","19.200714","5.551397","0.000232","774941","890574","815003","16.193552","4.491455","0.000617","780565","913209","861968","13.135987","3.472936","-0.037972","686417","846670","949310","9.453220","2.480744","-0.035205","3739","4378","4659","4259","4272","4278","4528","4561","4574","4535","3425","3026","4948","4037","3712",""
"MA200-0416","20619","58","1","1.10","1.4","2023-05-07T09:28:34","120","2023/05/07","09:28:34","-15.776444494724274","35.020738661289215","1.3","12","30","64","81","-22892","-1500","8420","1","150","149.85","114.99","34.87","27.47","43.0","13.79","89960","27.25","DUALSPOT-UV-BLUE-GREEN-RED-IR","668574","687568","909577","26.233168","8.012733","0.003541","672299","878073","762119","19.253412","5.567390","0.000055","772008","887470","812253","16.238993","4.503262","-0.015207","783398","916807","865467","13.173379","3.483385","-0.009069","688095","848930","951908","9.481583","2.487722","-0.036242","3057","3274","3370","3397","3400","3401","3280","2811","2631","3262","3006","2914","3445","2795","2564",""
"MA200-0416","20620","58","1","1.10","1.4","2023-05-07T09:29:04","120","2023/05/07","09:29:04","-15.77578341960907","35.01988799311221","5.7","13","30","64","81","-23424","-204","7684","1","150","149.73","114.61","35.12","27.51","43.0","13.79","89900","27.31","DUALSPOT-UV-BLUE-GREEN-RED-IR","664024","683043","903691","26.276086","8.027637","0.006125","672596","878651","762682","19.288764","5.578190","-0.000224","776689","893065","817456","16.270943","4.512960","-0.000814","784873","918681","867297","13.198838","3.489596","-0.029058","688860","849977","953142","9.503593","2.493523","-0.024633","2199","2492","2621","2286","2279","2276","2314","2292","2284","2228","1774","1610","2682","2307","2173",""
"MA200-0416","20621","58","1","1.10","1.4","2023-05-07T09:29:34","120","2023/05/07","09:29:34","-15.774958848953247","35.018608493730426","5.6","13","30","64","81","-23832","-3396","5716","1","150","150.08","115.09","34.99","27.54","42.8","13.77","89888","27.31","DUALSPOT-UV-BLUE-GREEN-RED-IR","665486","684696","905994","26.306218","8.038713","0.008797","673835","880442","764268","19.315168","5.586195","-0.000213","773135","889158","813893","16.294720","4.519350","-0.011753","779734","912811","861780","13.219877","3.494871","-0.023666","689283","850599","953914","9.519188","2.497628","-0.023380","1537","1859","2000","1700","1695","1693","1715","1516","1439","1834","1512","1397","1892","1638","1548",""
"MA200-0416","20622","58","1","1.10","1.4","2023-05-07T09:30:04","120","2023/05/07","09:30:04","-15.773611307144165","35.01840099692345","4.3","13","30","64","81","-23696","-1220","7860","1","150","150.23","114.24","35.99","27.57","42.8","13.78","89832","27.38","DUALSPOT-UV-BLUE-GREEN-RED-IR","666722","686087","907943","26.338874","8.051059","0.008496","673911","880703","764593","19.342794","5.595033","0.001124","774026","890322","815051","16.319683","4.525274","-0.031735","781760","915323","864171","13.237388","3.497499","-0.186278","690146","851799","955242","9.534973","2.500795","-0.101621","1679","2015","2163","1792","1821","1832","1814","1366","1195","1537","732","443","1930","1229","980",""
"MA200-0416","20623","58","1","1.10","1.4","2023-05-07T09:30:34","120","2023/05/07","09:30:34","-15.773459553718567","35.01733999885619","5.6","13","30","64","81","-23948","-3939","5348","1","150","149.64","114.77","34.86","27.60","42.7","13.80","89832","27.44","DUALSPOT-UV-BLUE-GREEN-RED-IR","665633","685089","906724","26.362204","8.059393","0.007673","673784","880674","764614","19.364478","5.601257","-0.004343","773173","889438","814252","16.336416","4.528803","-0.044880","780055","913441","862424","13.251698","3.500891","-0.032123","689061","850534","953862","9.545567","2.502440","-0.205521","1193","1404","1496","1400","1323","1291","1210","840","698","1250","976","877","1289","659","435",""
"MA200-0416","20624","58","1","1.10","1.4","2023-05-07T09:31:04","120","2023/05/07","09:31:04","-15.773823976516724","35.015954999253154","6.0","13","30","64","81","-23768","-2968","5024","1","150","150.29","114.76","35.53","27.63","42.7","13.81","90000","27.44","DUALSPOT-UV-BLUE-GREEN-RED-IR","667952","687563","910067","26.387486","8.069397","0.010833","671473","877754","762113","19.385850","5.608076","0.002107","774220","890801","815550","16.357071","4.534429","-0.012198","782814","916779","865563","13.266844","3.502554","-0.537372","690602","852511","956081","9.558987","2.506090","-0.020669","1293","1653","1811","1380","1422","1439","1494","1314","1245","1324","469","162","1633","1434","1364",""
"MA200-0416","20625","58","1","1.10","1.4","2023-05-07T09:31:34","120","2023/05/07","09:31:34","-15.774662375450134","35.014586666598916","5.8","13","30","64","81","-24240","-4256","6556","1","150","149.80","114.67","35.13","27.66","42.6","13.81","90048","27.50","DUALSPOT-UV-BLUE-GREEN-RED-IR","668266","688032","910763","26.415588","8.079130","0.005991","671317","877715","762105","19.408612","5.615198","0.001513","774883","891704","816428","16.377415","4.540831","0.002213","783894","918164","866919","13.282857","3.505933","-0.055098","686794","847905","950959","9.572578","2.508656","-0.113140","1439","1627","1710","1471","1503","1516","1472","1513","1528","1401","965","808","1655","1020","794",""
"MA200-0416","20626","58","1","1.10","1.4","2023-05-07T09:32:04","120","2023/05/07","09:32:04","-15.7734934091568","35.01383299846202","5.6","13","30","64","81","-23796","-4120","6228","1","150","150.01","114.84","35.17","27.69","42.5","13.80","90164","27.50","DUALSPOT-UV-BLUE-GREEN-RED-IR","668471","688379","911335","26.446152","8.090795","0.009901","672087","878906","763228","19.434870","5.623102","-0.001281","774719","891668","816424","16.399170","4.545498","-0.043176","777960","911335","860492","13.301079","3.509653","-0.062290","686540","847669","950736","9.587208","2.511852","-0.066281","1563","1948","2117","1695","1665","1653","1572","1101","920","1591","1060","870","1779","1269","1088",""
