"Serial number","Datum ID","Session ID","Data format version","Firmware version","App version","Date / time local","Timezone offset (mins)","Date local (yyyy/MM/dd)","Time local (hh:mm:ss)","GPS lat (ddmm.mmmmm)","GPS long (dddmm.mmmmm)","GPS speed (km/h)","GPS sat count","Timebase (s)","Status","Battery remaining (%)","Accel X","Accel Y","Accel Z","Tape position","Flow setpoint (mL/min)","Flow total (mL/min)","Flow1 (mL/min)","Flow2 (mL/min)","Sample temp (C)","Sample RH (%)","Sample dewpoint (C)","Internal pressure (Pa)","Internal temp (C)","Optical config","UV Sen1","UV Sen2","UV Ref","UV ATN1","UV ATN2","UV K","Blue Sen1","Blue Sen2","Blue Ref","Blue ATN1","Blue ATN2","Blue K","Green Sen1","Green Sen2","Green Ref","Green ATN1","Green ATN2","Green K","Red Sen1","Red Sen2","Red Ref","Red ATN1","Red ATN2","Red K","IR Sen1","IR Sen2","IR Ref","IR ATN1","IR ATN2","IR K","UV BC1","UV BC2","UV BCc","Blue BC1","Blue BC2","Blue BCc","Green BC1","Green BC2","Green BCc","Red BC1","Red BC2","Red BCc","IR BC1","IR BC2","IR BCc","Readable status"
"MA200-0420","49270","79","1","1.10","1.6","2023-08-08T12:45:00","120","2023/08/08","12:45:00","-15.795716643333435","35.002711666282266","0.0","12","300","66","97","-429","-27183","-79","1","150","150.08","115.17","34.92","27.79","42.2","13.78","90616","27.94","DUALSPOT-UV-BLUE-GREEN-RED-IR","802706","714072","909687","0.000000","0.000000","0.000000","886231","894801","836848","0.000000","0.000000","0.000000","869817","874523","834016","0.000000","0.000000","0.000000","885702","876418","890865","0.000000","0.000000","0.000000","769423","892165","961139","0.000000","0.000000","0.000000","","","","","","","","","","","","","","","","Start up-DualSpot on"
"MA200-0420","49271","79","1","1.10","1.6","2023-08-08T12:50:00","120","2023/08/08","12:50:00","-15.795731604099274","35.00274333311245","0.0","13","300","64","97","-468","-27203","312","1","150","149.74","114.80","34.94","27.88","43.2","14.21","90616","28.50","DUALSPOT-UV-BLUE-GREEN-RED-IR","795042","711245","908545","0.000000","0.000000","0.000000","880753","892173","835604","0.000000","0.000000","0.000000","865300","872248","832879","0.000000","0.000000","0.000000","882333","874770","889982","0.000000","0.000000","0.000000","771796","895862","965632","0.000000","0.000000","0.000000","","","","","","","","","","","","","","","","DualSpot on"
"MA200-0420","49272","79","1","1.10","1.6","2023-08-08T12:55:00","120","2023/08/08","12:55:00","-15.795684516429901","35.00277666654438","0.1","13","300","64","98","-500","-26941","-295","1","150","150.08","115.09","35.00","27.91","42.1","13.84","90608","28.25","DUALSPOT-UV-BLUE-GREEN-RED-IR","787648","708623","907750","0.846605","0.285264","0.000000","875629","889883","834889","0.495487","0.168925","0.000000","861655","870886","832701","0.400573","0.137019","0.000000","878538","872759","888867","0.302248","0.102471","0.000000","770154","895027","965297","0.177862","0.056437","0.000000","4320","4787","4320","3191","3578","3191","2889","3250","2889","2634","2937","2634","2158","2252","2158","DualSpot on"
"MA200-0420","49273","79","1","1.10","1.6","2023-08-08T13:00:00","120","2023/08/08","13:00:00","-15.795690298080444","35.00276749976911","0.0","13","300","64","98","-395","-26858","-591","1","150","150.08","114.89","35.19","27.75","41.3","13.43","90604","27.81","DUALSPOT-UV-BLUE-GREEN-RED-IR","782332","706674","907096","1.456872","0.490400","0.000000","878529","894939","840673","0.860357","0.296568","0.000000","858361","869215","831957","0.697714","0.239867","0.000000","874993","870494","887223","0.523674","0.177332","0.000000","768843","894256","964843","0.304866","0.099180","0.000000","3119","3423","3119","2354","2688","2354","2147","2426","2147","1933","2134","1933","1544","1696","1544","DualSpot on"
"MA200-0420","49274","79","1","1.10","1.6","2023-08-08T13:05:00","120","2023/08/08","13:05:00","-15.795561373233795","35.00284633319825","0.0","13","300","64","97","-404","-27408","-448","1","150","149.82","115.20","34.62","27.67","41.3","13.32","90600","28.13","DUALSPOT-UV-BLUE-GREEN-RED-IR","777032","704612","906229","2.039739","0.686862","0.000000","874623","893145","839986","1.221853","0.416368","0.000000","856052","868640","832220","0.995069","0.338560","0.000000","873926","870772","888169","0.748764","0.250935","0.000000","768246","894316","965348","0.431564","0.142561","0.000000","2971","3333","2971","2326","2565","2326","2142","2367","2142","1960","2133","1960","1536","1750","1536","DualSpot on"
"MA200-0420","49275","79","1","1.10","1.6","2023-08-08T13:10:00","120","2023/08/08","13:10:00","-15.795630514621735","35.002773832995445","0.1","13","300","64","97","-392","-26852","-72","1","150","150.15","115.76","34.39","27.59","40.6","13.01","90580","27.75","DUALSPOT-UV-BLUE-GREEN-RED-IR","774123","704863","908459","2.664054","0.895433","0.000000","867231","887926","836256","1.623702","0.549632","0.000000","854871","869358","833857","1.331180","0.450951","0.000000","874330","872707","890874","1.010150","0.334997","0.000000","769117","896294","967989","0.593135","0.193775","0.000000","3167","3562","3167","2573","2872","2573","2410","2713","2410","2265","2452","2265","1949","2080","1949","DualSpot on"
"MA200-0420","49276","79","1","1.10","1.6","2023-08-08T13:15:00","120","2023/08/08","13:15:00","-15.795682966709137","35.002720332937315","0.0","14","300","64","97","-441","-26883","-229","1","150","149.56","115.99","33.57","27.44","40.7","12.91","90580","27.63","DUALSPOT-UV-BLUE-GREEN-RED-IR","769439","703587","908794","3.303272","1.112155","0.062229","863113","886166","835700","2.033949","0.685566","0.000000","851574","867995","833484","1.671910","0.562399","0.000000","871695","871639","890532","1.272744","0.420468","0.000000","763779","891023","962767","0.746316","0.244447","0.000000","3236","3792","4074","2621","3002","2621","2438","2756","2438","2271","2554","2271","1844","2108","1844","DualSpot on"
"MA200-0420","49277","79","1","1.10","1.6","2023-08-08T13:20:00","120","2023/08/08","13:20:00","-15.79566103219986","35.002751666354015","0.1","14","300","64","98","-427","-26996","-140","1","150","149.82","116.03","33.79","27.34","41.0","12.94","90576","27.56","DUALSPOT-UV-BLUE-GREEN-RED-IR","763349","700710","906913","3.890804","1.313385","0.054008","865300","890580","840883","2.399778","0.807011","0.000000","848424","866543","832938","1.973819","0.662601","0.000000","869355","870639","890167","1.502483","0.493593","0.000000","762850","890685","962844","0.879579","0.290134","0.000000","2974","3498","3765","2337","2664","2337","2160","2462","2160","1986","2171","1986","1604","1888","1604","DualSpot on"
"MA200-0420","49278","79","1","1.10","1.6","2023-08-08T13:25:00","120","2023/08/08","13:25:00","-15.795609176158905","35.00279049971141","0.2","13","300","64","97","-435","-27032","116","1","150","149.95","118.88","31.07","27.28","41.8","13.19","90564","27.69","DUALSPOT-UV-BLUE-GREEN-RED-IR","757813","698547","906049","4.525236","1.529314","0.069234","861031","888589","840047","2.794314","0.931179","0.000000","845440","865430","832687","2.298903","0.763064","0.000000","866371","869180","889326","1.750515","0.568930","0.000000","761350","889849","962364","1.023012","0.333959","0.000000","3134","4081","4564","2460","2962","2460","2270","2684","2270","2093","2432","2093","1685","1970","1685","DualSpot on"
"MA200-0420","49279","79","1","1.10","1.6","2023-08-08T13:30:00","120","2023/08/08","13:30:00","-15.795632481575012","35.0027081661392","0.2","13","300","64","97","-525","-26750","-970","1","150","150.08","118.52","31.56","27.51","42.7","13.72","90568","28.00","DUALSPOT-UV-BLUE-GREEN-RED-IR","750461","695273","904266","5.304088","1.803098","0.061577","855559","885683","838530","3.250962","1.077598","0.071959","840480","862565","830894","2.670115","0.878942","0.000000","861084","865508","886364","2.029848","0.653955","0.000000","762472","892232","965418","1.195095","0.383630","0.000000","3859","5095","5731","2856","3439","3728","2600","3048","2600","2364","2702","2364","2028","2198","2028","DualSpot on"
"MA200-0420","49280","79","1","1.10","1.6","2023-08-08T13:35:00","120","2023/08/08","13:35:00","-15.795631647109985","35.00273699965328","0.0","13","300","64","98","-348","-27124","4","1","150","150.40","118.60","31.80","27.66","42.9","13.91","90568","28.19","DUALSPOT-UV-BLUE-GREEN-RED-IR","748927","697322","909437","6.075695","2.078079","0.054883","849837","882325","836533","3.680783","1.217633","0.066091","841212","865347","834474","3.014052","0.987470","0.069104","863939","869925","891592","2.284335","0.732467","0.000000","759250","889460","962874","1.354112","0.431032","0.000000","3821","5079","5733","2686","3264","3550","2407","2833","3041","2152","2477","2152","1873","2082","1873","DualSpot on"
"MA200-0420","49281","79","1","1.10","1.6","2023-08-08T13:40:00","120","2023/08/08","13:40:00","-15.795589327812195","35.00276633282192","0.1","13","300","64","98","-475","-26925","166","1","150","150.47","118.72","31.75","27.79","42.4","13.85","90560","28.13","DUALSPOT-UV-BLUE-GREEN-RED-IR","740201","692278","905125","6.774448","2.330982","0.051668","849089","883855","839110","4.080504","1.353448","0.070587","834912","860697","830852","3.333538","1.092499","0.076252","857627","864987","887159","2.523835","0.808082","0.000000","759538","890732","964681","1.501619","0.473640","0.000000","3457","4678","5318","2496","3170","3505","2234","2746","2995","2023","2389","2023","1735","1874","1735","DualSpot on"
"MA200-0420","49282","79","1","1.10","1.6","2023-08-08T13:45:00","120","2023/08/08","13:45:00","-15.795639455318451","35.00273199961521","0.3","13","300","64","98","-320","-27052","96","1","150","149.56","118.25","31.32","27.79","42.5","13.86","90564","28.13","DUALSPOT-UV-BLUE-GREEN-RED-IR","732823","688421","902327","7.464876","2.578041","0.046772","842996","879901","836482","4.487336","1.489925","0.063589","835019","862730","833699","3.664410","1.201039","0.071506","859234","868064","891008","2.771451","0.886556","0.000000","756125","887635","961765","1.651237","0.518708","0.000000","3429","4633","5269","2550","3230","3568","2323","2877","3147","2100","2514","2100","1767","2010","1767","DualSpot on"
"MA200-0420","49283","79","1","1.10","1.6","2023-08-08T13:50:00","120","2023/08/08","13:50:00","-15.795695185661316","35.00274533312768","0.1","13","300","64","98","-491","-27025","4","1","150","149.69","118.44","31.25","27.59","41.8","13.46","90548","27.69","DUALSPOT-UV-BLUE-GREEN-RED-IR","732097","690351","906881","8.066969","2.799385","0.046609","838075","876749","834574","4.845178","1.618361","0.072478","832089","861303","833191","3.956016","1.303988","0.084759","855719","865772","889335","2.989559","0.959961","0.000000","759103","891895","966742","1.776817","0.558987","0.000000","2985","4160","4784","2239","3047","3451","2044","2735","3075","1847","2356","1847","1481","1800","1481","DualSpot on"
"MA200-0420","49284","79","1","1.10","1.6","2023-08-08T13:55:00","120","2023/08/08","13:55:00","-15.795622527599335","35.002680166624486","0.3","13","300","64","97","-416","-27120","-329","1","150","150.08","118.15","31.93","27.42","42.1","13.41","90548","27.81","DUALSPOT-UV-BLUE-GREEN-RED-IR","725039","686214","903355","8.648556","3.012621","0.040904","838186","878974","837706","5.203921","1.741325","0.055229","827166","857884","830740","4.249407","1.403123","0.064024","857081","868420","892717","3.210330","1.033726","0.080530","756902","890031","965146","1.897022","0.601625","0.000000","2891","3922","4473","2250","2855","3158","2061","2577","2832","1874","2317","2528","1421","1865","1421","DualSpot on"
"MA200-0420","49285","79","1","1.10","1.6","2023-08-08T14:00:00","120","2023/08/08","14:00:00","-15.795585989952087","35.00278166634962","0.4","13","300","64","97","-233","-27125","-137","1","150","149.96","118.64","31.32","27.49","41.8","13.35","90540","27.81","DUALSPOT-UV-BLUE-GREEN-RED-IR","723223","686923","906265","9.219042","3.230648","0.044241","837732","880440","840197","5.553038","1.867342","0.064125","826983","859290","832934","4.536541","1.505065","0.075000","851661","864199","889071","3.431180","1.109410","0.089083","757616","891666","967396","2.034599","0.646801","0.000000","2824","4088","4769","2181","2982","3388","2009","2701","3045","1867","2424","2689","1619","2014","1619","DualSpot on"
"MA200-0420","49286","79","1","1.10","1.6","2023-08-08T14:05:00","120","2023/08/08","14:05:00","-15.795669853687286","35.00273316609673","0.1","13","300","64","98","-352","-27072","-116","1","150","149.65","118.45","31.20","27.56","41.6","13.34","90544","27.88","DUALSPOT-UV-BLUE-GREEN-RED-IR","716618","683053","903133","9.794302","3.450056","0.041736","831565","875935","836906","5.901931","1.990085","0.056943","826244","860158","834544","4.822106","1.601267","0.061077","852408","866217","891736","3.646806","1.179347","0.069845","753426","887554","963288","2.169641","0.689371","0.000000","2852","4130","4824","2183","2916","3288","2001","2559","2837","1826","2248","2450","1592","1905","1592","DualSpot on"
"MA200-0420","49287","79","1","1.10","1.6","2023-08-08T14:10:00","120","2023/08/08","14:10:00","-15.795643210411072","35.00269516627304","0.2","12","300","64","98","-520","-26770","608","1","150","150.21","118.72","31.49","27.52","40.8","13.00","90536","27.75","DUALSPOT-UV-BLUE-GREEN-RED-IR","716687","685078","907373","10.255095","3.625103","0.039063","832736","878798","840502","6.191821","2.094268","0.056369","822858","857930","833119","5.059428","1.686060","0.067644","848430","863183","889168","3.828774","1.241264","0.077037","751355","885778","961722","2.277652","0.725502","0.000000","2279","3264","3803","1810","2452","2780","1659","2235","2523","1537","1972","2181","1270","1602","1270","DualSpot on"
"MA200-0420","49288","79","1","1.10","1.6","2023-08-08T14:15:00","120","2023/08/08","14:15:00","-15.795628666877747","35.00268366630189","0.6","12","300","64","97","-437","-27108","100","1","150","150.45","117.91","32.54","27.54","40.4","12.88","90536","27.88","DUALSPOT-UV-BLUE-GREEN-RED-IR","714704","685172","909161","10.727358","3.806020","0.035015","825700","872965","835802","6.480407","2.198654","0.049356","821993","858358","834221","5.295415","1.768029","0.052814","848787","864579","891159","4.008120","1.302655","0.065516","751639","886753","963123","2.387066","0.760829","0.000000","2352","3265","3767","1814","2378","2667","1661","2091","2306","1526","1892","2069","1296","1516","1296","DualSpot on"
"MA200-0420","49289","79","1","1.10","1.6","2023-08-08T14:20:00","120","2023/08/08","14:20:00","-15.795653522014618","35.0027173331473","0.1","12","300","64","97","-364","-27024","-136","1","150","150.58","118.45","32.14","27.57","39.9","12.70","90540","27.94","DUALSPOT-UV-BLUE-GREEN-RED-IR","706365","679339","903158","11.234272","3.998684","0.034147","824087","873196","837008","6.814757","2.317404","0.046802","820348","858147","834840","5.573477","1.865459","0.054655","847579","864600","891821","4.224869","1.375112","0.060596","751005","886843","963609","2.523777","0.805222","0.000000","2513","3521","4078","2092","2739","3072","1949","2517","2802","1835","2262","2467","1612","1929","1612","DualSpot on"
"MA200-0420","49290","79","1","1.10","1.6","2023-08-08T14:25:00","120","2023/08/08","14:25:00","-15.795659899711609","35.00275283283554","0.1","13","300","64","97","-384","-26996","-388","1","150","150.15","118.32","31.83","27.71","39.3","12.60","90540","28.19","DUALSPOT-UV-BLUE-GREEN-RED-IR","701674","676799","901517","11.724426","4.189294","0.034915","819697","870272","835131","7.131221","2.430391","0.046501","816607","855721","833250","5.839176","1.958281","0.053078","843895","862001","889769","4.432097","1.445530","0.063345","748172","884315","961274","2.658958","0.846499","0.000000","2433","3517","4119","1982","2631","2966","1864","2420","2701","1757","2219","2443","1596","1811","1596","DualSpot on"
"MA200-0420","49291","79","1","1.10","1.6","2023-08-08T14:30:00","120","2023/08/08","14:30:00","-15.79571783542633","35.00271916622296","0.2","13","300","64","97","-475","-27019","40","1","150","150.21","118.27","31.94","27.81","38.2","12.25","90536","28.13","DUALSPOT-UV-BLUE-GREEN-RED-IR","702384","679212","906255","12.150761","4.360718","0.035609","821151","873231","838862","7.398114","2.533733","0.053734","812822","852944","831202","6.058762","2.039027","0.058234","839797","858786","886980","4.602571","1.506702","0.071335","749282","886281","963778","2.770521","0.882635","0.000000","2117","3152","3732","1672","2398","2776","1541","2099","2381","1446","1921","2153","1317","1580","1317","DualSpot on"
"MA200-0420","49292","79","1","1.10","1.6","2023-08-08T14:35:00","120","2023/08/08","14:35:00","-15.795623183250427","35.00275949970819","0.1","13","300","64","98","-408","-27100","-270","1","150","149.76","117.81","31.94","27.80","37.2","11.84","90532","28.06","DUALSPOT-UV-BLUE-GREEN-RED-IR","702551","680905","909894","12.524460","4.511120","0.034398","816544","869687","836261","7.649947","2.630895","0.051233","813882","855187","834079","6.272895","2.119804","0.059209","842284","862214","891094","4.770082","1.567590","0.070549","751436","889467","967628","2.879415","0.921441","0.000000","1863","2765","3273","1584","2254","2606","1509","2099","2400","1426","1912","2150","1291","1696","1291","DualSpot on"
"MA200-0420","49293","79","1","1.10","1.6","2023-08-08T14:40:00","120","2023/08/08","14:40:00","-15.795638859272003","35.00278649944812","0.0","13","300","64","98","-266","-27154","-129","1","150","150.67","118.48","32.20","27.72","36.2","11.37","90528","27.88","DUALSPOT-UV-BLUE-GREEN-RED-IR","695780","675574","903824","12.825651","4.628719","0.031649","815601","869695","836966","7.851564","2.713394","0.055514","808019","849872","829449","6.441537","2.188963","0.067582","841625","862223","891549","4.900338","1.620788","0.087541","747003","884660","962696","2.962478","0.956877","0.000000","1493","2145","2513","1261","1899","2236","1181","1783","2092","1103","1657","1931","979","1537","979","DualSpot on"
"MA200-0420","49294","79","1","1.10","1.6","2023-08-08T14:45:00","120","2023/08/08","14:45:00","-15.795688509941101","35.002733499743044","0.1","13","300","64","97","-420","-27033","-16","1","150","150.08","118.52","31.56","27.60","35.7","11.08","90524","27.75","DUALSPOT-UV-BLUE-GREEN-RED-IR","696608","677907","908295","13.195723","4.776090","0.033122","812006","867261","835455","8.109658","2.812499","0.049761","809782","852903","833076","6.656283","2.270925","0.059600","838431","859845","889648","5.068513","1.683250","0.073286","749897","888620","967417","3.063093","0.995595","0.129724","1833","2742","3257","1614","2327","2706","1504","2155","2493","1423","1985","2264","1185","1713","1967","DualSpot on"
"MA200-0420","49295","79","1","1.10","1.6","2023-08-08T14:50:00","120","2023/08/08","14:50:00","-15.79566103219986","35.00275216624141","0.2","13","300","64","98","-431","-27156","276","1","150","150.21","117.81","32.40","27.52","35.6","10.95","90524","27.63","DUALSPOT-UV-BLUE-GREEN-RED-IR","690465","673816","904418","13.656582","4.954094","0.028428","812473","869522","838617","8.428591","2.931577","0.042014","805581","849861","830962","6.923981","2.369922","0.049658","833204","855627","885947","5.275660","1.757687","0.059701","747330","886258","965278","3.186164","1.040937","0.105225","2297","3226","3755","2006","2724","3107","1886","2536","2875","1764","2304","2575","1459","1954","2195","DualSpot on"
"MA200-0420","49296","79","1","1.10","1.6","2023-08-08T14:55:00","120","2023/08/08","14:55:00","-15.795690774917603","35.00269849947654","0.1","13","300","64","98","-466","-26995","-475","1","150","149.69","117.93","31.76","27.43","35.4","10.76","90512","27.56","DUALSPOT-UV-BLUE-GREEN-RED-IR","691229","675878","908373","13.981470","5.084718","0.031218","808263","866133","836046","8.645618","3.016335","0.047274","807076","852417","834040","7.106378","2.440655","0.056456","835975","859231","890147","5.416668","1.809578","0.065524","745295","884338","963478","3.268819","1.071389","0.108213","1618","2415","2871","1364","1978","2307","1284","1848","2144","1199","1639","1859","979","1339","1515","DualSpot on"
"MA200-0420","49297","79","1","1.10","1.6","2023-08-08T15:00:00","120","2023/08/08","15:00:00","-15.795669198036194","35.00272149941884","0.1","13","300","64","98","-412","-27187","-333","1","150","150.67","118.25","32.42","27.46","35.4","10.81","90516","27.69","DUALSPOT-UV-BLUE-GREEN-RED-IR","686906","672721","905115","14.251299","5.194502","0.030331","809886","868889","839275","8.830401","3.083783","0.038198","803561","849533","831669","7.259270","2.494526","0.041707","831993","855827","886975","5.537590","1.851933","0.053128","746495","886186","965763","3.345777","1.097952","0.083131","1340","1988","2360","1158","1542","1748","1073","1379","1539","1025","1310","1453","909","1144","1259","DualSpot on"
"MA200-0420","49298","79","1","1.10","1.6","2023-08-08T15:05:00","120","2023/08/08","15:05:00","-15.795636534690857","35.00277516641654","0.1","13","300","64","97","-496","-26932","-36","1","150","149.89","118.13","31.76","27.56","35.5","10.93","90524","27.88","DUALSPOT-UV-BLUE-GREEN-RED-IR","687363","674682","909156","14.629456","5.346920","0.030097","806078","866158","837430","9.079928","3.175574","0.039819","804419","851619","834319","7.470403","2.569175","0.043428","833992","858805","890552","5.699889","1.908470","0.053989","743114","882808","962385","3.450079","1.131383","0.064451","1880","2818","3359","1565","2142","2452","1483","1951","2196","1378","1786","1991","1233","1470","1586","DualSpot on"
"MA200-0420","49299","79","1","1.10","1.6","2023-08-08T15:10:00","120","2023/08/08","15:10:00","-15.795645356178284","35.002735999412835","0.1","13","300","64","97","-324","-27019","-420","1","150","150.21","118.17","32.05","27.60","35.4","10.92","90524","27.88","DUALSPOT-UV-BLUE-GREEN-RED-IR","686099","674419","909703","14.875706","5.449213","0.030673","804636","865535","837338","9.249909","3.241241","0.042728","803287","851169","834347","7.614641","2.623010","0.047893","833563","858946","891099","5.812859","1.948245","0.053282","743165","883277","963126","3.521877","1.155053","0.068973","1224","1874","2251","1066","1519","1763","1013","1394","1595","959","1245","1389","848","1031","1121","DualSpot on"
"MA200-0420","49300","79","1","1.10","1.6","2023-08-08T15:15:00","120","2023/08/08","15:15:00","-15.795587360858917","35.00279133301228","0.2","14","300","64","98","-376","-26916","-164","1","150","149.34","117.57","31.77","27.56","34.7","10.61","90512","27.69","DUALSPOT-UV-BLUE-GREEN-RED-IR","680905","670721","906083","15.236906","5.600004","0.030373","805630","867765","840263","9.473117","3.330833","0.045189","799314","847878","831739","7.799295","2.696741","0.054102","829010","855022","887483","5.954880","2.002834","0.065307","744750","885657","966055","3.613763","1.190258","0.106218","1804","2787","3358","1407","2090","2460","1303","1926","2255","1211","1723","1983","1091","1547","1771","DualSpot on"
"MA200-0420","49301","79","1","1.10","1.6","2023-08-08T15:20:00","120","2023/08/08","15:20:00","-15.795732915401459","35.002736166119576","0.2","13","300","64","98","-388","-26980","-128","1","150","149.41","117.94","31.46","27.63","34.9","10.73","90520","27.88","DUALSPOT-UV-BLUE-GREEN-RED-IR","681513","672678","910022","15.578934","5.740654","0.029633","795401","857962","831515","9.703965","3.417081","0.039370","800148","849850","834230","7.992331","2.766567","0.044108","831080","857959","891042","6.105362","2.056634","0.055537","741542","882401","962828","3.709032","1.222251","0.075101","1703","2625","3163","1450","2032","2348","1358","1842","2098","1280","1715","1936","1128","1420","1564","DualSpot on"
"MA200-0420","49302","79","1","1.10","1.6","2023-08-08T15:25:00","120","2023/08/08","15:25:00","-15.795646131038666","35.00277899974026","0.2","14","300","64","97","-340","-27028","-92","1","150","150.21","117.85","32.36","27.67","34.9","10.79","90512","27.88","DUALSPOT-UV-BLUE-GREEN-RED-IR","674861","667224","903733","15.868114","5.860403","0.028116","800073","864058","838017","9.899893","3.490984","0.036966","799175","849721","834604","8.157664","2.826804","0.040867","830664","858271","891770","6.234848","2.102883","0.050066","741049","882341","963019","3.795202","1.251287","0.066689","1441","2173","2602","1232","1692","1943","1164","1545","1747","1102","1433","1602","1021","1253","1367","DualSpot on"
"MA200-0420","49303","79","1","1.10","1.6","2023-08-08T15:30:00","120","2023/08/08","15:30:00","-15.795616567134857","35.00278383330442","0.1","14","300","64","97","-425","-26904","-470","1","150","150.15","118.05","32.10","27.66","34.6","10.65","90512","27.75","DUALSPOT-UV-BLUE-GREEN-RED-IR","676619","670056","908635","16.144295","5.974712","0.028074","796837","861529","836186","10.082407","3.561818","0.039460","796835","848015","833425","8.310590","2.884460","0.044746","828026","856214","890008","6.354482","2.145895","0.051503","739353","880754","961545","3.870473","1.275776","0.058569","1374","2091","2513","1146","1635","1903","1075","1491","1712","1016","1344","1511","890","1065","1151","DualSpot on"
"MA200-0420","49304","79","1","1.10","1.6","2023-08-08T15:35:00","120","2023/08/08","15:35:00","-15.795610785484314","35.002807666081935","0.1","14","300","64","97","-345","-26945","816","1","150","150.21","117.46","32.76","27.52","34.6","10.50","90512","27.50","DUALSPOT-UV-BLUE-GREEN-RED-IR","674520","669049","908248","16.417431","6.088489","0.026781","795426","860981","836222","10.266895","3.634238","0.037678","795543","847439","833347","8.465587","2.944320","0.043837","827130","855910","890046","6.472158","2.188045","0.046432","739367","881148","962204","3.939314","1.300911","0.080185","1365","2040","2437","1164","1638","1899","1095","1517","1742","1005","1290","1436","818","1071","1196","DualSpot on"
"MA200-0420","49305","79","1","1.10","1.6","2023-08-08T15:40:00","120","2023/08/08","15:40:00","-15.795617401599884","35.0027979996521","0.1","14","300","64","98","-431","-27032","-59","1","150","149.32","117.73","31.58","27.39","35.1","10.63","90512","27.38","DUALSPOT-UV-BLUE-GREEN-RED-IR","667638","663548","902017","16.750481","6.223331","0.026720","794874","861554","837487","10.482541","3.713607","0.034867","794822","847629","834107","8.642262","3.009242","0.041881","827006","856531","891135","6.606976","2.236253","0.050669","739964","882270","963688","4.013698","1.328342","0.089429","1661","2507","3007","1357","1862","2140","1245","1706","1952","1148","1531","1727","882","1213","1376","DualSpot on"
"MA200-0420","49306","79","1","1.10","1.6","2023-08-08T15:45:00","120","2023/08/08","15:45:00","-15.795677185058594","35.00282616610639","0.2","14","300","64","98","-440","-27124","-212","1","150","149.89","117.65","32.23","27.26","35.2","10.55","90516","27.19","DUALSPOT-UV-BLUE-GREEN-RED-IR","668434","665685","906215","17.097942","6.366165","0.025946","796096","863970","840525","10.696362","3.798437","0.038329","791940","845446","832549","8.820240","3.079224","0.045432","824041","854181","889113","6.739828","2.284211","0.048154","742978","886292","968369","4.089241","1.355872","0.080857","1734","2602","3117","1347","1950","2283","1255","1802","2095","1132","1492","1677","896","1193","1340","DualSpot on"
"MA200-0420","49307","79","1","1.10","1.6","2023-08-08T15:50:00","120","2023/08/08","15:50:00","-15.795646965503693","35.002762832911685","0.2","13","300","64","97","-380","-27191","596","1","150","150.21","117.93","32.28","27.08","35.4","10.45","90528","27.06","DUALSPOT-UV-BLUE-GREEN-RED-IR","667258","665634","907218","17.382904","6.485542","0.026364","795794","864655","841801","10.884410","3.872150","0.036876","791654","845977","833538","8.976595","3.139180","0.042480","823989","854818","890144","6.859309","2.327959","0.049301","739673","882634","964630","4.150810","1.382538","0.112289","1419","2172","2619","1182","1692","1974","1100","1541","1779","1016","1359","1535","729","1153","1366","DualSpot on"
"MA200-0420","49308","79","1","1.10","1.6","2023-08-08T15:55:00","120","2023/08/08","15:55:00","-15.795675218105316","35.00272383284755","0.1","13","300","64","97","-595","-26716","829","1","150","150.46","118.22","32.24","26.89","35.7","10.44","90528","26.81","DUALSPOT-UV-BLUE-GREEN-RED-IR","665123","664520","906626","17.643184","6.592125","0.025206","793995","863637","841394","11.063400","3.941702","0.035943","790777","845819","833863","9.127210","3.196013","0.040677","823461","854883","890604","6.974950","2.368397","0.042936","740137","883557","965873","4.213562","1.408663","0.104830","1293","1941","2328","1122","1599","1863","1057","1463","1682","981","1258","1400","741","1132","1328","DualSpot on"
"MA200-0420","49309","79","1","1.10","1.6","2023-08-08T16:00:00","120","2023/08/08","16:00:00","-15.795621693134308","35.00281016621739","0.1","13","300","64","98","-448","-27019","-304","1","150","149.89","118.01","31.88","26.75","36.2","10.50","90532","26.69","DUALSPOT-UV-BLUE-GREEN-RED-IR","664754","665148","908470","17.900410","6.699835","0.026137","787810","857837","836318","11.238421","4.011124","0.037496","786172","841634","830227","9.274475","3.253472","0.043815","818308","850155","886046","7.089382","2.410083","0.048745","736982","880102","962352","4.276069","1.433857","0.099477","1280","1984","2405","1099","1614","1900","1036","1496","1745","972","1311","1486","739","1104","1287","DualSpot on"
"MA200-0420","49310","79","1","1.10","1.6","2023-08-08T16:05:00","120","2023/08/08","16:05:00","-15.795715987682343","35.00275033316575","0.1","13","300","64","98","-412","-27016","-475","1","150","149.95","117.89","32.06","26.82","37.0","10.91","90536","27.00","DUALSPOT-UV-BLUE-GREEN-RED-IR","662103","663742","907857","18.228066","6.839813","0.026194","785885","856862","836042","11.450936","4.089719","0.031343","784182","840477","829595","9.451263","3.317553","0.035867","817123","849668","885957","7.225657","2.457626","0.041522","736216","879699","962158","4.361551","1.462093","0.055952","1632","2564","3124","1336","1817","2084","1245","1659","1883","1159","1487","1656","1012","1230","1339","DualSpot on"
"MA200-0420","49311","79","1","1.10","1.6","2023-08-08T16:10:00","120","2023/08/08","16:10:00","-15.795669198036194","35.00273233279586","0.3","13","300","64","97","-266","-27041","-566","1","150","149.71","117.84","31.87","26.91","36.8","10.90","90528","27.31","DUALSPOT-UV-BLUE-GREEN-RED-IR","658671","661549","906167","18.560540","6.983148","0.026284","788512","860847","840616","11.665150","4.174358","0.035826","786747","844156","833794","9.630690","3.384984","0.038972","820884","854372","891293","7.366115","2.506848","0.042030","738630","883090","966174","4.450424","1.493012","0.067683","1657","2641","3235","1347","1968","2315","1264","1756","2023","1195","1549","1732","1053","1355","1507","DualSpot on"
"MA200-0420","49312","79","1","1.10","1.6","2023-08-08T16:15:00","120","2023/08/08","16:15:00","-15.795622825622559","35.002836666535586","0.1","13","300","64","97","-400","-27225","150","1","150","149.82","118.21","31.62","27.04","36.4","10.83","90536","27.94","DUALSPOT-UV-BLUE-GREEN-RED-IR","656482","660398","905751","18.854198","7.115366","0.027754","786971","860134","840609","11.859778","4.256612","0.040055","785319","843440","833629","9.794971","3.454161","0.047999","819234","853300","890612","7.492284","2.557312","0.057299","737255","881889","965176","4.531444","1.525246","0.093480","1459","2456","3060","1220","1928","2325","1153","1816","2177","1070","1601","1876","957","1424","1661","DualSpot on"
"MA200-0420","49313","79","1","1.10","1.6","2023-08-08T16:20:00","120","2023/08/08","16:20:00","-15.795634508132935","35.00274633290246","0.2","13","300","64","98","-341","-26941","-12","1","150","150.58","118.07","32.51","27.47","36.1","11.10","90544","28.88","DUALSPOT-UV-BLUE-GREEN-RED-IR","652643","657607","903163","19.153522","7.252859","0.027050","782927","856711","837890","12.051038","4.327619","0.029210","781488","840203","830898","9.956737","3.506201","0.020702","815291","849908","887474","7.620674","2.600097","0.031728","736843","881924","965495","4.623373","1.554997","0.045173","1489","2483","3090","1200","1618","1853","1137","1328","1432","1090","1320","1438","1087","1278","1374","DualSpot on"
"MA200-0420","49314","79","1","1.10","1.6","2023-08-08T16:25:00","120","2023/08/08","16:25:00","-15.795689642429352","35.002717833034694","0.2","14","300","64","98","-533","-27208","125","1","150","149.89","117.34","32.55","27.81","35.3","11.07","90552","28.81","DUALSPOT-UV-BLUE-GREEN-RED-IR","655192","661356","909652","19.475022","7.395311","0.025190","780232","854883","836781","12.259689","4.408663","0.031372","783402","843218","834405","10.130547","3.571349","0.034715","819152","854717","892941","7.759273","2.646910","0.031996","733959","879138","962755","4.730804","1.584418","-0.004135","1609","2570","3159","1318","1845","2142","1229","1661","1896","1185","1442","1576","1279","1262","1254","DualSpot on"
"MA200-0420","49315","79","1","1.10","1.6","2023-08-08T16:30:00","120","2023/08/08","16:30:00","-15.795645356178284","35.002769332844764","0.1","14","300","64","97","-472","-26788","-748","1","150","149.91","117.22","32.69","28.04","34.9","11.12","90548","28.88","DUALSPOT-UV-BLUE-GREEN-RED-IR","649347","656779","904772","19.835746","7.554733","0.024488","780374","856283","838920","12.495620","4.500162","0.030339","778237","838711","830570","10.328291","3.643382","0.031095","812821","848964","887397","7.915786","2.703525","0.039279","732861","878555","962407","4.844080","1.617231","0.011344","1807","2864","3514","1492","2075","2403","1400","1829","2063","1339","1737","1944","1349","1402","1428","DualSpot on"
"MA200-0420","49316","79","1","1.10","1.6","2023-08-08T16:35:00","120","2023/08/08","16:35:00","-15.795673191547394","35.00275433296338","0.1","14","300","64","98","-416","-27304","58","1","150","150.15","117.26","32.89","27.87","34.6","10.83","90552","27.94","DUALSPOT-UV-BLUE-GREEN-RED-IR","646840","656026","905591","20.305446","7.756912","0.022844","778156","855389","839048","12.795852","4.621041","0.031677","776361","837986","830657","10.577534","3.741473","0.036319","810850","847953","886967","8.107315","2.774062","0.039771","732578","878981","963297","4.969816","1.658191","0.039245","2352","3610","4388","1898","2724","3191","1764","2476","2865","1638","2151","2418","1497","1739","1860","DualSpot on"
"MA200-0420","49317","79","1","1.10","1.6","2023-08-08T16:40:00","120","2023/08/08","16:40:00","-15.79560661315918","35.00278833298944","0.0","14","300","64","97","-388","-26957","-319","1","150","149.32","116.98","32.33","27.47","34.8","10.56","90548","27.50","DUALSPOT-UV-BLUE-GREEN-RED-IR","641871","654529","907152","21.255688","8.161670","0.021999","774499","854928","840891","13.485603","4.896319","0.030455","773424","837847","832451","11.175826","3.973812","0.034530","809737","849313","889986","8.586760","2.952626","0.040319","729362","876772","961951","5.275287","1.770146","0.062388","4771","7352","8961","4371","6311","7417","4246","5965","6914","4111","5540","6289","3647","4836","5437","DualSpot on"
"MA200-0420","49318","79","1","1.10","1.6","2023-08-08T16:45:00","120","2023/08/08","16:45:00","-15.795660734176636","35.00276233302429","0.2","15","300","64","98","-544","-26972","84","1","150","150.28","117.18","33.10","27.15","35.0","10.37","90560","27.19","DUALSPOT-UV-BLUE-GREEN-RED-IR","640141","655120","910613","21.902362","8.449844","0.022129","767815","849902","837661","13.969663","5.097902","0.030608","768356","834425","830487","11.595874","4.145980","0.035575","804502","845561","887248","8.926119","3.086335","0.042171","731859","880895","967256","5.482073","1.854566","0.073384","3241","5114","6290","3062","4515","5349","2976","4318","5065","2905","4053","4659","2465","3563","4124","DualSpot on"
"MA200-0420","49319","79","1","1.10","1.6","2023-08-08T16:50:00","120","2023/08/08","16:50:00","-15.795610308647156","35.00280649936758","0.1","15","300","64","98","-296","-27044","-588","1","150","150.49","117.65","32.83","26.82","35.2","10.15","90560","26.81","DUALSPOT-UV-BLUE-GREEN-RED-IR","635147","651759","907901","22.385074","8.666042","0.022189","763083","846355","835392","14.314467","5.243015","0.031084","769481","837090","834154","11.890350","4.268730","0.036589","806537","848875","891553","9.155967","3.176020","0.041364","730555","879954","966799","5.612432","1.910450","0.079886","2409","3867","4788","2172","3276","3914","2078","3103","3678","1960","2740","3154","1547","2377","2805","DualSpot on"
"MA200-0420","49320","79","1","1.10","1.6","2023-08-08T16:55:00","120","2023/08/08","16:55:00","-15.795587658882141","35.00283766631037","0.2","14","300","64","98","-483","-26956","-1460","1","150","150.08","117.82","32.26","26.50","35.2","9.86","90564","26.38","DUALSPOT-UV-BLUE-GREEN-RED-IR","633567","651813","909959","22.865848","8.884697","0.022718","761850","846670","836922","14.658591","5.391294","0.032454","763618","832113","830224","12.185298","4.392844","0.037452","805863","849402","892878","9.389423","3.266938","0.041864","727661","877157","964225","5.744373","1.965316","0.076747","2396","3981","4987","2165","3407","4130","2078","3194","3823","1987","2827","3275","1564","2375","2797","DualSpot on"
"MA200-0420","49321","79","1","1.10","1.6","2023-08-08T17:00:00","120","2023/08/08","17:00:00","-15.795707643032074","35.002778333146125","0.1","14","300","64","98","-354","-27095","4","1","150","150.61","117.72","32.88","26.17","35.4","9.66","90564","26.00","DUALSPOT-UV-BLUE-GREEN-RED-IR","627293","646787","904542","23.261730","9.064068","0.021700","761154","847257","838520","14.941429","5.512649","0.030741","764502","834262","833229","12.426824","4.493207","0.034848","799776","843939","887820","9.579484","3.341435","0.039923","729025","879306","967072","5.848568","2.013341","0.085123","1975","3203","3988","1781","2735","3294","1703","2533","3004","1619","2272","2622","1236","2040","2462","DualSpot on"
"MA200-0420","49322","79","1","1.10","1.6","2023-08-08T17:05:00","120","2023/08/08","17:05:00","-15.795628249645233","35.00275866640732","0.1","14","300","64","98","-358","-27283","379","1","150","150.07","118.16","31.92","25.94","35.5","9.52","90580","25.75","DUALSPOT-UV-BLUE-GREEN-RED-IR","625813","646734","906285","23.693944","9.263958","0.022750","755445","842340","834728","15.246552","5.642521","0.031323","759555","830091","829971","12.687572","4.604202","0.037422","794905","839862","884227","9.784902","3.423580","0.043432","726606","876964","964974","5.965811","2.062925","0.077730","2148","3678","4661","1914","3016","3664","1832","2887","3488","1744","2582","3033","1386","2170","2584","DualSpot on"
"MA200-0420","49323","79","1","1.10","1.6","2023-08-08T17:10:00","120","2023/08/08","17:10:00","-15.795599102973938","35.00277333310805","0.4","14","300","64","97","-336","-27016","52","1","150","150.60","118.40","32.20","25.61","35.5","9.23","90580","25.38","DUALSPOT-UV-BLUE-GREEN-RED-IR","622887","645190","905808","24.110130","9.452679","0.021706","757908","846537","839969","15.541707","5.769151","0.030807","762307","834338","835108","12.941490","4.710887","0.035659","799394","845630","891003","9.986546","3.501735","0.039626","726731","877687","966237","6.081541","2.111943","0.075747","2064","3442","4331","1847","2915","3545","1780","2750","3306","1708","2435","2827","1365","2126","2531","DualSpot on"
"MA200-0420","49324","79","1","1.10","1.6","2023-08-08T17:15:00","120","2023/08/08","17:15:00","-15.795647978782654","35.00282149924897","0.1","13","300","64","97","-429","-27170","-950","1","150","149.95","118.40","31.55","25.36","35.7","9.07","90584","25.19","DUALSPOT-UV-BLUE-GREEN-RED-IR","618389","642890","905311","24.777440","9.749313","0.021158","754153","844893","840069","16.046125","5.976588","0.028922","755239","828808","831026","13.385195","4.889446","0.033299","798094","846202","892863","10.355455","3.641728","0.038195","721932","873183","962178","6.325193","2.206318","0.064922","3310","5522","6958","3158","4874","5893","3111","4699","5612","3125","4451","5171","2874","4178","4877","DualSpot on"
"MA200-0420","49325","79","1","1.10","1.6","2023-08-08T17:20:00","120","2023/08/08","17:20:00","-15.795698463916779","35.002733833156526","0.1","13","300","64","97","-326","-27053","-123","1","150","149.41","118.03","31.38","25.09","36.0","8.97","90580","24.94","DUALSPOT-UV-BLUE-GREEN-RED-IR","613720","639706","902786","25.256942","9.969620","0.021623","748377","840059","836471","16.389730","6.120986","0.029352","755847","830950","834211","13.681273","5.009466","0.033108","793198","842233","889488","10.593644","3.732025","0.037454","720234","871887","961341","6.468426","2.264885","0.070027","2386","4123","5257","2158","3411","4158","2082","3175","3807","2024","2887","3356","1695","2607","3098","DualSpot on"
"MA200-0420","49326","79","1","1.10","1.6","2023-08-08T17:25:00","120","2023/08/08","17:25:00","-15.795706510543823","35.00265866634436","0.2","13","300","64","98","-408","-27041","-120","1","150","149.65","117.58","32.07","24.92","36.1","8.87","90580","24.81","DUALSPOT-UV-BLUE-GREEN-RED-IR","612444","640405","906315","25.856048","10.249828","0.020968","749166","843005","840951","16.816600","6.301450","0.027826","751034","827475","831977","14.054330","5.163867","0.032012","793858","844504","892947","10.897369","3.852372","0.037792","721610","874627","965086","6.668134","2.343685","0.061156","2992","5131","6536","2691","4171","5058","2634","3997","4788","2591","3764","4406","2372","3432","4006","DualSpot on"
"MA200-0420","49327","79","1","1.10","1.6","2023-08-08T17:30:00","120","2023/08/08","17:30:00","-15.795629858970642","35.0027721663937","0.4","13","300","64","98","-360","-26947","-308","1","150","150.47","117.85","32.62","24.75","36.1","8.72","90580","24.56","DUALSPOT-UV-BLUE-GREEN-RED-IR","608820","638582","906174","26.430156","10.516884","0.020074","746247","841729","841112","17.225492","6.476211","0.027039","749016","826963","832706","14.410588","5.311652","0.030620","786313","837945","887035","11.189565","3.965622","0.034199","721678","875771","967059","6.859007","2.416045","0.052962","2861","4808","6095","2572","3971","4814","2509","3761","4491","2487","3482","4029","2262","3098","3553","DualSpot on"
"MA200-0420","49328","79","1","1.10","1.6","2023-08-08T17:35:00","120","2023/08/08","17:35:00","-15.79564517736435","35.002731166314334","0.4","13","300","64","98","-360","-26944","-435","1","150","149.50","117.53","31.96","24.59","36.0","8.54","90584","24.44","DUALSPOT-UV-BLUE-GREEN-RED-IR","605333","637341","907450","27.143948","10.849480","0.020006","737641","834652","836004","17.780682","6.712686","0.026790","746598","826655","834138","14.905519","5.518024","0.030761","784997","838701","889271","11.606637","4.130314","0.035529","716883","871447","963416","7.148926","2.532965","0.059856","3567","6111","7806","3501","5484","6687","3496","5360","6456","3560","5169","6058","3445","5110","6023","DualSpot on"
"MA200-0420","49329","79","1","1.10","1.6","2023-08-08T17:40:00","120","2023/08/08","17:40:00","-15.795641601085663","35.00274566630833","0.2","13","300","64","98","-524","-27019","72","1","150","149.67","118.11","31.56","24.39","35.9","8.31","90592","24.13","DUALSPOT-UV-BLUE-GREEN-RED-IR","602446","636479","908901","27.785800","11.150688","0.020086","734864","833882","837060","18.280526","6.928200","0.027185","739894","821393","830340","15.350057","5.702841","0.030575","782269","837657","889463","11.979820","4.276885","0.035241","716590","872409","965435","7.402210","2.631869","0.056358","3191","5605","7223","3137","5062","6236","3124","4861","5888","3170","4659","5486","2995","4377","5140","DualSpot on"
"MA200-0420","49330","79","1","1.10","1.6","2023-08-08T17:45:00","120","2023/08/08","17:45:00","-15.795638501644135","35.002769832732156","0.1","13","300","64","98","-266","-27200","208","1","150","149.90","117.99","31.90","24.16","36.0","8.13","90592","24.00","DUALSPOT-UV-BLUE-GREEN-RED-IR","598982","634364","907905","28.252628","11.373592","0.019884","731549","831793","836290","18.641936","7.088576","0.027276","741983","825210","835340","15.669466","5.840118","0.030918","780460","837062","889813","12.246918","4.384775","0.035504","715697","872156","965867","7.572351","2.704863","0.063015","2323","4103","5302","2270","3726","4619","2247","3572","4359","2271","3392","4018","2014","3196","3852","DualSpot on"
"MA200-0420","49331","79","1","1.10","1.6","2023-08-08T17:50:00","120","2023/08/08","17:50:00","-15.795673489570618","35.00274149957113","0.0","13","300","64","97","-441","-26933","-275","1","150","150.58","118.30","32.29","23.98","36.1","8.03","90576","23.81","DUALSPOT-UV-BLUE-GREEN-RED-IR","597291","634094","909619","28.720974","11.601887","0.019801","729674","831355","837258","19.011590","7.254240","0.026791","736507","820637","831884","16.000319","5.983021","0.030123","780719","838715","892594","12.523830","4.498578","0.035220","712139","868772","962867","7.756660","2.782200","0.058776","2325","4153","5391","2316","3803","4721","2322","3674","4482","2348","3536","4202","2176","3346","4000","DualSpot on"
"MA200-0420","49332","79","1","1.10","1.6","2023-08-08T17:55:00","120","2023/08/08","17:55:00","-15.795682311058044","35.00268116639927","0.2","13","300","64","98","-566","-27112","-683","1","150","150.15","118.13","32.02","23.85","36.2","7.96","90580","23.69","DUALSPOT-UV-BLUE-GREEN-RED-IR","590798","629084","904913","29.299980","11.879650","0.019257","728429","832058","839631","19.468688","7.455262","0.025794","735247","821175","833892","16.408642","6.158591","0.029506","772892","832012","886688","12.868964","4.638678","0.034002","711886","869733","964872","7.998579","2.879842","0.054154","2878","5095","6606","2868","4654","5762","2869","4552","5563","2931","4389","5211","2860","4259","5047","DualSpot on"
"MA200-0420","49333","79","1","1.10","1.6","2023-08-08T18:00:00","120","2023/08/08","18:00:00","-15.795660197734833","35.00268799928017","0.0","13","300","64","98","-392","-26980","-948","1","150","149.47","117.80","31.66","23.72","36.3","7.88","90580","23.56","DUALSPOT-UV-BLUE-GREEN-RED-IR","591048","630725","909117","29.720978","12.080212","0.019027","723833","828269","836942","19.782094","7.590441","0.025038","731383","818165","831800","16.684973","6.274060","0.028207","775871","836362","892095","13.096649","4.726599","0.030997","709674","867812","963285","8.150224","2.938604","0.050130","2099","3720","4831","1972","3165","3907","1947","3027","3678","1939","2785","3264","1798","2592","3040","DualSpot on"
"MA200-0420","49334","79","1","1.10","1.6","2023-08-08T18:05:00","120","2023/08/08","18:05:00","-15.795690774917603","35.00273483293131","0.1","13","300","64","98","-422","-27065","-165","1","150","150.41","117.73","32.68","23.60","36.5","7.85","90576","23.44","DUALSPOT-UV-BLUE-GREEN-RED-IR","586522","627409","906388","30.189400","12.306873","0.018436","724222","830404","840409","20.141674","7.746322","0.023698","728117","815988","830718","17.000002","6.406384","0.026573","771736","833236","889689","13.360348","4.831106","0.030038","707516","866088","962076","8.326750","3.008112","0.047555","2336","4074","5270","2264","3536","4331","2221","3362","4051","2247","3208","3753","2094","2971","3467","DualSpot on"
"MA200-0420","49335","79","1","1.10","1.6","2023-08-08T18:10:00","120","2023/08/08","18:10:00","-15.795649886131287","35.0027609996032","0.0","13","300","64","98","-483","-26784","-124","1","150","149.90","118.18","31.72","23.47","36.6","7.76","90584","23.31","DUALSPOT-UV-BLUE-GREEN-RED-IR","585419","627755","909023","30.665516","12.542526","0.019183","718189","825094","836392","20.498588","7.907389","0.025660","727070","816255","832121","17.316232","6.542917","0.028562","771319","834076","891542","13.621942","4.938691","0.033413","707749","867271","964059","8.500488","3.079722","0.053717","2366","4364","5746","2238","3764","4723","2221","3574","4395","2220","3403","4075","2053","3154","3779","DualSpot on"
"MA200-0420","49336","79","1","1.10","1.6","2023-08-08T18:15:00","120","2023/08/08","18:15:00","-15.795641124248505","35.00274399970658","0.1","13","300","64","98","-269","-27046","-438","1","150","150.52","118.14","32.38","23.37","36.7","7.71","90588","23.25","DUALSPOT-UV-BLUE-GREEN-RED-IR","579100","622395","903351","31.125016","12.775669","0.018985","717034","825311","837887","20.837012","8.060970","0.024806","726311","816769","833718","17.612432","6.673407","0.028077","765362","828809","886821","13.867165","5.040065","0.032025","708263","868743","966346","8.663305","3.148428","0.052969","2284","4229","5583","2123","3516","4395","2081","3346","4117","2082","3141","3745","1925","2964","3557","DualSpot on"
"MA200-0420","49337","79","1","1.10","1.6","2023-08-08T18:20:00","120","2023/08/08","18:20:00","-15.795589327812195","35.00284133316018","0.1","13","300","64","98","-516","-26975","-556","1","150","149.90","117.99","31.90","23.24","36.8","7.65","90584","23.06","DUALSPOT-UV-BLUE-GREEN-RED-IR","579743","624580","908725","31.609940","13.018654","0.018726","713014","822306","836181","21.194418","8.222024","0.024596","723518","815093","833135","17.926586","6.809977","0.027611","768760","833784","893097","14.127102","5.145718","0.031274","706630","867617","965779","8.836533","3.217245","0.048048","2413","4473","5915","2245","3742","4690","2210","3553","4376","2210","3322","3959","2050","3013","3564","DualSpot on"
"MA200-0420","49338","79","1","1.10","1.6","2023-08-08T18:25:00","120","2023/08/08","18:25:00","-15.795709371566772","35.00275783287361","0.3","13","300","64","98","-435","-27108","-312","1","150","149.38","117.85","31.53","23.11","37.0","7.61","90588","22.94","DUALSPOT-UV-BLUE-GREEN-RED-IR","573778","619858","904393","32.162544","13.296280","0.018640","712115","823119","838516","21.597166","8.402863","0.024364","722299","815376","834704","18.280364","6.963122","0.027332","762073","828009","887961","14.420847","5.265556","0.031390","702766","863878","962394","9.032156","3.294847","0.047818","2754","5172","6876","2533","4252","5347","2492","4033","4981","2500","3813","4568","2318","3438","4081","DualSpot on"
"MA200-0420","49339","79","1","1.10","1.6","2023-08-08T18:30:00","120","2023/08/08","18:30:00","-15.795659065246582","35.00278349989094","0.1","13","300","64","98","-512","-26791","-460","1","150","149.44","118.28","31.15","22.97","37.1","7.55","90588","22.81","DUALSPOT-UV-BLUE-GREEN-RED-IR","572048","619867","907244","32.775200","13.606949","0.018696","711402","824275","841417","22.045610","8.605467","0.024491","717557","811802","832508","18.677110","7.135557","0.027453","762595","830167","891472","14.750341","5.399245","0.031203","704136","866736","966415","9.255146","3.384168","0.048720","3042","5857","7855","2810","4821","6108","2784","4595","5715","2794","4305","5177","2633","4005","4796","DualSpot on"
"MA200-0420","49340","79","1","1.10","1.6","2023-08-08T18:35:00","120","2023/08/08","18:35:00","-15.795675039291382","35.00269416626543","0.1","13","300","64","98","-444","-26968","-776","1","150","150.58","118.37","32.21","22.87","37.3","7.53","90600","22.75","DUALSPOT-UV-BLUE-GREEN-RED-IR","566454","616257","905745","33.571036","14.017925","0.018066","705996","820521","839687","22.586978","8.848496","0.022865","712298","808061","830361","19.145890","7.335552","0.025033","757404","826485","888915","15.138771","5.553381","0.027733","700656","863895","964224","9.516766","3.483093","0.039989","3948","7493","10035","3390","5593","7011","3287","5154","6314","3292","4800","5674","3087","4290","4984","DualSpot on"
"MA200-0420","49341","79","1","1.10","1.6","2023-08-08T18:40:00","120","2023/08/08","18:40:00","-15.795632660388947","35.00276916613802","0.1","13","300","64","98","-464","-27036","-164","1","150","149.47","118.22","31.25","22.77","37.3","7.44","90612","22.63","DUALSPOT-UV-BLUE-GREEN-RED-IR","557485","611566","908073","35.441328","15.043941","0.018380","694950","812497","835710","23.698780","9.360116","0.023230","708202","807652","833230","20.069148","7.735038","0.025361","755161","827698","892828","15.877092","5.846088","0.027823","699547","865206","967384","10.007492","3.662760","0.037767","9292","19286","26657","6971","12138","15510","6483","10614","13204","6265","9398","11224","5798","8032","9322","DualSpot on"
"MA200-0420","49342","79","1","1.10","1.6","2023-08-08T18:45:00","120","2023/08/08","18:45:00","-15.795636355876923","35.00278799957596","0.1","14","300","64","98","-248","-26803","-1064","1","150","149.63","118.09","31.54","22.64","37.3","7.33","90612","22.50","DUALSPOT-UV-BLUE-GREEN-RED-IR","549799","605985","904714","36.471536","15.597401","0.017511","692770","812942","838789","24.382752","9.676140","0.022458","702202","803420","830997","20.657850","7.991753","0.024585","747763","821930","888327","16.357149","6.039258","0.027232","695350","861691","964629","10.324852","3.781017","0.037199","5124","10307","14180","4293","7428","9490","4138","6757","8410","4078","6145","7354","3754","5238","6095","DualSpot on"
"MA200-0420","49343","79","1","1.10","1.6","2023-08-08T18:50:00","120","2023/08/08","18:50:00","-15.795779824256897","35.002675499767065","0.2","14","300","64","98","-512","-26940","-364","1","150","149.44","117.97","31.47","22.53","37.3","7.22","90612","22.38","DUALSPOT-UV-BLUE-GREEN-RED-IR","547260","605350","907658","37.252112","16.021767","0.017330","691205","813468","841500","24.935750","9.937263","0.022518","700847","803991","833420","21.140666","8.210262","0.025187","747983","824088","892104","16.752577","6.203805","0.028097","696056","863996","968215","10.593815","3.886453","0.040197","3886","7920","10965","3475","6151","7924","3397","5764","7267","3362","5246","6353","3184","4680","5547","DualSpot on"
"MA200-0420","49344","79","1","1.10","1.6","2023-08-08T18:55:00","120","2023/08/08","18:55:00","-15.795709013938904","35.002773832995445","0.3","13","300","64","98","-544","-26980","-72","1","150","150.15","118.11","32.04","22.40","37.4","7.13","90608","22.25","DUALSPOT-UV-BLUE-GREEN-RED-IR","539333","599745","905222","38.434820","16.682167","0.016952","683584","807921","839148","25.756206","10.336662","0.022141","694504","799769","831775","21.848824","8.537328","0.024511","740876","818931","888779","17.330494","6.453500","0.028024","692308","861307","966723","10.976109","4.043232","0.040775","5881","12106","16880","5149","9241","11983","4977","8474","10717","4909","7818","9544","4521","6835","8184","DualSpot on"
"MA200-0420","49345","79","1","1.10","1.6","2023-08-08T19:00:00","120","2023/08/08","19:00:00","-15.795640170574188","35.00278433319181","0.1","13","300","64","98","-388","-27196","160","1","150","149.41","117.69","31.72","22.28","37.5","7.07","90612","22.19","DUALSPOT-UV-BLUE-GREEN-RED-IR","535107","597737","907670","39.492884","17.284440","0.016818","675579","801472","835517","26.506868","10.702938","0.021737","691866","799538","834001","22.500560","8.838208","0.024003","739957","820432","892444","17.869624","6.683410","0.026971","687733","857463","963802","11.338882","4.190139","0.039122","5280","11153","15723","4728","8560","11156","4597","7875","9996","4595","7272","8871","4306","6470","7739","DualSpot on"
"MA200-0420","49346","79","1","1.10","1.6","2023-08-08T19:05:00","120","2023/08/08","19:05:00","-15.795688211917877","35.00271549937315","0.1","13","300","64","98","-575","-27104","1141","1","150","149.76","117.97","31.79","22.24","37.6","7.08","90620","22.13","DUALSPOT-UV-BLUE-GREEN-RED-IR","530766","594642","906490","40.188704","17.681614","0.016580","675855","803918","840184","27.022580","10.958775","0.021682","688018","797030","833172","22.958508","9.053417","0.024012","736026","817852","891052","18.249858","6.847436","0.026864","685274","855737","962901","11.603825","4.295403","0.037029","3464","7339","10382","3240","5966","7826","3222","5620","7182","3233","5177","6344","3137","4626","5501","DualSpot on"
"MA200-0420","49347","79","1","1.10","1.6","2023-08-08T19:10:00","120","2023/08/08","19:10:00","-15.795631349086761","35.00269933277741","0.2","13","300","64","98","-548","-26803","232","1","150","149.69","117.85","31.84","22.18","38.0","7.16","90620","22.06","DUALSPOT-UV-BLUE-GREEN-RED-IR","525199","590355","903700","40.929504","18.095418","0.016046","670016","799469","837925","27.613938","11.242423","0.020522","682974","793503","831530","23.495544","9.297503","0.022571","730829","814249","888911","18.715806","7.045805","0.025651","685877","858271","967038","11.944111","4.430353","0.035709","3692","7633","10756","3719","6604","8584","3783","6364","8054","3966","6250","7629","4033","5920","7033","DualSpot on"
"MA200-0420","49348","79","1","1.10","1.6","2023-08-08T19:15:00","120","2023/08/08","19:15:00","-15.795685172080994","35.00275699957274","0.0","12","300","64","98","-424","-26788","-148","1","150","150.21","117.88","32.33","22.09","38.3","7.22","90624","21.94","DUALSPOT-UV-BLUE-GREEN-RED-IR","524312","591015","908101","41.584984","18.469800","0.015889","664600","795049","835372","28.126340","11.493983","0.020334","682636","795084","834981","23.958548","9.513629","0.022454","726002","810710","886552","19.111448","7.215237","0.024815","682942","856071","965664","12.231712","4.544514","0.033996","3266","6801","9626","3222","5768","7527","3260","5550","7057","3367","5258","6404","3408","4932","5834","DualSpot on"
"MA200-0420","49349","79","1","1.10","1.6","2023-08-08T19:20:00","120","2023/08/08","19:20:00","-15.795701324939728","35.00269033294171","0.1","13","300","64","98","-288","-27244","-912","1","150","149.94","118.19","31.75","22.02","38.7","7.31","90624","21.88","DUALSPOT-UV-BLUE-GREEN-RED-IR","518134","585803","903552","42.269728","18.855626","0.015722","662975","795370","837988","28.684510","11.765353","0.020170","676564","790136","831736","24.464388","9.745780","0.022103","725476","812209","889821","19.550918","7.400875","0.024523","678120","851666","961885","12.551643","4.669703","0.033541","3402","7137","10144","3501","6336","8307","3553","6070","7736","3730","5865","7166","3781","5507","6530","DualSpot on"
"MA200-0420","49350","79","1","1.10","1.6","2023-08-08T19:25:00","120","2023/08/08","19:25:00","-15.79559075832367","35.00275499979034","0.2","13","300","64","98","-392","-26919","-208","1","150","150.27","118.09","32.18","21.95","39.1","7.38","90628","21.81","DUALSPOT-UV-BLUE-GREEN-RED-IR","515048","584058","904626","42.983936","19.269832","0.015625","659228","793190","838089","29.262084","12.051077","0.019853","673518","788812","832374","24.989398","9.992332","0.021871","723011","811482","890789","20.005784","7.598318","0.024431","676316","851087","962516","12.880844","4.803445","0.034088","3552","7560","10817","3625","6582","8652","3691","6361","8140","3864","6155","7559","3894","5806","6942","DualSpot on"
"MA200-0420","49351","79","1","1.10","1.6","2023-08-08T19:30:00","120","2023/08/08","19:30:00","-15.795630037784576","35.00277266628109","0.1","12","300","64","98","-752","-26260","-320","1","150","149.95","117.93","32.02","21.90","39.3","7.43","90624","21.75","DUALSPOT-UV-BLUE-GREEN-RED-IR","513514","584166","908824","43.743052","19.713658","0.015485","653752","789019","836270","29.877486","12.361128","0.019860","668535","785228","830836","25.547900","10.258120","0.021804","717453","807457","888287","20.490582","7.811992","0.024489","677045","853827","967054","13.241428","4.949178","0.033092","3780","8140","11717","3868","7177","9513","3931","6891","8876","4124","6694","8278","4271","6357","7602","DualSpot on"
"MA200-0420","49352","79","1","1.10","1.6","2023-08-08T19:35:00","120","2023/08/08","19:35:00","-15.795728325843811","35.00273183290847","0.3","12","300","64","98","-448","-27144","-1280","1","150","149.76","117.81","31.94","21.82","39.7","7.49","90624","21.69","DUALSPOT-UV-BLUE-GREEN-RED-IR","508852","580543","907050","44.461752","20.140706","0.015414","653471","790889","840692","30.445992","12.650562","0.019715","668124","786880","834614","26.064308","10.506179","0.021631","713142","804612","886870","20.937000","8.008690","0.024025","674007","851630","965845","13.566299","5.082053","0.033053","3583","7851","11387","3577","6716","8948","3639","6446","8342","3801","6177","7649","3852","5810","6983","DualSpot on"
"MA200-0420","49353","79","1","1.10","1.6","2023-08-08T19:40:00","120","2023/08/08","19:40:00","-15.795684039592743","35.002769832732156","0.2","12","300","64","97","-516","-26747","784","1","150","150.21","117.89","32.32","21.76","40.1","7.58","90624","21.63","DUALSPOT-UV-BLUE-GREEN-RED-IR","502697","575234","902771","45.205344","20.587192","0.015176","647028","785303","837242","31.027516","12.949759","0.019361","662220","782017","831592","26.591986","10.762208","0.021205","711645","804973","889064","21.391180","8.210549","0.023467","669161","847199","962093","13.901203","5.217026","0.030884","3704","8113","11800","3656","6862","9158","3716","6576","8521","3865","6265","7761","3968","5833","6953","DualSpot on"
"MA200-0420","49354","79","1","1.10","1.6","2023-08-08T19:45:00","120","2023/08/08","19:45:00","-15.79565715789795","35.00273233279586","0.1","12","300","64","98","-500","-26473","-376","1","150","149.95","117.93","32.02","21.69","40.6","7.71","90628","21.56","DUALSPOT-UV-BLUE-GREEN-RED-IR","499398","573000","903285","45.919960","21.030858","0.015322","643561","783211","837498","31.595542","13.246793","0.019450","659047","780320","831886","27.108786","11.016696","0.021327","708943","803905","889685","21.842696","8.413163","0.023574","667584","846903","963054","14.236019","5.351851","0.030647","3559","8137","12006","3570","6876","9263","3638","6598","8624","3841","6348","7918","3966","5881","7035","DualSpot on"
"MA200-0420","49355","79","1","1.10","1.6","2023-08-08T19:50:00","120","2023/08/08","19:50:00","-15.795619189739227","35.00276399985887","0.0","12","300","64","98","-296","-26916","-320","1","150","149.84","117.92","31.92","21.62","41.1","7.84","90636","21.50","DUALSPOT-UV-BLUE-GREEN-RED-IR","497954","572896","907188","46.642284","21.481114","0.015162","642354","783917","840810","32.175766","13.550133","0.019167","657866","781080","834868","27.638556","11.275285","0.020830","703670","799979","887170","22.304294","8.617736","0.022842","667769","848932","966663","14.579617","5.486185","0.028537","3597","8285","12287","3647","7045","9517","3729","6726","8790","3927","6430","8006","4070","5879","6970","DualSpot on"
"MA200-0420","49356","79","1","1.10","1.6","2023-08-08T19:55:00","120","2023/08/08","19:55:00","-15.79567414522171","35.00274433288723","0.1","12","300","64","98","-196","-27332","280","1","150","149.74","117.74","32.00","21.55","41.6","7.96","90636","21.44","DUALSPOT-UV-BLUE-GREEN-RED-IR","491681","567507","903529","47.506616","22.024140","0.014939","635650","778288","837901","32.879796","13.923003","0.018916","651732","776309","832428","28.284748","11.595548","0.020596","702039","800619","890154","22.872820","8.874704","0.022733","663142","845206","964098","15.010719","5.660302","0.029195","4311","9966","14854","4432","8637","11725","4556","8308","10915","4844","8056","10092","5115","7600","9105","DualSpot on"
"MA200-0420","49357","79","1","1.10","1.6","2023-08-08T20:00:00","120","2023/08/08","20:00:00","-15.79582816362381","35.002650666516274","0.1","12","300","64","98","-324","-27103","-332","1","150","149.44","117.34","32.10","21.48","42.2","8.09","90636","21.31","DUALSPOT-UV-BLUE-GREEN-RED-IR","491292","568564","909782","48.276272","22.526360","0.014955","630880","774743","836989","33.522068","14.271071","0.018816","647227","773168","831542","28.875308","11.894644","0.020483","698019","798321","889730","23.398130","9.112300","0.022092","660263","843575","963815","15.411652","5.820091","0.027467","3852","9189","13858","4057","8038","10989","4178","7735","10227","4491","7425","9297","4773","6953","8276","DualSpot on"
"MA200-0420","49358","79","1","1.10","1.6","2023-08-08T20:05:00","120","2023/08/08","20:05:00","-15.795628666877747","35.002795999636874","0.1","12","300","64","98","-228","-27191","28","1","150","150.28","117.93","32.35","21.42","42.6","8.18","90640","21.25","DUALSPOT-UV-BLUE-GREEN-RED-IR","487297","565384","909332","49.039020","23.034916","0.014878","626185","771149","836072","34.162572","14.627375","0.018810","642884","770213","830882","29.468916","12.199924","0.020322","693437","795303","888563","23.926336","9.359119","0.022406","657062","841528","963032","15.820381","5.984872","0.027206","3798","9234","14049","4026","8165","11265","4179","7835","10418","4493","7655","9686","4841","7116","8500","DualSpot on"
"MA200-0420","49359","79","1","1.10","1.6","2023-08-08T20:10:00","120","2023/08/08","20:10:00","-15.79559463262558","35.002766833174974","0.1","12","300","64","98","-356","-26996","-640","1","150","150.28","118.28","31.99","21.37","42.9","8.25","90644","21.25","DUALSPOT-UV-BLUE-GREEN-RED-IR","482637","561378","907424","49.792876","23.536816","0.014759","625640","772661","840656","34.796276","14.979776","0.018670","638601","767237","830229","30.054300","12.503932","0.020355","689338","792824","887958","24.449158","9.603997","0.022353","654243","839945","962800","16.227913","6.150536","0.027577","3743","9214","14119","3971","8166","11336","4108","7889","10582","4434","7679","9778","4812","7233","8711","DualSpot on"
"MA200-0420","49360","79","1","1.10","1.6","2023-08-08T20:15:00","120","2023/08/08","20:15:00","-15.795661985874176","35.00268749939278","0.1","11","300","64","98","-600","-27060","584","1","150","149.32","117.57","31.74","21.33","43.2","8.30","90644","21.19","DUALSPOT-UV-BLUE-GREEN-RED-IR","477418","556697","904435","50.555320","24.047204","0.014605","620141","768012","838630","35.433960","15.339214","0.018551","636892","767322","832888","30.644926","12.814210","0.020204","682526","787161","883804","24.977078","9.855553","0.022350","653367","840833","965445","16.636116","6.318477","0.027526","3808","9444","14556","4020","8394","11733","4170","8115","10950","4504","7951","10197","4850","7391","8947","DualSpot on"
"MA200-0420","49361","79","1","1.10","1.6","2023-08-08T20:20:00","120","2023/08/08","20:20:00","-15.795653522014618","35.00273016630672","0.1","11","300","68","98","-437","-26862","-397","2","150","150.21","114.63","35.58","21.27","43.7","8.42","90640","21.13","DUALSPOT-UV-BLUE-GREEN-RED-IR","779975","699916","903822","0.000000","0.000000","0.000000","881210","893003","839822","0.000000","0.000000","0.000000","864088","871296","835519","0.000000","0.000000","0.000000","876022","869387","887167","0.000000","0.000000","0.000000","769578","892279","963043","0.000000","0.000000","0.000000","","","","","","","","","","","","","","","","Tape advance-DualSpot on"
"MA200-0420","49362","79","1","1.10","1.6","2023-08-08T20:25:00","120","2023/08/08","20:25:00","-15.795650720596313","35.00277299946174","0.1","11","300","68","98","-308","-26929","0","2","150","149.76","114.65","35.10","21.19","44.1","8.48","90652","21.06","DUALSPOT-UV-BLUE-GREEN-RED-IR","772347","700509","909133","0.000000","0.000000","0.000000","871516","889019","838648","0.000000","0.000000","0.000000","855633","867489","833971","0.000000","0.000000","0.000000","875590","872646","892182","0.000000","0.000000","0.000000","770360","895525","967605","0.000000","0.000000","0.000000","","","","","","","","","","","","","","","","Tape advance-DualSpot on"
"MA200-0420","49363","79","1","1.10","1.6","2023-08-08T20:30:00","120","2023/08/08","20:30:00","-15.795638680458069","35.00274633290246","0.1","12","300","64","98","-328","-26756","-692","2","150","149.41","114.48","34.93","21.11","44.4","8.51","90656","21.00","DUALSPOT-UV-BLUE-GREEN-RED-IR","760011","695854","907263","1.406127","0.460638","0.000000","861576","884070","836342","0.872552","0.280338","0.000000","848271","864290","832824","0.722843","0.231152","0.000000","869222","869607","890617","0.556835","0.174733","0.000000","767045","893744","966658","0.335487","0.101755","0.000000","7214","7746","7214","5650","5950","5650","5242","5494","5242","4879","5019","4879","4093","4069","4093","DualSpot on"
"MA200-0420","49364","79","1","1.10","1.6","2023-08-08T20:35:00","120","2023/08/08","20:35:00","-15.795620203018188","35.00278233294375","0.0","13","300","64","98","-488","-27000","-215","2","150","150.41","114.61","35.79","21.05","44.7","8.54","90664","20.94","DUALSPOT-UV-BLUE-GREEN-RED-IR","748757","691474","905438","2.698276","0.891414","0.000000","859545","886787","841041","1.672250","0.538688","0.000000","841144","860901","831317","1.384812","0.440722","0.000000","862510","865907","888237","1.064567","0.332028","0.000000","763314","891296","964932","0.641399","0.193302","0.000000","6621","7068","6621","5172","5350","5172","4795","4860","4795","4444","4408","4444","3728","3572","3728","DualSpot on"
"MA200-0420","49365","79","1","1.10","1.6","2023-08-08T20:40:00","120","2023/08/08","20:40:00","-15.795632004737854","35.00274549960159","0.0","13","300","64","98","-475","-26875","-37","2","150","150.34","114.38","35.97","21.00","44.9","8.57","90668","20.88","DUALSPOT-UV-BLUE-GREEN-RED-IR","738573","687808","904546","3.966846","1.322094","0.026894","851477","883225","839872","2.475202","0.800406","0.000000","839690","863344","835424","2.053195","0.654023","0.000000","856487","862954","886628","1.581431","0.492425","0.000000","760000","889353","963740","0.956886","0.289595","0.000000","6514","7033","7292","5204","5394","5204","4851","4923","4851","4533","4474","4533","3853","3740","3853","DualSpot on"
"MA200-0420","49366","79","1","1.10","1.6","2023-08-08T20:45:00","120","2023/08/08","20:45:00","-15.79565280675888","35.00263883289881","0.0","13","300","64","98","-384","-26775","-376","2","150","149.63","114.89","34.74","20.98","45.0","8.59","90672","20.88","DUALSPOT-UV-BLUE-GREEN-RED-IR","728273","683950","903463","5.256162","1.766006","0.032881","843260","879642","838738","3.311944","1.073568","0.031860","832844","860394","834488","2.757178","0.880324","0.000000","851807","861516","886674","2.133171","0.664820","0.000000","757133","888204","963449","1.302850","0.391399","0.000000","6591","7506","7968","5399","5829","6036","5087","5408","5087","4818","4979","4818","4206","4094","4206","DualSpot on"
"MA200-0420","49367","79","1","1.10","1.6","2023-08-08T20:50:00","120","2023/08/08","20:50:00","-15.795606911182404","35.00275549967773","0.2","13","300","64","98","-516","-26932","-272","2","150","150.28","115.32","34.95","20.93","45.1","8.58","90672","20.81","DUALSPOT-UV-BLUE-GREEN-RED-IR","724655","685747","909590","6.429399","2.178011","0.030091","837002","877577","838896","4.074447","1.326429","0.030054","827447","858547","834378","3.395682","1.085877","0.024651","852900","865589","892264","2.634388","0.821341","0.000000","754448","886983","963015","1.613889","0.484169","0.000000","5975","6923","7408","4901","5362","5585","4596","4882","5016","4360","4492","4360","3767","3707","3767","DualSpot on"
"MA200-0420","49368","79","1","1.10","1.6","2023-08-08T20:55:00","120","2023/08/08","20:55:00","-15.79554533958435","35.002816666383296","0.2","13","300","64","98","-408","-27047","-68","2","150","149.76","115.01","34.75","20.90","45.2","8.57","90668","20.81","DUALSPOT-UV-BLUE-GREEN-RED-IR","716191","682664","909200","7.561035","2.586946","0.030360","829222","873654","837307","4.818796","1.582467","0.035468","822109","856548","834210","4.023132","1.296716","0.035290","848549","864049","892104","3.127792","0.980937","0.029799","751979","885965","962870","1.925058","0.581444","0.000000","5779","6912","7501","4798","5462","5787","4529","5037","5279","4304","4607","4746","3779","3910","3779","DualSpot on"
"MA200-0420","49369","79","1","1.10","1.6","2023-08-08T21:00:00","120","2023/08/08","21:00:00","-15.79563021659851","35.00271549937315","0.1","13","300","64","98","-340","-26875","-264","2","150","149.71","115.20","34.51","20.90","45.2","8.57","90664","20.81","DUALSPOT-UV-BLUE-GREEN-RED-IR","708011","679519","908505","8.638641","2.977872","0.028182","822530","870715","836496","5.532670","1.824956","0.030080","816109","853717","833110","4.626881","1.496398","0.028781","843016","861181","890466","3.604565","1.133417","0.024864","753315","889437","967479","2.227523","0.671757","0.000000","5494","6653","7262","4593","5208","5511","4351","4803","5019","4152","4432","4561","3667","3655","3667","DualSpot on"
"MA200-0420","49370","79","1","1.10","1.6","2023-08-08T21:05:00","120","2023/08/08","21:05:00","-15.795649886131287","35.00269699958153","0.0","12","300","72","98","-416","-26979","-108","2","150","149.95","115.28","34.67","20.86","45.2","8.55","90664","20.75","DUALSPOT-UV-BLUE-GREEN-RED-IR","698324","674396","904958","9.624302","3.340763","0.026570","820980","872823","840414","6.188988","2.049934","0.027954","701983","737056","720607","5.182024","1.682144","0.027586","836267","856807","887231","4.042599","1.274071","0.022280","749253","886302","964929","2.503229","0.756663","0.000000","5021","6148","6747","4220","4810","5103","3997","4448","4664","3812","4070","4189","3340","3421","3340","DualSpot on"
"MA200-0420","49371","79","1","1.10","1.6","2023-08-08T21:10:00","120","2023/08/08","21:10:00","-15.7956303358078","35.00272416626103","0.2","12","300","64","98","-340","-27460","292","2","150","149.95","115.28","34.67","20.78","45.4","8.54","90668","20.69","DUALSPOT-UV-BLUE-GREEN-RED-IR","690841","670884","903282","10.519169","3.674284","0.025567","815138","870013","839462","6.788578","2.258801","0.028260","804765","847815","830297","5.688611","1.852297","0.025978","833110","855959","887485","4.446330","1.404243","0.021463","747150","885358","964633","2.757202","0.834822","0.000000","4559","5650","6236","3855","4466","4770","3648","4074","4280","3513","3767","3884","3077","3149","3077","DualSpot on"
"MA200-0420","49372","79","1","1.10","1.6","2023-08-08T21:15:00","120","2023/08/08","21:15:00","-15.795603811740875","35.00276666646823","0.1","12","300","64","98","-404","-26908","-258","2","150","150.21","115.24","34.97","20.72","45.5","8.53","90664","20.56","DUALSPOT-UV-BLUE-GREEN-RED-IR","689513","672929","908717","11.312925","3.971511","0.023435","809492","866995","838066","7.322133","2.443921","0.024200","805022","850635","834338","6.141636","2.005428","0.023574","834522","859499","892180","4.804943","1.518794","0.014904","744612","883759","963585","2.985874","0.904541","0.000000","4045","4992","5504","3432","3924","4171","3263","3635","3816","3121","3286","3362","2771","2785","2771","DualSpot on"
"MA200-0420","49373","79","1","1.10","1.6","2023-08-08T21:20:00","120","2023/08/08","21:20:00","-15.795593619346619","35.002760333009064","0.3","12","300","64","98","-370","-27083","129","2","150","149.60","115.25","34.35","20.68","45.7","8.53","90664","20.56","DUALSPOT-UV-BLUE-GREEN-RED-IR","683425","669809","906841","11.993134","4.230186","0.024930","802971","862559","835184","7.786961","2.609539","0.029188","800756","848339","833202","6.537617","2.141684","0.028599","830147","856798","890295","5.120287","1.622899","0.026613","742052","881934","962185","3.186750","0.967350","0.020708","3466","4423","4944","2989","3574","3869","2852","3293","3508","2745","3040","3178","2434","2554","2606","DualSpot on"
"MA200-0420","49374","79","1","1.10","1.6","2023-08-08T21:25:00","120","2023/08/08","21:25:00","-15.795677721500397","35.00274766632356","0.1","12","300","64","98","-344","-26747","-384","2","150","149.89","115.64","34.25","20.65","45.7","8.53","90668","20.56","DUALSPOT-UV-BLUE-GREEN-RED-IR","679173","668094","906587","12.587574","4.458128","0.024897","800299","861962","835814","8.195244","2.754575","0.028194","798172","847488","833383","6.884938","2.261626","0.028797","828393","856560","890860","5.398612","1.715630","0.028685","741014","881782","962570","3.364116","1.022848","0.022330","3019","3909","4397","2617","3139","3403","2493","2907","3110","2414","2716","2857","2142","2263","2316","DualSpot on"
"MA200-0420","49375","79","1","1.10","1.6","2023-08-08T21:30:00","120","2023/08/08","21:30:00","-15.79561048746109","35.00279283290729","0.1","13","300","64","98","-460","-26972","-420","2","150","149.69","115.48","34.21","20.60","45.9","8.53","90668","20.50","DUALSPOT-UV-BLUE-GREEN-RED-IR","675169","666432","906212","13.139736","4.668648","0.023445","796515","859984","835003","8.574667","2.888608","0.026235","794519","845437","832262","7.209443","2.372455","0.025744","824388","853892","888865","5.658936","1.800605","0.022976","743208","885426","967004","3.531799","1.073741","0.009645","2808","3614","4058","2435","2904","3142","2332","2689","2864","2261","2492","2599","2028","2078","2099","DualSpot on"
"MA200-0420","49376","79","1","1.10","1.6","2023-08-08T21:35:00","120","2023/08/08","21:35:00","-15.795644879341125","35.002722666133195","0.1","13","300","64","98","-431","-26740","-424","2","150","149.32","115.99","33.32","20.55","45.9","8.50","90668","20.44","DUALSPOT-UV-BLUE-GREEN-RED-IR","668094","662230","902856","13.822285","4.929945","0.024658","795369","861483","837939","9.067153","3.065693","0.030386","789245","842162","830300","7.636366","2.521866","0.032188","819079","850359","886185","6.006158","1.916507","0.031994","740112","883116","965244","3.762931","1.148330","0.040077","3456","4605","5243","3147","3939","4344","3055","3722","4051","3003","3489","3717","2783","3127","3277","DualSpot on"
"MA200-0420","49377","79","1","1.10","1.6","2023-08-08T21:40:00","120","2023/08/08","21:40:00","-15.795668542385101","35.002689332701266","0.2","13","300","64","98","-174","-27277","362","2","150","149.82","116.63","33.19","20.47","46.0","8.46","90664","20.38","DUALSPOT-UV-BLUE-GREEN-RED-IR","663694","660120","901949","14.384598","5.147196","0.024857","792327","860318","837984","9.456928","3.204697","0.029264","786360","840922","830067","7.970531","2.638256","0.031442","816525","849261","885837","6.274600","2.004438","0.028918","738617","882360","964928","3.936699","1.203471","0.036066","2831","3844","4408","2477","3104","3425","2378","2911","3174","2309","2657","2821","2081","2320","2425","DualSpot on"
"MA200-0420","49378","79","1","1.10","1.6","2023-08-08T21:45:00","120","2023/08/08","21:45:00","-15.795727133750916","35.00265016662888","0.4","13","300","64","98","-252","-27524","208","2","150","150.33","116.14","34.19","20.47","46.2","8.51","90664","20.38","DUALSPOT-UV-BLUE-GREEN-RED-IR","663638","663243","908997","15.167765","5.452085","0.022073","787107","857850","837410","10.044814","3.419852","0.026818","786956","844377","834990","8.486928","2.821463","0.027696","818816","854061","892187","6.706734","2.154255","0.030927","736162","881249","964661","4.237995","1.300639","0.028568","3960","5237","5954","3752","4664","5135","3691","4448","4825","3732","4396","4709","3623","3969","4123","DualSpot on"
"MA200-0420","49379","79","1","1.10","1.6","2023-08-08T21:50:00","120","2023/08/08","21:50:00","-15.795669376850128","35.002751666354015","0.0","13","300","64","98","-396","-27008","4","2","150","150.64","116.82","33.82","20.47","46.2","8.53","90672","20.38","DUALSPOT-UV-BLUE-GREEN-RED-IR","656730","659116","905845","15.863853","5.727993","0.023079","780597","853425","834624","10.542127","3.603130","0.027802","781637","840997","832928","8.919960","2.975773","0.028840","814493","851543","890615","7.060108","2.275055","0.029817","732678","878519","962380","4.479793","1.377344","0.027097","3499","4791","5521","3155","4017","4464","3077","3787","4143","3034","3583","3844","2891","3168","3290","DualSpot on"
"MA200-0420","49380","79","1","1.10","1.6","2023-08-08T21:55:00","120","2023/08/08","21:55:00","-15.79567551612854","35.00273283268325","0.1","13","300","64","98","-416","-27019","-164","2","150","149.38","116.55","32.83","20.47","46.2","8.53","90672","20.31","DUALSPOT-UV-BLUE-GREEN-RED-IR","653723","658688","907568","16.513260","5.985344","0.023591","779336","854484","836969","10.985480","3.764343","0.027926","779571","840862","833914","9.303592","3.111028","0.029488","812934","851643","891641","7.366651","2.377491","0.029289","732400","879413","964006","4.683664","1.440778","0.028027","3272","4604","5361","2820","3640","4068","2732","3420","3766","2638","3130","3364","2443","2699","2812","DualSpot on"
"MA200-0420","49381","79","1","1.10","1.6","2023-08-08T22:00:00","120","2023/08/08","22:00:00","-15.79569661617279","35.00262449984439","0.0","13","300","64","97","-472","-26972","-228","2","150","149.95","116.94","33.01","20.47","46.4","8.58","90676","20.25","DUALSPOT-UV-BLUE-GREEN-RED-IR","648402","655831","905943","17.153424","6.242664","0.023319","779122","856646","840454","11.425677","3.927314","0.028177","775847","838891","833066","9.680738","3.244155","0.028271","809003","849220","890035","7.673653","2.481544","0.029818","730068","877864","962901","4.887119","1.504854","0.029317","3215","4578","5358","2790","3660","4115","2677","3348","3686","2633","3162","3415","2430","2711","2836","DualSpot on"
"MA200-0420","49382","79","1","1.10","1.6","2023-08-08T22:05:00","120","2023/08/08","22:05:00","-15.795673489570618","35.00276549952105","0.0","13","300","64","98","-512","-26988","-12","2","150","150.08","116.90","33.19","20.34","46.6","8.54","90668","20.19","DUALSPOT-UV-BLUE-GREEN-RED-IR","642446","652048","902871","17.738408","6.478203","0.022392","773934","853131","838266","11.837012","4.078036","0.025955","770959","835493","830768","10.035253","3.371048","0.028098","803714","845281","886762","7.960188","2.577214","0.025954","731086","880183","966047","5.075750","1.566511","0.035384","2939","4168","4876","2608","3366","3765","2517","3174","3506","2459","2892","3099","2254","2595","2747","DualSpot on"
"MA200-0420","49383","79","1","1.10","1.6","2023-08-08T22:10:00","120","2023/08/08","22:10:00","-15.795702159404755","35.00271066627465","0.1","13","300","64","98","-500","-26975","-229","2","150","149.59","116.94","32.65","20.30","46.9","8.57","90672","20.19","DUALSPOT-UV-BLUE-GREEN-RED-IR","643643","655430","909653","18.300416","6.711406","0.023730","770505","851441","837850","12.232765","4.227304","0.028529","767830","833895","830196","10.375638","3.494590","0.030010","807436","850764","893348","8.239300","2.673977","0.031976","729559","879466","965816","5.258566","1.624188","0.030090","2822","4195","4989","2508","3389","3853","2416","3141","3509","2394","2973","3251","2183","2467","2594","DualSpot on"
"MA200-0420","49384","79","1","1.10","1.6","2023-08-08T22:15:00","120","2023/08/08","22:15:00","-15.795664489269257","35.002831999445334","0.1","13","300","64","98","-475","-26924","-644","2","150","149.69","117.22","32.47","20.22","47.0","8.54","90672","20.06","DUALSPOT-UV-BLUE-GREEN-RED-IR","636017","651081","906855","19.185832","7.068527","0.021853","762213","845978","834706","12.934945","4.492062","0.027536","766177","835493","833668","11.007893","3.726625","0.029917","801231","847167","891286","8.776192","2.861363","0.031712","725625","876973","964325","5.644956","1.753377","0.040899","4436","6459","7639","4440","6044","6897","4478","5932","6676","4595","5789","6367","4604","5557","5987","DualSpot on"
"MA200-0420","49385","79","1","1.10","1.6","2023-08-08T22:20:00","120","2023/08/08","22:20:00","-15.795624911785126","35.002812166232616","0.1","13","300","64","98","-524","-27060","-76","2","150","150.34","116.98","33.36","20.13","47.3","8.55","90668","20.00","DUALSPOT-UV-BLUE-GREEN-RED-IR","630466","647484","903857","19.731076","7.291996","0.020754","763146","849116","839055","13.336623","4.643172","0.024646","761724","832466","831749","11.358715","3.854137","0.025844","796057","843290","888067","9.066797","2.960862","0.025315","722607","874434","962148","5.839981","1.815843","0.025967","2737","3934","4636","2545","3357","3791","2489","3173","3524","2492","2992","3234","2328","2615","2745","DualSpot on"
"MA200-0420","49386","79","1","1.10","1.6","2023-08-08T22:25:00","120","2023/08/08","22:25:00","-15.795705676078796","35.002754166256636","0.1","12","300","64","98","-433","-27179","537","2","150","150.07","117.18","32.90","20.05","47.7","8.61","90664","19.88","DUALSPOT-UV-BLUE-GREEN-RED-IR","630779","649722","908896","20.239288","7.504303","0.021578","758552","845954","837128","13.706434","4.784107","0.025856","757594","829620","829904","11.682553","3.971586","0.026236","798316","847194","893004","9.332753","3.052028","0.026476","724150","877372","965932","6.014776","1.873623","0.034049","2547","3790","4522","2339","3175","3623","2294","2963","3308","2277","2780","3024","2083","2453","2620","DualSpot on"
"MA200-0420","49387","79","1","1.10","1.6","2023-08-08T22:30:00","120","2023/08/08","22:30:00","-15.79567700624466","35.00274866609834","0.3","12","300","64","98","-704","-26883","191","2","150","150.34","117.26","33.08","19.96","48.3","8.70","90660","19.81","DUALSPOT-UV-BLUE-GREEN-RED-IR","624601","645282","904645","20.755104","7.721756","0.021218","757190","846451","838791","14.087075","4.927659","0.024217","757184","830937","832224","12.014777","4.093349","0.025969","792944","842969","889375","9.604806","3.145718","0.025716","720733","874273","963056","6.194452","1.931032","0.026050","2583","3860","4617","2406","3216","3652","2352","3055","3419","2327","2841","3091","2140","2424","2552","DualSpot on"
"MA200-0420","49388","79","1","1.10","1.6","2023-08-08T22:35:00","120","2023/08/08","22:35:00","-15.795719027519226","35.002754166256636","0.2","13","300","64","98","-520","-27084","-176","2","150","150.21","116.90","33.31","19.88","48.7","8.76","90656","19.75","DUALSPOT-UV-BLUE-GREEN-RED-IR","620849","643324","903958","21.277798","7.948375","0.021350","754029","844871","838477","14.467381","5.076861","0.025386","754364","829577","831882","12.347809","4.219324","0.026902","790063","841401","888588","9.879397","3.243638","0.027567","719123","873397","962674","6.375248","1.991941","0.032866","2626","3995","4812","2411","3320","3811","2365","3139","3541","2356","2949","3238","2160","2554","2733","DualSpot on"
"MA200-0420","49389","79","1","1.10","1.6","2023-08-08T22:40:00","120","2023/08/08","22:40:00","-15.79556918144226","35.00280899950303","0.2","12","300","64","98","-516","-27100","-148","2","150","150.15","116.97","33.17","19.82","49.0","8.78","90660","19.69","DUALSPOT-UV-BLUE-GREEN-RED-IR","620997","645362","908930","21.805886","8.179111","0.021272","750265","842609","837476","14.849336","5.227607","0.025370","750669","827201","830555","12.680989","4.345733","0.026770","786098","838657","886557","10.154758","3.341262","0.026741","721481","877334","967617","6.560590","2.053978","0.031680","2651","4085","4945","2420","3368","3883","2364","3163","3580","2361","2952","3242","2213","2612","2794","DualSpot on"
"MA200-0420","49390","79","1","1.10","1.6","2023-08-08T22:45:00","120","2023/08/08","22:45:00","-15.795496821403503","35.00283616641536","0.2","12","300","64","98","-416","-26963","-580","2","150","150.08","116.94","33.15","19.75","49.2","8.79","90660","19.63","DUALSPOT-UV-BLUE-GREEN-RED-IR","616755","642926","907669","22.354778","8.421711","0.021153","745641","839353","835600","15.244846","5.385589","0.025414","747314","825237","829712","13.026082","4.478427","0.027020","789436","843719","892852","10.437498","3.443637","0.028041","719523","876059","966839","6.748474","2.116804","0.030731","2757","4298","5230","2507","3533","4093","2450","3323","3780","2425","3098","3429","2244","2647","2831","DualSpot on"
"MA200-0420","49391","79","1","1.10","1.6","2023-08-08T22:50:00","120","2023/08/08","22:50:00","-15.795665979385376","35.002758499700576","0.1","13","300","64","98","-400","-27060","-268","2","150","149.35","117.12","32.23","19.68","49.6","8.83","90668","19.50","DUALSPOT-UV-BLUE-GREEN-RED-IR","611453","639466","905088","22.930412","8.673668","0.021249","745850","841723","839339","15.660301","5.550730","0.026045","747320","827122","832720","13.386169","4.614129","0.026943","784781","840384","890233","10.734494","3.547909","0.027196","716365","873383","964497","6.947298","2.181906","0.031231","2886","4592","5629","2629","3798","4440","2552","3496","3992","2544","3246","3592","2371","2822","3028","DualSpot on"
"MA200-0420","49392","79","1","1.10","1.6","2023-08-08T22:55:00","120","2023/08/08","22:55:00","-15.795662522315979","35.00281616603024","0.0","13","300","64","98","-435","-27072","384","2","150","149.56","116.82","32.74","19.57","49.9","8.83","90668","19.44","DUALSPOT-UV-BLUE-GREEN-RED-IR","609437","639503","907535","23.528800","8.938538","0.020533","744958","842934","841963","16.094452","5.723011","0.024379","741805","822937","829713","13.765970","4.760784","0.026602","778506","835335","885880","11.047620","3.659963","0.026516","717194","875610","967598","7.155416","2.251980","0.031762","3008","4752","5820","2754","3901","4533","2699","3719","4258","2689","3434","3803","2488","2990","3220","DualSpot on"
"MA200-0420","49393","79","1","1.10","1.6","2023-08-08T23:00:00","120","2023/08/08","23:00:00","-15.795649886131287","35.00275716627948","0.4","13","300","64","98","-344","-27119","52","2","150","150.28","117.18","33.10","19.48","50.2","8.83","90668","19.31","DUALSPOT-UV-BLUE-GREEN-RED-IR","604803","636779","906106","24.136550","9.207993","0.019864","740369","839948","840498","16.534986","5.899496","0.023833","742852","826100","834117","14.151755","4.907016","0.024281","780585","839301","891082","11.365783","3.774282","0.025468","714567","873643","966146","7.368755","2.321455","0.024770","3046","4781","5852","2787","3952","4599","2733","3668","4164","2724","3465","3833","2543","2932","3111","DualSpot on"
"MA200-0420","49394","79","1","1.10","1.6","2023-08-08T23:05:00","120","2023/08/08","23:05:00","-15.79566353559494","35.00277933315374","0.0","13","300","64","98","-312","-27036","264","2","150","150.41","117.14","33.27","19.41","50.5","8.85","90672","19.25","DUALSPOT-UV-BLUE-GREEN-RED-IR","598814","632607","902619","24.744354","9.482174","0.019731","734665","835653","837692","16.975648","6.077422","0.023355","738248","822905","832153","14.536576","5.056223","0.024696","776741","836881","889522","11.684633","3.887959","0.023687","712161","871949","964913","7.584034","2.392338","0.024903","3047","4840","5954","2788","3964","4620","2727","3723","4254","2730","3428","3776","2567","2976","3165","DualSpot on"
"MA200-0420","49395","79","1","1.10","1.6","2023-08-08T23:10:00","120","2023/08/08","23:10:00","-15.795642733573914","35.002800999674946","0.1","13","300","64","98","-362","-26850","-554","2","150","150.41","117.38","33.03","19.35","50.7","8.86","90680","19.25","DUALSPOT-UV-BLUE-GREEN-RED-IR","598539","634601","908156","25.394928","9.776550","0.019575","729892","832610","836274","17.454310","6.272283","0.023535","733669","819929","830489","14.958525","5.218764","0.024177","771785","833407","886976","12.036186","4.016188","0.025566","709262","869847","963411","7.827621","2.474387","0.028567","3255","5234","6473","3023","4373","5130","2984","4085","4675","3004","3894","4340","2899","3470","3733","DualSpot on"
"MA200-0420","49396","79","1","1.10","1.6","2023-08-08T23:15:00","120","2023/08/08","23:15:00","-15.795648634433746","35.00278833298944","0.2","13","300","64","98","-304","-27212","-144","2","150","149.56","117.30","32.26","19.27","51.1","8.90","90676","19.13","DUALSPOT-UV-BLUE-GREEN-RED-IR","592935","630837","905409","26.040192","10.067852","0.019629","730525","835717","840997","17.932898","6.463830","0.023184","733653","822015","833928","15.377966","5.379212","0.024410","773122","836752","891635","12.387575","4.140391","0.024203","710339","872556","967196","8.068020","2.551998","0.025117","3231","5303","6609","3024","4401","5177","2968","4128","4752","3005","3862","4292","2863","3360","3590","DualSpot on"
"MA200-0420","49397","79","1","1.10","1.6","2023-08-08T23:20:00","120","2023/08/08","23:20:00","-15.79556155204773","35.00284583331086","0.4","13","300","64","98","-380","-26912","-252","2","150","149.76","117.46","32.30","19.20","51.3","8.89","90672","19.06","DUALSPOT-UV-BLUE-GREEN-RED-IR","588129","627792","903651","26.658890","10.355350","0.019882","725017","831607","838400","18.385126","6.650828","0.023990","729708","819561","832800","15.777256","5.537470","0.025653","768596","833584","889352","12.718893","4.262090","0.026378","708070","871063","966234","8.292780","2.627104","0.028879","3093","5227","6583","2854","4291","5106","2822","4067","4741","2830","3780","4258","2673","3248","3514","DualSpot on"
"MA200-0420","49398","79","1","1.10","1.6","2023-08-08T23:25:00","120","2023/08/08","23:25:00","-15.795689940452576","35.00277249957435","0.3","14","300","64","98","-475","-26850","-208","2","150","149.41","117.31","32.10","19.09","51.6","8.87","90668","18.94","DUALSPOT-UV-BLUE-GREEN-RED-IR","585031","626551","904386","27.271012","10.638947","0.019510","722003","830332","838726","18.835936","6.838189","0.023839","727680","819253","833774","16.173052","5.694731","0.025419","762008","828141","884632","13.048224","4.384751","0.027012","703038","866184","961522","8.516993","2.701696","0.028218","3064","5189","6549","2848","4327","5170","2801","4067","4756","2816","3834","4349","2669","3246","3514","DualSpot on"
"MA200-0420","49399","79","1","1.10","1.6","2023-08-08T23:30:00","120","2023/08/08","23:30:00","-15.795774281024933","35.0026011664886","0.0","14","300","64","97","-483","-26960","-435","2","150","149.81","117.65","32.15","19.00","51.8","8.86","90668","18.88","DUALSPOT-UV-BLUE-GREEN-RED-IR","580674","623914","903183","27.882134","10.924351","0.019304","717975","827880","837806","19.287586","7.025322","0.023231","723668","816681","832429","16.570038","5.852007","0.024750","763844","831881","889723","13.379590","4.506379","0.025484","705042","869939","966434","8.742489","2.777935","0.029505","3050","5213","6607","2845","4314","5156","2801","4061","4749","2825","3795","4287","2677","3312","3608","DualSpot on"
"MA200-0420","49400","79","1","1.10","1.6","2023-08-08T23:35:00","120","2023/08/08","23:35:00","-15.79572880268097","35.00272999983281","0.2","14","300","64","98","-396","-26932","-483","2","150","150.67","117.34","33.33","18.92","52.0","8.85","90668","18.81","DUALSPOT-UV-BLUE-GREEN-RED-IR","580110","625295","907767","28.486794","11.208893","0.018248","713286","824562","836027","19.730546","7.213459","0.022219","719452","813799","830832","16.957940","6.008607","0.023282","759683","829050","887753","13.705273","4.628666","0.023862","702497","868061","965115","8.967752","2.855118","0.025902","3026","5014","6303","2798","4184","4983","2744","3900","4535","2784","3680","4138","2681","3234","3493","DualSpot on"
"MA200-0420","49401","79","1","1.10","1.6","2023-08-08T23:40:00","120","2023/08/08","23:40:00","-15.795723259449005","35.00277449958958","0.3","13","300","64","98","-491","-26850","-395","2","150","150.15","117.22","32.93","18.84","52.2","8.84","90664","18.69","DUALSPOT-UV-BLUE-GREEN-RED-IR","574316","621016","904100","29.084660","11.491810","0.018254","712325","825563","838597","20.168904","7.398730","0.021988","718844","814997","833331","17.345096","6.165709","0.023533","759725","830752","890682","14.028160","4.750832","0.024526","698310","864158","961487","9.188465","2.931169","0.027174","2995","5046","6386","2772","4171","4981","2742","3961","4633","2763","3722","4213","2630","3226","3505","DualSpot on"
"MA200-0420","49402","79","1","1.10","1.6","2023-08-08T23:45:00","120","2023/08/08","23:45:00","-15.795682966709137","35.00270216609351","0.1","13","300","64","98","-429","-26870","-595","2","150","150.21","117.42","32.80","18.78","52.5","8.84","90668","18.69","DUALSPOT-UV-BLUE-GREEN-RED-IR","570820","619201","904032","29.687092","11.780067","0.018249","709001","823764","838352","20.611518","7.586637","0.021900","716474","814207","833819","17.734202","6.322410","0.022956","758323","830885","891912","14.353920","4.873188","0.023892","697625","864599","962738","9.416237","3.009453","0.026875","3013","5162","6576","2794","4247","5093","2751","3966","4640","2783","3743","4236","2709","3334","3628","DualSpot on"
"MA200-0420","49403","79","1","1.10","1.6","2023-08-08T23:50:00","120","2023/08/08","23:50:00","-15.795629680156708","35.0028041661717","0.1","13","300","64","98","-552","-26908","-180","2","150","149.63","117.69","31.93","18.71","52.6","8.83","90664","18.63","DUALSPOT-UV-BLUE-GREEN-RED-IR","570121","620379","908377","30.287446","12.064178","0.018256","703816","819843","835904","21.052140","7.773549","0.022412","711883","810841","831709","18.123072","6.479565","0.023860","754053","827916","889789","14.677395","4.994501","0.024993","698600","867113","966273","9.639881","3.084652","0.026998","2996","5225","6701","2775","4339","5254","2743","4085","4833","2757","3811","4355","2654","3289","3588","DualSpot on"
"MA200-0420","49404","79","1","1.10","1.6","2023-08-08T23:55:00","120","2023/08/08","23:55:00","-15.795632362365723","35.00272549968213","0.2","13","300","64","98","-412","-26940","-556","2","150","150.34","117.77","32.57","18.61","52.8","8.79","90660","18.50","DUALSPOT-UV-BLUE-GREEN-RED-IR","564983","616761","905678","30.898658","12.355015","0.017657","704160","822414","840108","21.501308","7.963064","0.021161","711632","812484","834732","18.518564","6.639613","0.022645","754752","830394","893565","15.008650","5.118310","0.023176","695815","864912","964559","9.866821","3.162353","0.026294","3048","5244","6708","2827","4313","5187","2788","4079","4801","2821","3813","4327","2691","3332","3634","DualSpot on"
"MA200-0420","49405","79","1","1.10","1.6","2023-08-09T00:00:00","120","2023/08/09","00:00:00","-15.795641303062439","35.00280449935235","0.0","13","300","64","98","-384","-26988","-608","2","150","149.95","117.97","31.98","18.56","53.0","8.79","90660","18.44","DUALSPOT-UV-BLUE-GREEN-RED-IR","560489","613800","903977","31.510220","12.650383","0.017972","699924","819523","838754","21.949132","8.155574","0.021977","707711","809871","833367","18.909576","6.800666","0.023680","750712","827605","891691","15.337183","5.244132","0.025128","693311","863108","963300","10.095135","3.240792","0.027977","3044","5424","7020","2814","4462","5436","2751","4180","4983","2794","3947","4546","2703","3426","3767","DualSpot on"
"MA200-0420","49406","79","1","1.10","1.6","2023-08-09T00:05:00","120","2023/08/09","00:05:00","-15.79565167427063","35.00277466629632","0.1","13","300","64","98","-308","-26832","-512","2","150","150.08","117.50","32.58","18.49","53.1","8.74","90648","18.31","DUALSPOT-UV-BLUE-GREEN-RED-IR","558442","613507","906281","32.131126","12.951080","0.017294","693055","813535","834285","22.398736","8.352171","0.021392","702582","805890","830656","19.308238","6.966155","0.022655","743965","821844","886622","15.670212","5.373858","0.024327","693619","864774","965944","10.325317","3.320491","0.025977","3103","5420","6985","2836","4473","5446","2816","4216","5007","2843","3994","4595","2736","3417","3739","DualSpot on"
"MA200-0420","49407","79","1","1.10","1.6","2023-08-09T00:10:00","120","2023/08/09","00:10:00","-15.795660853385925","35.0027436662931","0.3","14","300","64","98","-460","-26719","-472","2","150","150.21","117.62","32.59","18.40","53.2","8.70","90652","18.31","DUALSPOT-UV-BLUE-GREEN-RED-IR","554583","611227","905717","32.759850","13.257782","0.017120","694628","817485","840045","22.857454","8.553896","0.021173","703939","809335","835605","19.710224","7.134381","0.022541","742142","821505","887429","16.004990","5.503468","0.023555","692264","864400","966286","10.555737","3.401880","0.027317","3139","5526","7149","2891","4588","5602","2837","4285","5106","2855","3989","4583","2736","3488","3845","DualSpot on"
"MA200-0420","49408","79","1","1.10","1.6","2023-08-09T00:15:00","120","2023/08/09","00:15:00","-15.79562783241272","35.002702665980905","0.0","12","300","64","98","-358","-26945","-116","2","150","149.40","117.70","31.69","18.35","53.3","8.68","90652","18.25","DUALSPOT-UV-BLUE-GREEN-RED-IR","553707","612250","910044","33.391010","13.566711","0.017351","689280","813306","837391","23.314116","8.753194","0.021381","699146","805684","833233","20.110706","7.301275","0.022989","743652","824893","892226","16.341766","5.635617","0.025154","688836","861395","963743","10.789032","3.484215","0.029154","3149","5725","7487","2876","4661","5734","2824","4371","5253","2870","4183","4874","2768","3629","4039","DualSpot on"
"MA200-0420","49409","79","1","1.10","1.6","2023-08-09T00:20:00","120","2023/08/09","00:20:00","-15.795604825019836","35.002765166340396","0.0","12","300","64","98","-379","-26991","-200","2","150","151.58","117.22","34.36","18.28","53.4","8.64","90660","18.13","DUALSPOT-UV-BLUE-GREEN-RED-IR","548219","608109","906646","34.015768","13.873829","0.015682","683841","808882","834525","23.769030","8.953762","0.018811","694452","802120","830966","20.510786","7.470425","0.020003","737797","820005","888140","16.675209","5.766458","0.020454","689668","863763","967152","11.021721","3.565431","0.019951","3130","5249","6709","2877","4327","5203","2833","4087","4805","2853","3820","4331","2773","3301","3554","DualSpot on"
"MA200-0420","49410","79","1","1.10","1.6","2023-08-09T00:25:00","120","2023/08/09","00:25:00","-15.795673787593842","35.002601499902084","0.7","12","300","64","98","-435","-26875","-492","2","150","149.89","117.93","31.96","18.23","53.6","8.65","90660","18.13","DUALSPOT-UV-BLUE-GREEN-RED-IR","544975","606432","906978","34.645792","14.185310","0.016817","686445","814078","841589","24.225834","9.155868","0.020814","691899","801018","831226","20.913134","7.640602","0.022433","735414","819070","888269","17.012730","5.899215","0.024023","688260","863299","967454","11.255859","3.648515","0.027906","3137","5725","7518","2871","4688","5792","2832","4421","5335","2871","4167","4856","2773","3631","4043","DualSpot on"
"MA200-0420","49411","79","1","1.10","1.6","2023-08-09T00:30:00","120","2023/08/09","00:30:00","-15.795649468898773","35.00268966611475","0.1","12","300","64","98","-540","-26991","-496","2","150","150.08","117.65","32.43","18.19","53.7","8.64","90648","18.06","DUALSPOT-UV-BLUE-GREEN-RED-IR","541107","604054","906340","35.288216","14.504822","0.016360","682243","811225","840341","24.690518","9.359900","0.019785","688478","798954","830499","21.321908","7.810500","0.020867","731896","816853","887069","17.356330","6.032615","0.022187","686015","861829","966642","11.496796","3.733154","0.025139","3207","5787","7587","2927","4664","5724","2884","4349","5196","2930","4127","4764","2860","3646","4023","DualSpot on"
"MA200-0420","49412","79","1","1.10","1.6","2023-08-09T00:35:00","120","2023/08/09","00:35:00","-15.795640170574188","35.00278683309443","0.2","12","300","64","98","-516","-27047","-332","2","150","149.44","117.73","31.71","18.14","53.8","8.63","90648","18.06","DUALSPOT-UV-BLUE-GREEN-RED-IR","537014","601406","905219","35.923632","14.822823","0.016527","678507","808807","839534","25.151866","9.566257","0.020520","689617","802209","835323","21.730288","7.983853","0.021937","729524","815917","887249","17.699452","6.168048","0.023551","684368","861129","966636","11.737572","3.816486","0.025308","3170","5891","7802","2904","4825","6003","2879","4539","5503","2923","4285","5013","2856","3671","4064","DualSpot on"
"MA200-0420","49413","79","1","1.10","1.6","2023-08-09T00:40:00","120","2023/08/09","00:40:00","-15.795688509941101","35.00275499979034","0.2","12","300","64","98","-424","-26708","-416","2","150","150.08","117.93","32.15","18.10","53.8","8.60","90640","18.00","DUALSPOT-UV-BLUE-GREEN-RED-IR","532377","598075","903044","36.553384","15.139858","0.016168","673224","804583","836918","25.613330","9.773512","0.019967","685665","799437","833891","22.137126","8.159097","0.021626","731483","819804","892672","18.041050","6.304154","0.023001","681676","859069","965152","11.978878","3.903407","0.026940","3136","5791","7668","2900","4778","5937","2864","4525","5494","2906","4247","4967","2858","3776","4220","DualSpot on"
"MA200-0420","49414","79","1","1.10","1.6","2023-08-09T00:45:00","120","2023/08/09","00:45:00","-15.795669376850128","35.00276766647585","0.1","12","300","64","98","-483","-26836","-344","2","150","150.15","117.77","32.38","18.07","53.9","8.60","90640","17.94","DUALSPOT-UV-BLUE-GREEN-RED-IR","532643","600242","909226","37.184792","15.458458","0.015826","669457","802076","836035","26.073234","9.980451","0.019477","681802","796759","832563","22.542214","8.332470","0.020808","727931","817497","891414","18.383056","6.441138","0.022465","679310","857420","964143","12.219479","3.987807","0.023789","3149","5780","7652","2894","4738","5881","2855","4445","5378","2913","4245","4963","2853","3641","4023","DualSpot on"
"MA200-0420","49415","79","1","1.10","1.6","2023-08-09T00:50:00","120","2023/08/09","00:50:00","-15.795662820339203","35.00269166636281","0.1","12","300","64","98","-395","-26750","-533","2","150","150.54","117.73","32.81","18.04","54.0","8.59","90640","17.94","DUALSPOT-UV-BLUE-GREEN-RED-IR","528236","597155","907483","37.819152","15.779709","0.015437","670716","805674","841566","26.540952","10.192948","0.019059","678454","794755","831925","22.953862","8.509476","0.020183","724071","814826","889709","18.728612","6.578400","0.021151","677103","855929","963313","12.463581","4.075670","0.024265","3164","5751","7604","2945","4802","5959","2902","4479","5408","2944","4197","4876","2896","3741","4152","DualSpot on"
"MA200-0420","49416","79","1","1.10","1.6","2023-08-09T00:55:00","120","2023/08/09","00:55:00","-15.795671164989471","35.00276449974626","0.0","12","300","64","98","-448","-26896","-412","2","150","150.21","117.80","32.40","18.02","54.1","8.59","90636","17.88","DUALSPOT-UV-BLUE-GREEN-RED-IR","524591","594833","906794","38.440228","16.097561","0.015527","667204","803412","840926","26.991374","10.397365","0.019038","675137","792617","831131","23.351736","8.682720","0.020612","720882","812853","888759","19.062256","6.714208","0.022322","675004","854592","962612","12.700768","4.161248","0.024938","3096","5761","7681","2834","4676","5830","2804","4438","5406","2841","4204","4945","2812","3689","4116","DualSpot on"
"MA200-0420","49417","79","1","1.10","1.6","2023-08-09T01:00:00","120","2023/08/09","01:00:00","-15.795609176158905","35.00275283283554","0.2","11","300","64","98","-404","-26940","-372","2","150","149.76","117.26","32.50","17.98","54.2","8.58","90632","17.88","DUALSPOT-UV-BLUE-GREEN-RED-IR","520924","592495","906107","39.065588","16.416134","0.015131","663790","801268","840453","27.448680","10.605762","0.018660","671978","790745","830596","23.754694","8.856291","0.019748","717544","810724","887664","19.401412","6.850488","0.021141","672817","853157","961810","12.941875","4.246549","0.022530","3132","5757","7660","2891","4753","5926","2853","4434","5374","2901","4207","4919","2872","3666","4054","DualSpot on"
"MA200-0420","49418","79","1","1.10","1.6","2023-08-09T01:05:00","120","2023/08/09","01:05:00","-15.795640528202057","35.00266949948855","0.1","11","300","64","98","-536","-26944","-320","2","150","149.89","117.73","32.15","17.96","54.3","8.60","90636","17.88","DUALSPOT-UV-BLUE-GREEN-RED-IR","516462","589178","903883","39.676676","16.731541","0.015276","659198","797635","838347","27.891782","10.809522","0.018912","672491","793090","834511","24.147334","9.028143","0.020310","713318","807530","885350","19.731854","6.986365","0.022252","674221","856209","966095","13.176029","4.331654","0.025055","3048","5761","7739","2790","4697","5904","2768","4437","5433","2815","4239","5020","2778","3697","4147","DualSpot on"
"MA200-0420","49419","79","1","1.10","1.6","2023-08-09T01:10:00","120","2023/08/09","01:10:00","-15.79566740989685","35.00274533312768","0.1","10","300","64","98","-435","-26960","-472","2","150","149.82","117.73","32.09","17.91","54.3","8.55","90632","17.75","DUALSPOT-UV-BLUE-GREEN-RED-IR","516036","590406","908704","40.293516","17.053798","0.015234","654262","793529","835777","28.341784","11.022861","0.019318","668473","790066","832790","24.543824","9.207252","0.020888","715617","811683","891166","20.065512","7.125896","0.022582","671588","854124","964565","13.409538","4.418853","0.026522","3077","5898","7968","2833","4928","6262","2795","4634","5737","2843","4362","5199","2770","3796","4300","DualSpot on"
"MA200-0420","49420","79","1","1.10","1.6","2023-08-09T01:15:00","120","2023/08/09","01:15:00","-15.795634686946869","35.002738499548286","0.1","10","300","64","98","-452","-26963","-308","2","150","149.69","117.85","31.84","17.84","54.3","8.50","90624","17.75","DUALSPOT-UV-BLUE-GREEN-RED-IR","512963","588614","908818","40.905172","17.372384","0.015090","651737","792401","836324","28.792796","11.231612","0.018720","666371","789326","833465","24.940976","9.383208","0.020302","713834","811291","891968","20.401956","7.264916","0.022115","670601","854131","965417","13.646664","4.506044","0.025662","3048","5876","7965","2837","4860","6154","2797","4588","5667","2864","4380","5218","2810","3825","4325","DualSpot on"
"MA200-0420","49421","79","1","1.10","1.6","2023-08-09T01:20:00","120","2023/08/09","01:20:00","-15.795631170272827","35.0027618331369","0.1","10","300","64","98","-444","-26784","-304","2","150","149.77","117.92","31.86","17.80","54.5","8.49","90620","17.69","DUALSPOT-UV-BLUE-GREEN-RED-IR","508865","585622","907021","41.508836","17.683784","0.014770","652566","795336","841174","29.237430","11.437055","0.018417","662254","786197","831575","25.334328","9.554469","0.019557","710026","808534","890115","20.733756","7.399258","0.021066","667756","851821","963635","13.884212","4.591385","0.023776","3006","5741","7771","2795","4780","6056","2769","4463","5489","2823","4231","5012","2814","3742","4201","DualSpot on"
"MA200-0420","49422","79","1","1.10","1.6","2023-08-09T01:25:00","120","2023/08/09","01:25:00","-15.795635223388672","35.00275666639209","0.1","10","300","64","98","-384","-26852","-56","2","150","149.50","117.53","31.96","17.75","54.6","8.47","90616","17.63","DUALSPOT-UV-BLUE-GREEN-RED-IR","502977","581757","905477","42.490076","18.168872","0.013845","646087","791110","839879","30.067288","11.808215","0.017126","656450","782763","830781","26.103630","9.884879","0.018484","703239","804138","887785","21.419278","7.677252","0.020244","663696","849545","963020","14.419594","4.789671","0.024373","4903","8914","11909","5234","8608","10790","5434","8582","10500","5851","8725","10331","6363","8666","9811","DualSpot on"
"MA200-0420","49423","79","1","1.10","1.6","2023-08-09T01:30:00","120","2023/08/09","01:30:00","-15.795716524124146","35.002760499715805","0.3","11","300","64","98","-431","-26656","-472","2","150","149.60","118.11","31.49","17.72","54.7","8.47","90608","17.56","DUALSPOT-UV-BLUE-GREEN-RED-IR","498934","579026","904567","43.209892","18.544652","0.014501","641965","788431","839287","30.652238","12.080149","0.017975","652643","780492","830274","26.639402","10.123034","0.019456","699192","801690","886756","21.893130","7.872388","0.020988","660573","847458","961894","14.785969","4.925478","0.024963","3579","7008","9586","3671","6401","8176","3766","6278","7818","4025","6216","7446","4333","6024","6868","DualSpot on"
"MA200-0420","49424","79","1","1.10","1.6","2023-08-09T01:35:00","120","2023/08/09","01:35:00","-15.7956041097641","35.00277099967934","0.1","11","300","64","98","-433","-26904","-170","2","150","150.01","118.03","31.98","17.68","54.9","8.49","90612","17.56","DUALSPOT-UV-BLUE-GREEN-RED-IR","495657","576674","903491","43.750656","18.834908","0.014460","638333","785676","837934","31.060162","12.274032","0.017864","653269","782802","834077","27.002102","10.286180","0.019107","701634","805959","892656","22.204360","8.002969","0.020786","662511","851132","966879","15.010883","5.009295","0.023997","2691","5330","7325","2562","4493","5755","2551","4234","5270","2645","4095","4913","2662","3660","4160","DualSpot on"
"MA200-0420","49425","79","1","1.10","1.6","2023-08-09T01:40:00","120","2023/08/09","01:40:00","-15.79568600654602","35.00269466615282","0.1","11","300","64","98","-768","-26624","784","2","150","149.89","118.13","31.76","17.67","54.8","8.47","90612","17.56","DUALSPOT-UV-BLUE-GREEN-RED-IR","492281","574437","903024","44.377696","19.168144","0.014247","634970","783509","837595","31.548582","12.507751","0.017868","650476","781360","834247","27.442956","10.487742","0.019363","698507","804125","892041","22.583054","8.164434","0.021190","660312","849816","966419","15.294346","5.116578","0.024840","3117","6162","8478","3065","5455","7025","3098","5269","6611","3216","5100","6167","3352","4718","5406","DualSpot on"
"MA200-0420","49426","79","1","1.10","1.6","2023-08-09T01:45:00","120","2023/08/09","01:45:00","-15.7956023812294","35.00276599940844","0.2","11","300","64","98","-457","-26934","-38","2","150","149.77","118.18","31.59","17.63","54.9","8.44","90612","17.56","DUALSPOT-UV-BLUE-GREEN-RED-IR","491698","575154","906740","44.914056","19.458908","0.014352","629946","778933","834289","31.950110","12.701635","0.017915","646396","777942","831918","27.800120","10.649498","0.019046","694305","800650","889369","22.888442","8.295027","0.021177","657614","847497","964606","15.516598","5.199020","0.023736","2665","5406","7500","2518","4549","5890","2509","4251","5332","2592","4147","5031","2627","3645","4158","DualSpot on"
"MA200-0420","49427","79","1","1.10","1.6","2023-08-09T01:50:00","120","2023/08/09","01:50:00","-15.795705795288086","35.00269199954346","0.1","11","300","64","98","-479","-26800","-312","2","150","149.82","118.09","31.73","17.62","54.9","8.44","90608","17.50","DUALSPOT-UV-BLUE-GREEN-RED-IR","490289","574837","908784","45.421944","19.735176","0.014184","628562","778750","835639","32.328968","12.884193","0.017591","645505","778287","833596","28.137856","10.805039","0.019076","693983","801622","891506","23.176206","8.417277","0.020583","657418","848399","966350","15.726620","5.277458","0.023510","2526","5113","7101","2378","4264","5514","2374","4069","5125","2444","3865","4674","2484","3452","3942","DualSpot on"
"MA200-0420","49428","79","1","1.10","1.6","2023-08-09T01:55:00","120","2023/08/09","01:55:00","-15.79559999704361","35.00279933284037","0.1","11","300","64","98","-520","-26960","-600","2","150","150.21","117.96","32.25","17.60","55.0","8.44","90608","17.44","DUALSPOT-UV-BLUE-GREEN-RED-IR","486997","572449","907641","45.968640","20.025002","0.013586","625554","776636","834971","32.729500","13.074312","0.016824","642655","776406","832901","28.493450","10.964369","0.017876","691429","800079","890957","23.478988","8.543594","0.019272","655487","847071","965627","15.947620","5.357754","0.020763","2722","5277","7250","2517","4369","5602","2502","4101","5101","2575","3929","4703","2617","3477","3913","DualSpot on"
"MA200-0420","49429","79","1","1.10","1.6","2023-08-09T02:00:00","120","2023/08/09","02:00:00","-15.795669674873352","35.00269633275457","0.1","12","300","64","98","-496","-26965","-380","2","150","150.41","118.25","32.16","17.58","55.0","8.43","90608","17.50","DUALSPOT-UV-BLUE-GREEN-RED-IR","484085","570532","907248","46.525292","20.317398","0.013393","627500","780770","840957","33.132858","13.263482","0.016511","639911","774580","832258","28.849442","11.122925","0.017651","689065","798763","890588","23.781248","8.668848","0.018995","653722","845975","965149","16.165840","5.437243","0.020925","2765","5339","7336","2528","4360","5583","2499","4093","5092","2564","3907","4677","2578","3452","3895","DualSpot on"
"MA200-0420","49430","79","1","1.10","1.6","2023-08-09T02:05:00","120","2023/08/09","02:05:00","-15.795610785484314","35.00275516626425","0.2","12","300","64","98","-320","-27103","-280","2","150","149.95","118.09","31.86","17.58","55.0","8.42","90604","17.50","DUALSPOT-UV-BLUE-GREEN-RED-IR","480815","568114","906024","47.071624","20.610634","0.013546","624612","778722","840359","33.518918","13.448432","0.016835","637124","772634","831450","29.187142","11.276962","0.018140","685646","796086","888681","24.066976","8.790254","0.019743","651767","844529","964247","16.373547","5.515198","0.022650","2717","5405","7499","2423","4302","5562","2374","4013","5045","2427","3822","4625","2457","3417","3905","DualSpot on"
"MA200-0420","49431","79","1","1.10","1.6","2023-08-09T02:10:00","120","2023/08/09","02:10:00","-15.795642018318176","35.00272999983281","0.0","12","300","64","98","-616","-26952","-276","2","150","149.89","118.40","31.48","17.61","54.9","8.42","90604","17.50","DUALSPOT-UV-BLUE-GREEN-RED-IR","478616","567507","908742","47.828612","21.014648","0.013432","617721","772392","835682","34.072408","13.710191","0.016605","635348","772564","833255","29.680552","11.499289","0.017904","684461","796685","890940","24.491800","8.967926","0.019384","650832","845025","965924","16.692142","5.630971","0.021340","3755","7537","10501","3465","6163","7980","3459","5862","7382","3599","5661","6853","3758","5137","5838","DualSpot on"
"MA200-0420","49432","79","1","1.10","1.6","2023-08-09T02:15:00","120","2023/08/09","02:15:00","-15.795633018016815","35.00275733298622","0.1","11","300","64","98","-562","-26783","-116","2","150","150.21","118.60","31.61","17.62","54.7","8.37","90600","17.50","DUALSPOT-UV-BLUE-GREEN-RED-IR","475574","565685","909001","48.486876","21.365010","0.013211","615311","771145","836082","34.510856","13.915998","0.016242","633208","771608","833606","30.061970","11.667673","0.017216","682573","796031","891406","24.816192","9.100639","0.018452","649490","844627","966299","16.934230","5.718055","0.020402","3259","6510","9070","2740","4826","6236","2670","4422","5534","2744","4212","5062","2851","3848","4356","DualSpot on"
"MA200-0420","49433","79","1","1.10","1.6","2023-08-09T02:20:00","120","2023/08/09","02:20:00","-15.795561671257019","35.00280449935235","0.3","10","300","64","98","-412","-27084","-580","2","150","150.52","118.52","32.00","17.60","54.6","8.33","90600","17.50","DUALSPOT-UV-BLUE-GREEN-RED-IR","472145","563073","907899","49.088044","21.701042","0.013392","612916","769687","836104","34.905236","14.108299","0.016473","630331","769557","832701","30.404972","11.824191","0.017444","680307","794706","891045","25.109454","9.224789","0.018842","647543","843264","965522","17.156304","5.797772","0.019374","2979","6168","8695","2466","4455","5804","2402","4060","5116","2482","3892","4711","2617","3480","3920","DualSpot on"
"MA200-0420","49434","79","1","1.10","1.6","2023-08-09T02:25:00","120","2023/08/09","02:25:00","-15.795634090900421","35.002755999565125","0.2","10","300","64","98","-452","-27019","-556","2","150","149.74","118.77","30.97","17.60","54.3","8.27","90600","17.50","DUALSPOT-UV-BLUE-GREEN-RED-IR","468877","561090","908656","49.873640","22.142448","0.013535","609954","767946","836247","35.407484","14.353006","0.016766","627652","768066","832765","30.840702","12.024537","0.018023","677787","793438","891000","25.477482","9.381681","0.019676","645794","842448","965579","17.432342","5.901002","0.022736","3885","8372","11955","3134","5858","7714","3045","5371","6857","3108","5083","6233","3246","4656","5378","DualSpot on"
"MA200-0420","49435","79","1","1.10","1.6","2023-08-09T02:30:00","120","2023/08/09","02:30:00","-15.795636355876923","35.00273233279586","0.1","10","300","64","98","-400","-26875","-119","2","150","150.27","119.01","31.26","17.60","54.2","8.23","90600","17.50","DUALSPOT-UV-BLUE-GREEN-RED-IR","467115","559925","908789","50.263704","22.364368","0.013479","608295","766927","836240","35.680096","14.487420","0.016712","626797","768027","833641","31.082972","12.137068","0.017942","676431","792820","891108","25.690896","9.473632","0.019603","645044","842311","966042","17.597270","5.963268","0.022628","1925","4169","5969","1698","3187","4206","1690","2988","3820","1799","2951","3624","1935","2782","3216","DualSpot on"
