"Serial number","Datum ID","Session ID","Data format version","Firmware version","App version","Date / time local","Timezone offset (mins)","Date local (yyyy/MM/dd)","Time local (hh:mm:ss)","GPS lat (ddmm.mmmmm)","GPS long (dddmm.mmmmm)","GPS speed (km/h)","GPS sat count","Timebase (s)","Status","Battery remaining (%)","Accel X","Accel Y","Accel Z","Tape position","Flow setpoint (mL/min)","Flow total (mL/min)","Flow1 (mL/min)","Flow2 (mL/min)","Sample temp (C)","Sample RH (%)","Sample dewpoint (C)","Internal pressure (Pa)","Internal temp (C)","Optical config","UV Sen1","UV Sen2","UV Ref","UV ATN1","UV ATN2","UV K","Blue Sen1","Blue Sen2","Blue Ref","Blue ATN1","Blue ATN2","Blue K","Green Sen1","Green Sen2","Green Ref","Green ATN1","Green ATN2","Green K","Red Sen1","Red Sen2","Red Ref","Red ATN1","Red ATN2","Red K","IR Sen1","IR Sen2","IR Ref","IR ATN1","IR ATN2","IR K","UV BC1","UV BC2","UV BCc","Blue BC1","Blue BC2","Blue BCc","Green BC1","Green BC2","Green BCc","Red BC1","Red BC2","Red BCc","IR BC1","IR BC2","IR BCc","Readable status"
"MA200-0416","27645","82","1","1.10","1.4","2023-05-25T08:13:00","120","2023/05/25","08:13:00","0","0","0.0","1","30","66","57","-7836","-5148","-24320","9","150","145.30","112.31","32.99","22.99","58.4","14.38","90104","23.00","DUALSPOT-UV-BLUE-GREEN-RED-IR","850427","726125","897492","0.000000","0.000000","0.000000","813035","915977","765172","0.000000","0.000000","0.000000","908232","917989","816728","0.000000","0.000000","0.000000","890406","933937","865681","0.000000","0.000000","0.000000","754769","863582","952614","0.000000","0.000000","0.000000","","","","","","","","","","","","","","","","Start up"
"MA200-0416","27646","82","1","1.10","1.4","2023-05-25T08:13:30","120","2023/05/25","08:13:30","0","0","0.0","4","30","66","57","116","-1372","-26963","9","150","149.43","115.43","34.00","23.23","57.8","14.45","90096","23.50","DUALSPOT-UV-BLUE-GREEN-RED-IR","788196","715369","905074","0.000000","0.000000","0.000000","775303","900794","760778","0.000000","0.000000","0.000000","882070","910913","816367","0.000000","0.000000","0.000000","872212","928466","864824","0.000000","0.000000","0.000000","748494","863446","955044","0.000000","0.000000","0.000000","","","","","","","","","","","","","","","","Start up"
"MA200-0416","27647","82","1","1.10","1.4","2023-05-25T08:14:00","120","2023/05/25","08:14:00","0","0","0.0","6","30","66","57","-4169","-1596","-26065","9","150","150.17","115.11","35.07","23.45","57.4","14.56","90092","23.75","DUALSPOT-UV-BLUE-GREEN-RED-IR","771545","713115","909134","0.000000","0.000000","0.000000","763091","898523","762498","0.000000","0.000000","0.000000","865370","903715","813014","0.000000","0.000000","0.000000","859021","922674","861891","0.000000","0.000000","0.000000","740589","859289","952160","0.000000","0.000000","0.000000","","","","","","","","","","","","","","","","Start up"
"MA200-0416","27648","82","1","1.10","1.4","2023-05-25T08:14:30","120","2023/05/25","08:14:30","0","0","0.0","7","30","66","56","-2296","-2284","-27496","9","150","149.42","115.80","33.62","23.70","57.2","14.72","90096","23.94","DUALSPOT-UV-BLUE-GREEN-RED-IR","755627","707029","906412","0.000000","0.000000","0.000000","751994","893665","761095","0.000000","0.000000","0.000000","859352","904494","815988","0.000000","0.000000","0.000000","855291","924460","865398","0.000000","0.000000","0.000000","738045","859926","954163","0.000000","0.000000","0.000000","","","","","","","","","","","","","","","","Start up"
"MA200-0416","27649","82","1","1.10","1.4","2023-05-25T08:15:00","120","2023/05/25","08:15:00","0","0","0.0","8","30","66","56","-469","573","-26303","9","150","149.83","116.39","33.44","23.90","57.0","14.86","90100","24.06","DUALSPOT-UV-BLUE-GREEN-RED-IR","747012","704445","906275","0.000000","0.000000","0.000000","750096","897005","765718","0.000000","0.000000","0.000000","851668","901211","814568","0.000000","0.000000","0.000000","850115","922957","865199","0.000000","0.000000","0.000000","734388","858452","953235","0.000000","0.000000","0.000000","","","","","","","","","","","","","","","","Start up"
"MA200-0416","27650","82","1","1.10","1.4","2023-05-25T08:15:30","120","2023/05/25","08:15:30","-15.802926361560822","35.01877249404788","0.2","9","30","64","56","-452","520","-26396","9","150","149.73","115.88","33.85","24.09","56.8","14.97","90100","24.19","DUALSPOT-UV-BLUE-GREEN-RED-IR","733957","700510","906209","0.000000","0.000000","0.000000","740672","893232","765058","0.000000","0.000000","0.000000","843723","899113","814763","0.000000","0.000000","0.000000","844351","921939","865886","0.000000","0.000000","0.000000","729493","856178","951786","0.000000","0.000000","0.000000","","","","","","","","","","","","","","","",""
"MA200-0416","27651","82","1","1.10","1.4","2023-05-25T08:16:00","120","2023/05/25","08:16:00","-15.802903890609741","35.01876716129482","0.1","9","30","64","56","-496","472","-26868","9","150","150.09","116.68","33.41","24.25","56.4","15.02","90100","24.19","DUALSPOT-UV-BLUE-GREEN-RED-IR","729136","700036","908255","0.625886","0.210998","0.000000","733585","888061","761864","0.431418","0.127995","0.000000","840572","898628","815271","0.357741","0.096845","0.000000","841929","921710","866422","0.287681","0.071215","0.000000","723898","851152","946768","0.207546","0.047464","0.000000","31507","37092","31507","27411","28399","27411","25455","24064","25455","24737","21384","24737","24849","19845","24849",""
"MA200-0416","27652","82","1","1.10","1.4","2023-05-25T08:16:30","120","2023/05/25","08:16:30","-15.802922010421753","35.018809827044606","0.0","8","30","64","56","-496","360","-26503","9","150","150.49","116.67","33.82","24.39","56.1","15.07","90100","24.25","DUALSPOT-UV-BLUE-GREEN-RED-IR","720018","694627","903385","1.634410","0.541679","0.000000","731612","888553","763242","1.022211","0.295108","0.000000","838783","899204","816570","0.834864","0.221795","0.000000","836087","917392","862953","0.666669","0.163107","0.000000","726575","855751","952301","0.469839","0.107298","0.000000","50773","57425","50773","37539","36628","37539","33952","30671","33952","32590","27258","32590","31406","24713","31406",""
"MA200-0416","27653","82","1","1.10","1.4","2023-05-25T08:17:00","120","2023/05/25","08:17:00","-15.802918076515198","35.01881016045809","0.0","8","30","64","56","-348","540","-26524","9","150","149.53","116.09","33.44","24.53","55.8","15.11","90100","24.38","DUALSPOT-UV-BLUE-GREEN-RED-IR","715916","695110","906927","2.415954","0.800985","0.000000","724342","883800","760605","1.558724","0.452077","0.000000","830618","893918","812978","1.268965","0.339716","0.000000","834142","918137","864605","1.008151","0.247943","0.000000","724714","855378","952582","0.706296","0.164542","0.000000","39543","45545","39543","34262","34798","34262","31046","29276","31046","29512","25452","29512","28454","23913","28454",""
"MA200-0416","27654","82","1","1.10","1.4","2023-05-25T08:17:30","120","2023/05/25","08:17:30","-15.802918374538422","35.01881632767618","0.0","8","30","64","56","-360","524","-26328","9","150","150.25","116.12","34.13","24.65","55.5","15.16","90100","24.44","DUALSPOT-UV-BLUE-GREEN-RED-IR","696375","689283","908017","5.032039","1.667369","0.031648","716766","885597","766058","3.176620","0.919831","-0.007459","822449","894090","816184","2.556461","0.688487","0.000000","825937","916385","865272","2.003169","0.500887","0.000000","718887","852901","951378","1.345760","0.318057","0.000000","132331","149091","157397","103292","101593","100901","92055","84835","92055","85971","74350","85971","76931","62830","76931",""
"MA200-0416","27655","82","1","1.10","1.4","2023-05-25T08:18:00","120","2023/05/25","08:18:00","-15.802921533584595","35.018828662112355","0.0","8","30","64","55","-360","464","-26528","9","150","149.57","115.83","33.73","24.79","55.3","15.22","90096","24.56","DUALSPOT-UV-BLUE-GREEN-RED-IR","680714","683579","907178","7.092521","2.367330","0.028185","706261","881533","765800","4.544255","1.324677","0.004991","811714","889885","814978","3.662286","0.992142","-0.023210","817864","913572","864643","2.870454","0.722533","0.000000","717083","854651","954712","1.917549","0.456733","0.000000","104483","121874","130587","87529","88968","89560","79260","74733","73051","75119","65919","75119","68958","57427","68958",""
"MA200-0416","27656","82","1","1.10","1.4","2023-05-25T08:18:30","120","2023/05/25","08:18:30","-15.802894413471222","35.018772661685944","0.0","9","30","64","55","-360","280","-26428","9","150","149.47","115.90","33.57","24.92","54.9","15.22","90096","24.69","DUALSPOT-UV-BLUE-GREEN-RED-IR","673054","680290","906137","8.093225","2.714067","0.028155","700043","877512","763773","5.193930","1.517886","0.006985","806013","886658","813101","4.190247","1.137429","-0.017594","813781","911478","863483","3.288983","0.826102","-0.073469","713657","852161","952474","2.202589","0.524274","0.000000","50714","60662","65681","41555","42663","43120","37820","35928","35223","36230","30950","29179","34356","28103","34356",""
"MA200-0416","27657","82","1","1.10","1.4","2023-05-25T08:19:00","120","2023/05/25","08:19:00","-15.802911162376404","35.01879799552262","0.2","9","30","64","56","-373","396","-26388","9","150","149.73","115.75","33.98","25.06","54.5","15.24","90092","24.81","DUALSPOT-UV-BLUE-GREEN-RED-IR","657856","676381","909350","11.086777","3.772876","0.021373","691431","876071","766074","6.902203","2.037543","0.007087","800224","887994","817061","5.491717","1.505088","-0.009971","807323","910449","864530","4.264030","1.082074","-0.038710","708363","849533","950866","2.809724","0.672778","0.000000","151901","183019","199072","109405","113371","115032","93347","89829","88501","84511","75576","72538","73272","61051","73272",""
"MA200-0416","27658","82","1","1.10","1.4","2023-05-25T08:19:30","120","2023/05/25","08:19:30","-15.802933692932129","35.018852327018976","0.1","9","30","64","56","-296","372","-26436","9","150","149.67","115.64","34.03","25.21","54.1","15.26","90088","25.00","DUALSPOT-UV-BLUE-GREEN-RED-IR","649462","673296","909390","12.512505","4.286541","0.020327","685015","873012","765389","7.817906","2.321422","0.009034","794145","885523","816384","6.227643","1.716506","-0.005459","803455","909685","865001","4.840235","1.233172","-0.035373","709232","852893","955504","3.193885","0.767354","-0.085822","72417","88656","97118","58703","61840","63164","52836","51578","51099","49991","44545","42683","46408","38822","36424",""
"MA200-0416","27659","82","1","1.10","1.4","2023-05-25T08:20:00","120","2023/05/25","08:20:00","-15.802912175655365","35.01884249597788","0.1","9","30","64","55","-192","384","-26480","9","150","149.66","115.63","34.03","25.32","53.7","15.26","90092","25.13","DUALSPOT-UV-BLUE-GREEN-RED-IR","622269","662886","909644","16.173729","5.629728","0.016961","660558","859425","760862","10.337606","3.124737","0.010303","773288","877577","815197","8.278867","2.328360","0.002217","786516","903398","863898","6.458177","1.685237","-0.011407","698284","847951","953231","4.257574","1.042996","-0.044196","185982","231815","256287","161547","174984","180805","147282","149261","150036","140386","133267","130753","128509","113143","108157",""
"MA200-0416","27660","82","1","1.10","1.4","2023-05-25T08:20:30","120","2023/05/25","08:20:30","-15.802911043167114","35.01884282939136","0.0","9","30","64","55","-420","308","-26532","9","150","150.17","115.71","34.46","25.47","53.4","15.32","90096","25.31","DUALSPOT-UV-BLUE-GREEN-RED-IR","593895","651071","909102","20.958680","7.425205","0.013696","639796","850293","760611","13.696659","4.219270","0.008743","751809","868713","813457","11.084826","3.185833","0.003190","769885","897553","863439","8.721038","2.330619","-0.007029","690647","847443","956125","5.774032","1.438301","-0.034485","242882","306026","340670","215199","235458","244477","201323","206582","208703","196196","187893","184865","183074","160246","152673",""
"MA200-0416","27661","82","1","1.10","1.4","2023-05-25T08:21:00","120","2023/05/25","08:21:00","-15.802915513515472","35.01884032972157","0.0","9","30","64","55","-380","464","-26288","9","150","149.99","115.49","34.50","25.61","53.2","15.39","90100","25.44","DUALSPOT-UV-BLUE-GREEN-RED-IR","566614","639271","908793","25.706832","9.251278","0.012053","619737","841299","760552","16.933814","5.294347","0.008256","735213","865049","816638","13.741627","4.010820","0.003841","753245","891407","862765","10.842485","2.942848","-0.004508","679384","842318","953861","7.193928","1.810195","-0.027404","241490","310893","349910","207800","231014","241574","190998","198534","201640","184299","178042","175711","171755","150588","143471",""
"MA200-0416","27662","82","1","1.10","1.4","2023-05-25T08:21:30","120","2023/05/25","08:21:30","-15.802907526493073","35.01882099546492","0.1","9","30","64","55","-448","280","-26403","9","150","149.73","115.67","34.06","25.75","53.0","15.44","90104","25.63","DUALSPOT-UV-BLUE-GREEN-RED-IR","557852","635083","908271","27.400444","9.925251","0.012966","617223","843812","765646","18.137722","5.706424","0.010561","727660","861399","815528","14.748088","4.329419","0.006509","747431","889082","862325","11.665543","3.180861","-0.002168","674755","839709","952207","7.769489","1.962540","-0.020138","86000","116224","133390","77159","89689","95440","72240","77659","79910","71389","70108","69628","69511","62482","60107",""
"MA200-0416","27663","82","1","1.10","1.4","2023-05-25T08:22:00","120","2023/05/25","08:22:00","-15.80290824174881","35.01883349567652","0.0","9","30","64","55","-356","200","-27116","9","150","149.57","115.59","33.97","25.90","52.7","15.49","90112","25.75","DUALSPOT-UV-BLUE-GREEN-RED-IR","543699","630021","912495","29.471142","10.774971","0.013046","601364","834100","762946","19.684874","6.253004","0.011606","711694","853045","812613","16.038250","4.752678","0.008841","733853","882087","859519","12.711932","3.496963","0.002912","668684","838420","953531","8.499790","2.163003","-0.011431","105217","146910","170939","99223","119272","128605","92664","103437","107974","90820","93351","94311","88257","82430","80441",""
"MA200-0416","27664","82","1","1.10","1.4","2023-05-25T08:22:30","120","2023/05/25","08:22:30","-15.802916169166565","35.01884966343641","0.0","9","30","64","55","-384","264","-26375","9","150","150.43","116.13","34.30","26.05","52.4","15.55","90108","25.94","DUALSPOT-UV-BLUE-GREEN-RED-IR","509919","610697","907045","36.301740","13.701694","0.011571","575016","820991","763965","24.998078","8.215445","0.010877","687265","845715","817021","20.632848","6.336164","0.009414","716303","881029","867888","16.540871","4.718494","0.006106","652548","832243","952973","11.171028","2.927620","-0.003889","345469","501244","595686","339167","424201","465826","328467","383333","407649","330784","357345","367946","321322","311450","307944",""
"MA200-0416","27665","82","1","1.10","1.4","2023-05-25T08:23:00","120","2023/05/25","08:23:00","-15.80292522907257","35.018854996189475","0.0","10","30","64","55","-368","248","-26752","9","150","149.48","116.15","33.34","26.19","52.1","15.58","90108","26.13","DUALSPOT-UV-BLUE-GREEN-RED-IR","507796","608327","903965","36.693352","13.897152","0.014805","572362","817809","761460","25.379384","8.367485","0.014475","683980","842599","814464","21.008492","6.467897","0.011553","712367","877312","864655","16.895272","4.828846","0.006287","652606","833355","954640","11.464138","3.007309","-0.006719","19804","34438","43360","24337","33810","38470","26851","32808","35457","30613","33211","34251","35254","33394","32732",""
"MA200-0416","27666","82","1","1.10","1.4","2023-05-25T08:23:30","120","2023/05/25","08:23:30","-15.802924931049347","35.01882566139102","0.0","10","30","64","55","-336","372","-26084","9","150","150.31","116.35","33.96","26.33","51.8","15.61","90108","26.25","DUALSPOT-UV-BLUE-GREEN-RED-IR","508722","609322","905542","36.676224","13.902908","0.038326","573493","819671","763342","25.423712","8.388132","0.018517","683262","842039","814064","21.064486","6.487591","0.010856","712444","877819","865260","16.956820","4.843747","-0.018474","651554","832432","953778","11.537785","3.025895","-0.019452","-864","995","2131","2824","4507","5336","3995","4815","5179","5307","4402","4041","8842","7646","7221",""
"MA200-0416","27667","82","1","1.10","1.4","2023-05-25T08:24:00","120","2023/05/25","08:24:00","-15.802921533584595","35.01881432719529","0.1","11","30","64","55","-336","316","-26208","9","150","149.76","116.15","33.61","26.48","51.5","15.66","90104","26.44","DUALSPOT-UV-BLUE-GREEN-RED-IR","505028","607050","904456","37.256620","14.145412","0.011196","570466","817744","762855","25.865300","8.548046","0.010556","682578","843357","816410","21.435460","6.610179","0.007946","704174","869470","857874","17.260170","4.934865","0.002930","648083","829377","950924","11.760727","3.089332","-0.001965","29349","42378","50353","28183","35271","38769","26516","30281","31959","26201","27198","27597","26812","26366","26207",""
"MA200-0416","27668","82","1","1.10","1.4","2023-05-25T08:24:30","120","2023/05/25","08:24:30","-15.802932798862457","35.018832828849554","0.1","11","30","64","55","-280","464","-26452","9","150","149.57","115.99","33.57","26.63","51.3","15.73","90104","26.56","DUALSPOT-UV-BLUE-GREEN-RED-IR","491137","602424","911028","40.426284","15.483238","0.010541","556713","810027","762125","27.973244","9.315068","0.009945","668459","836325","814798","23.140912","7.188523","0.008611","698338","871235","863638","18.608456","5.357909","0.005668","643632","829648","953966","12.671631","3.348983","-0.001670","160507","234040","279686","134724","169358","186649","122071","143011","152448","116621","126413","130372","109706","108033","107433",""
"MA200-0416","27669","82","1","1.10","1.4","2023-05-25T08:25:00","120","2023/05/25","08:25:00","-15.802933871746063","35.01883249543607","0.0","11","30","64","55","-348","416","-26656","9","150","150.24","115.87","34.37","26.78","51.1","15.81","90108","26.75","DUALSPOT-UV-BLUE-GREEN-RED-IR","475419","591650","904406","43.136504","16.642429","0.009699","547115","804649","761814","29.809918","9.992069","0.008967","658774","831930","814487","24.655962","7.710051","0.007674","689423","866945","862498","19.831164","5.743951","0.004186","637137","826009","951971","13.522369","3.593074","-0.003460","137389","198086","236214","117513","146014","160385","108559","125971","133893","105873","112680","115456","102570","99204","97986",""
"MA200-0416","27670","82","1","1.10","1.4","2023-05-25T08:25:30","120","2023/05/25","08:25:30","-15.802927553653717","35.018820160999894","0.0","11","30","64","55","-200","364","-26500","9","150","150.35","115.75","34.60","26.94","50.7","15.85","90104","26.94","DUALSPOT-UV-BLUE-GREEN-RED-IR","476739","593930","908853","43.510048","16.813984","0.010721","548525","807615","765217","30.101936","10.105914","0.010435","659285","833480","816494","24.918364","7.799942","0.007035","687635","865590","861607","20.061852","5.814534","0.001603","638153","828123","954748","13.708328","3.644898","-0.007410","18954","29122","35526","18702","24391","27267","18820","21568","22820","19994","20466","20658","22442","20923","20372",""
"MA200-0416","27671","82","1","1.10","1.4","2023-05-25T08:26:00","120","2023/05/25","08:26:00","-15.802928864955902","35.01882899552584","0.0","11","30","64","55","-344","300","-26524","9","150","150.01","115.84","34.17","27.09","50.5","15.91","90100","27.06","DUALSPOT-UV-BLUE-GREEN-RED-IR","471546","590888","908435","44.588044","17.291550","0.010102","544598","805230","764908","30.796898","10.367334","0.009520","654424","830306","814953","25.485962","7.998061","0.008270","683842","863377","860636","20.520266","5.960667","0.004973","634374","825107","952173","14.039223","3.740984","-0.001552","54661","82088","99462","44476","56714","62925","40681","48136","51545","39704","42905","44215","39905","39281","39054",""
"MA200-0416","27672","82","1","1.10","1.4","2023-05-25T08:26:30","120","2023/05/25","08:26:30","-15.802928566932678","35.01882882975042","0.0","11","30","64","55","-392","272","-26368","9","150","149.70","115.67","34.03","27.24","50.2","15.98","90096","27.25","DUALSPOT-UV-BLUE-GREEN-RED-IR","461372","582190","899870","45.725832","17.788536","0.009677","539227","801419","763638","31.561226","10.655606","0.009466","649074","827134","813732","26.106986","8.214772","0.008188","685188","868296","866956","21.012218","6.116468","0.004644","634417","827326","955773","14.384453","3.841109","-0.001356","57774","85792","103632","48984","62807","69853","44573","52878","56691","42669","45939","47282","41692","41107","40894",""
"MA200-0416","27673","82","1","1.10","1.4","2023-05-25T08:27:00","120","2023/05/25","08:27:00","-15.802934885025024","35.0188306607306","0.0","11","30","64","54","-379","187","-26062","9","150","149.94","115.42","34.52","27.39","49.9","16.03","90096","27.44","DUALSPOT-UV-BLUE-GREEN-RED-IR","463350","585919","907261","46.196692","18.004016","0.010063","537610","800750","764057","31.959828","10.808826","0.009425","648997","828788","816260","26.460990","8.337748","0.007213","681937","865841","865281","21.318292","6.211907","0.002661","630979","824186","952771","14.626297","3.911031","-0.003252","23961","36666","44779","25602","32906","36638","25464","29578","31470","26605","27739","28205","29271","28297","27942",""
"MA200-0416","27674","82","1","1.10","1.4","2023-05-25T08:27:30","120","2023/05/25","08:27:30","-15.802940309047699","35.01883349567652","0.1","11","30","64","55","-188","340","-27468","9","150","150.70","115.92","34.78","27.54","49.6","16.06","90100","27.56","DUALSPOT-UV-BLUE-GREEN-RED-IR","458573","583043","906640","46.987868","18.356864","0.009447","532390","796935","762756","32.639930","11.071366","0.009268","643697","825741","815320","27.069824","8.555324","0.008066","678189","864577","865675","21.837844","6.380101","0.004596","627196","821849","951327","15.022984","4.030431","0.000288","40088","59588","72090","43494","55959","62358","43605","51936","55786","44967","48517","49983","47805","47957","48012",""
"MA200-0416","27675","82","1","1.10","1.4","2023-05-25T08:28:00","120","2023/05/25","08:28:00","-15.802943229675293","35.018831826746464","0.0","11","30","64","54","-256","336","-26652","9","150","150.03","115.67","34.36","27.70","49.2","16.06","90104","27.75","DUALSPOT-UV-BLUE-GREEN-RED-IR","452394","579375","906032","48.329392","18.937072","0.008868","527219","793696","762296","33.606292","11.435301","0.008596","637347","821771","813634","27.886248","8.842802","0.007662","672774","861438","864279","22.503818","6.593641","0.004496","626301","823372","954365","15.502422","4.168972","-0.002482","68119","99194","119215","61932","78529","87090","58598","69471","74520","57762","62359","64264","57900","56332","55755",""
"MA200-0416","27676","82","1","1.10","1.4","2023-05-25T08:28:30","120","2023/05/25","08:28:30","-15.80294156074524","35.01883783005178","0.0","11","30","64","55","-296","344","-26224","9","150","149.40","115.49","33.90","27.85","48.9","16.10","90112","27.88","DUALSPOT-UV-BLUE-GREEN-RED-IR","449097","579239","910845","49.434632","19.420940","0.009049","521818","789689","760843","34.355812","11.719890","0.008971","635052","822466","816270","28.506370","9.058928","0.007557","667824","858255","862582","23.004222","6.753404","0.004799","622067","820033","951554","15.858402","4.271810","-0.001396","56208","83832","101706","48109","62231","69542","44577","52928","56818","43468","47279","48863","43057","42375","42124",""
"MA200-0416","27677","82","1","1.10","1.4","2023-05-25T08:29:00","120","2023/05/25","08:29:00","-15.802946150302887","35.01884282939136","0.2","11","30","64","54","-364","136","-26596","9","150","148.91","115.23","33.68","27.98","48.5","16.12","0","0.00","DUALSPOT-UV-BLUE-GREEN-RED-IR","442131","573872","907078","50.775436","20.025520","0.009306","519670","789884","763081","35.181832","12.030841","0.008648","631967","821599","817096","29.175964","9.291172","0.007364","666156","858899","864507","23.541522","6.921808","0.003940","620428","819834","952245","16.238335","4.378880","-0.003190","68346","105422","129568","53143","68435","76382","48245","57242","61446","46782","50159","51565","46061","44404","43792",""
"MA200-0416","27678","82","1","1.10","1.4","2023-05-25T08:29:30","120","2023/05/25","08:29:30","-15.802948653697968","35.01884233020246","0.0","12","30","68","54","-192","236","-26468","10","150","150.21","115.84","34.38","28.16","48.1","16.15","0","0.00","DUALSPOT-UV-BLUE-GREEN-RED-IR","848207","727335","906055","0.000000","0.000000","0.000000","805112","908217","763321","0.000000","0.000000","0.000000","901664","913312","816531","0.000000","0.000000","0.000000","883388","928938","864469","0.000000","0.000000","0.000000","749833","861636","955272","0.000000","0.000000","0.000000","0","0","0","0","0","0","0","0","0","0","0","0","0","0","0","Tape advance"
"MA200-0416","27679","82","1","1.10","1.4","2023-05-25T08:30:00","120","2023/05/25","08:30:00","-15.802950084209442","35.018838161602616","0.0","11","30","68","54","-242","107","-26284","10","150","149.70","115.75","33.95","28.29","47.9","16.18","90120","28.44","DUALSPOT-UV-BLUE-GREEN-RED-IR","837836","723933","904349","0.000000","0.000000","0.000000","795528","901070","758384","0.000000","0.000000","0.000000","896380","910713","815079","0.000000","0.000000","0.000000","879246","926637","862938","0.000000","0.000000","0.000000","746331","858754","952544","0.000000","0.000000","0.000000","","","","","","","","","","","","","","","","Tape advance"
"MA200-0416","27680","82","1","1.10","1.4","2023-05-25T08:30:30","120","2023/05/25","08:30:30","-15.80295330286026","35.01884749531746","0.0","11","30","64","54","-320","168","-26212","10","150","149.46","115.54","33.92","28.44","47.6","16.24","90116","28.56","DUALSPOT-UV-BLUE-GREEN-RED-IR","828908","725059","909886","1.610866","0.434333","0.000000","791641","902964","761736","0.887650","0.222213","0.000000","892803","911757","817344","0.657380","0.159776","0.000000","879701","930566","867610","0.471311","0.110370","0.000000","741608","855145","949186","0.276193","0.066451","0.000000","81887","75211","81887","56951","48566","56951","47235","39108","47235","40924","32645","40924","33392","27367","33392",""
"MA200-0416","27681","82","1","1.10","1.4","2023-05-25T08:31:00","120","2023/05/25","08:31:00","-15.80295193195343","35.018846828490496","0.0","11","30","64","54","-264","184","-26996","10","150","150.03","115.63","34.40","28.59","47.5","16.33","90112","28.75","DUALSPOT-UV-BLUE-GREEN-RED-IR","801625","715123","904309","3.917547","1.080131","-0.022549","780934","901105","763312","2.202308","0.564384","0.000000","879344","905946","814559","1.635521","0.406813","0.000000","867890","923984","863212","1.172494","0.279611","0.000000","739108","855431","950612","0.680316","0.164690","0.000000","117168","110280","107658","84283","73748","84283","70229","59629","70229","60837","49365","60837","48821","39899","48821",""
"MA200-0416","27682","82","1","1.10","1.4","2023-05-25T08:31:30","120","2023/05/25","08:31:30","-15.80295842885971","35.01884516328573","0.0","11","30","64","54","-272","128","-26056","10","150","150.41","115.80","34.60","28.75","47.3","16.43","90112","28.88","DUALSPOT-UV-BLUE-GREEN-RED-IR","767487","705621","903564","7.602813","2.153814","-0.004744","763237","896187","763914","4.288590","1.116073","-0.042923","863647","901557","814210","3.186124","0.799793","-0.079794","858893","923236","865181","2.287926","0.549847","0.000000","737400","858119","955237","1.316051","0.317882","0.000000","186918","182254","180411","133555","118196","112792","111167","94290","88633","96636","78353","96636","76689","61846","76689",""
"MA200-0416","27683","82","1","1.10","1.4","2023-05-25T08:32:00","120","2023/05/25","08:32:00","-15.802958905696869","35.01884516328573","0.0","11","30","64","54","-200","280","-27000","10","150","149.31","115.31","33.99","28.90","47.3","16.54","90116","29.00","DUALSPOT-UV-BLUE-GREEN-RED-IR","742529","700625","907562","12.055759","3.509378","0.003661","744600","888089","761386","6.778876","1.784105","-0.020515","851191","899503","815745","5.070376","1.278829","-0.044447","845267","917027","861848","3.664250","0.878262","-0.091237","728731","852709","950765","2.112795","0.499637","0.000000","226812","234236","237285","160094","145693","140549","135660","117003","110710","119744","96933","89742","96519","74696","96519",""
"MA200-0416","27684","82","1","1.10","1.4","2023-05-25T08:32:30","120","2023/05/25","08:32:30","-15.802956223487854","35.01884633116424","0.1","11","30","64","54","-204","176","-26424","10","150","149.32","115.18","34.13","29.06","47.0","16.62","90120","29.13","DUALSPOT-UV-BLUE-GREEN-RED-IR","731725","697406","907678","13.824322","4.072546","0.006911","738873","887227","762571","7.879805","2.085001","-0.015002","843773","896590","814668","5.947125","1.503771","-0.036834","840652","916059","862086","4.343197","1.040220","-0.079432","728924","855426","954607","2.544210","0.600233","0.000000","90186","96906","99713","70857","65349","63366","63196","54711","51840","59138","47602","43969","52323","41169","52323",""
"MA200-0416","27685","82","1","1.10","1.4","2023-05-25T08:33:00","120","2023/05/25","08:33:00","-15.802949011325836","35.01884516328573","0.0","11","30","64","54","-264","348","-26072","10","150","149.85","115.42","34.43","29.21","46.8","16.66","90124","29.31","DUALSPOT-UV-BLUE-GREEN-RED-IR","720797","692924","905535","14.612465","4.326471","0.006989","732994","884777","761992","8.359827","2.213932","-0.018741","837864","893888","813299","6.316298","1.594264","-0.049573","836396","914199","861126","4.625713","1.100492","-0.129001","725018","852489","951898","2.735803","0.643604","0.000000","40106","43317","44668","30830","27760","26654","26554","21820","20222","24556","17562","15379","23188","17596","23188",""
"MA200-0416","27686","82","1","1.10","1.4","2023-05-25T08:33:30","120","2023/05/25","08:33:30","-15.802944719791412","35.01883966289461","0.0","11","30","64","54","-312","136","-26644","10","150","149.66","115.34","34.32","29.37","46.3","16.66","90120","29.44","DUALSPOT-UV-BLUE-GREEN-RED-IR","717214","693663","909010","16.103279","4.795282","0.004636","731184","885822","763908","9.168710","2.435316","-0.013401","836652","895176","815272","6.929559","1.750213","-0.034891","836961","916923","864243","5.081639","1.205188","-0.084099","725327","854137","954120","3.022308","0.706798","-0.168834","75921","80222","82046","51991","47813","46302","44144","37720","35549","39659","30601","27785","34701","25719","22977",""
"MA200-0416","27687","82","1","1.10","1.4","2023-05-25T08:34:00","120","2023/05/25","08:34:00","-15.802959263324738","35.01884616352618","0.0","11","30","64","54","-384","200","-26460","10","150","149.76","115.59","34.18","29.51","45.9","16.63","90112","29.63","DUALSPOT-UV-BLUE-GREEN-RED-IR","715049","692450","907906","16.216572","4.831934","0.007294","729920","885227","763669","9.277098","2.461864","-0.032846","834612","893812","814222","7.022238","1.767451","-0.139981","836906","917574","864989","5.157068","1.215857","-0.416856","723558","852564","952491","3.085228","0.717517","-0.399735","5756","6299","6529","6951","5758","5327","6656","4187","3356","6547","3132","2078","7604","4381","3404",""
"MA200-0416","27688","82","1","1.10","1.4","2023-05-25T08:34:30","120","2023/05/25","08:34:30","-15.802962064743042","35.01884199492633","0.0","11","30","64","54","-344","119","-26012","10","150","149.92","116.28","33.64","29.66","45.6","16.66","90116","29.75","DUALSPOT-UV-BLUE-GREEN-RED-IR","707244","688571","905268","16.890698","5.055450","0.010222","726135","883631","763299","9.677288","2.572334","-0.006860","834064","895616","816647","7.328517","1.845008","-0.027261","830851","912792","860992","5.385041","1.267320","-0.074824","724144","854412","954948","3.240816","0.752470","-0.126616","34050","39029","41156","25512","24346","23924","21867","19142","18225","19669","15349","14019","18691","14515","13252",""
"MA200-0416","27689","82","1","1.10","1.4","2023-05-25T08:35:00","120","2023/05/25","08:35:00","-15.802955389022827","35.01883199438453","0.0","11","30","64","54","-202","366","-25597","10","150","149.67","115.37","34.30","29.80","45.4","16.73","90116","29.88","DUALSPOT-UV-BLUE-GREEN-RED-IR","670089","677964","910257","21.845572","6.800546","0.009672","703842","873991","761398","12.087974","3.283424","-0.000913","814304","887778","814152","9.078330","2.327275","-0.012003","822216","913643","865225","6.664129","1.596385","-0.032321","714840","849437","951543","4.024438","0.944000","-0.075283","252258","298802","319840","154903","153672","153213","125921","116720","113548","111232","96241","91519","94885","77997","72822",""
"MA200-0416","27690","82","1","1.10","1.4","2023-05-25T08:35:30","120","2023/05/25","08:35:30","-15.802955031394958","35.018834829330444","0.0","11","30","64","53","-107","124","-26868","10","150","149.09","115.67","33.41","29.94","45.3","16.80","90112","30.06","DUALSPOT-UV-BLUE-GREEN-RED-IR","644348","665677","904751","25.909702","8.287670","0.010872","693364","871222","762918","14.133516","3.903814","0.004565","805640","886295","815665","10.586911","2.752263","-0.003271","810772","907162","861169","7.778302","1.886689","-0.019108","712028","849773","953268","4.710973","1.111333","-0.054558","206367","261409","287296","131096","137640","140138","108277","105595","104653","96636","87165","84132","82911","69957","65958",""
"MA200-0416","27691","82","1","1.10","1.4","2023-05-25T08:36:00","120","2023/05/25","08:36:00","-15.802956998348236","35.01883899606764","0.0","11","30","64","54","-180","208","-26240","10","150","150.29","115.71","34.58","30.09","45.1","16.89","90112","30.19","DUALSPOT-UV-BLUE-GREEN-RED-IR","620243","655665","904253","29.951580","9.847218","0.010100","680606","866619","763623","16.224171","4.564728","0.004590","793439","881621","814839","12.119815","3.203112","-0.001815","807777","910671","866991","8.903380","2.192270","-0.015450","706234","846907","951623","5.398147","1.286116","-0.045009","205167","264894","294148","133941","141685","144717","109985","108242","107617","97549","88657","85753","82960","70607","66743",""
"MA200-0416","27692","82","1","1.10","1.4","2023-05-25T08:36:30","120","2023/05/25","08:36:30","-15.80295741558075","35.018846495077014","0.0","11","30","72","54","-260","188","-27284","10","150","149.67","115.60","34.07","30.24","44.8","16.92","90116","30.38","DUALSPOT-UV-BLUE-GREEN-RED-IR","615235","656017","909473","30.682964","10.128479","0.010193","673176","862368","761975","16.709999","4.716034","0.004385","786603","878246","813266","12.491782","3.306597","-0.006599","695147","786638","749870","9.190210","2.263707","-0.028155","706147","848858","954558","5.592458","1.332521","-0.059285","37161","48490","54072","31155","32923","33619","26714","25218","24679","24893","21036","19776","23481","19027","17634",""
"MA200-0416","27693","82","1","1.10","1.4","2023-05-25T08:37:00","120","2023/05/25","08:37:00","-15.802956223487854","35.01884566433728","0.0","11","30","64","53","-326","107","-26053","10","150","149.73","115.34","34.39","30.38","44.5","16.92","90116","30.50","DUALSPOT-UV-BLUE-GREEN-RED-IR","590784","642948","902669","34.356544","11.520111","0.008415","662048","859438","763978","18.832062","5.377538","0.003169","775303","874739","813510","14.108644","3.775895","-0.002679","786834","897641","858245","10.393049","2.587843","-0.014160","701288","847328","954528","6.329502","1.520428","-0.037283","187081","237656","263169","136397","142582","145053","116388","113283","112149","104632","94551","91209","89271","76321","72227",""
"MA200-0416","27694","82","1","1.10","1.4","2023-05-25T08:37:30","120","2023/05/25","08:37:30","-15.802956700325012","35.018850496038795","0.0","11","30","64","54","-248","4","-26788","10","150","149.51","115.47","34.03","30.52","44.2","16.96","90116","30.56","DUALSPOT-UV-BLUE-GREEN-RED-IR","578678","640537","908815","37.231972","12.627132","0.008507","648379","852853","762820","20.828176","6.015939","0.005136","765844","873829","816533","15.741093","4.262293","0.000944","782633","901102","864562","11.680876","2.943367","-0.007912","694273","843981","952750","7.161491","1.734867","-0.027705","146259","191062","214055","128148","139066","143500","117369","118660","119139","111890","104810","102425","100650","88023","83986",""
"MA200-0416","27695","82","1","1.10","1.4","2023-05-25T08:38:00","120","2023/05/25","08:38:00","-15.802946150302887","35.01884032972157","0.0","11","30","64","53","-228","176","-26475","10","150","149.70","115.00","34.70","30.66","44.0","17.00","90116","30.69","DUALSPOT-UV-BLUE-GREEN-RED-IR","558450","629879","904733","40.150384","13.774345","0.007856","632894","844469","760603","22.861340","6.679691","0.004535","750637","866808","814255","17.400684","4.764820","0.000272","774702","900626","867453","12.990953","3.313297","-0.007265","689651","843762","954702","8.007351","1.959663","-0.023426","149061","194179","217741","131068","141798","146227","119816","120230","120386","114296","106953","104439","102753","90495","86523",""
"MA200-0416","27696","82","1","1.10","1.4","2023-05-25T08:38:30","120","2023/05/25","08:38:30","-15.802954912185669","35.018848495557904","0.0","11","30","64","53","-188","128","-26596","10","150","150.36","115.43","34.92","30.77","43.7","17.01","90124","30.88","DUALSPOT-UV-BLUE-GREEN-RED-IR","553915","628917","907525","41.745680","14.420746","0.008177","627795","843686","762764","24.220972","7.142246","0.006194","744317","865314","815390","18.587712","5.140656","0.003249","764170","893648","862808","13.972144","3.597420","-0.004390","682520","838513","950298","8.671417","2.141863","-0.016280","81173","108710","123242","87317","98183","102728","85374","89343","90860","85278","81619","80350","80363","72877","70422",""
"MA200-0416","27697","82","1","1.10","1.4","2023-05-25T08:39:00","120","2023/05/25","08:39:00","-15.80294817686081","35.018834330141544","0.0","11","30","64","53","-244","128","-26312","10","150","149.32","114.84","34.48","30.91","43.3","16.99","90124","30.94","DUALSPOT-UV-BLUE-GREEN-RED-IR","545962","623756","903853","42.816308","14.851151","0.007982","624368","844160","765468","25.153270","7.451898","0.005219","736438","860836","813100","19.407270","5.390317","0.001028","756232","888581","859519","14.662081","3.791374","-0.006401","681137","839711","952788","9.155800","2.267248","-0.024484","54758","73326","83186","60183","66583","69277","59250","60120","60455","60275","56441","55103","58922","50804","48132",""
"MA200-0416","27698","82","1","1.10","1.4","2023-05-25T08:39:30","120","2023/05/25","08:39:30","-15.802942395210266","35.018831826746464","0.0","11","30","64","53","-215","215","-26403","10","150","149.47","115.55","33.93","31.02","43.1","17.00","90128","31.06","DUALSPOT-UV-BLUE-GREEN-RED-IR","545513","623800","904529","42.913424","14.894478","0.010324","619118","838329","760830","25.339404","7.517320","0.008636","735232","860737","813612","19.591056","5.447400","0.003783","755854","889355","860685","14.822699","3.833288","-0.011914","680198","839448","952845","9.285809","2.300190","-0.023992","4936","7500","8863","11942","14294","15287","13205","13968","14262","13946","12394","11853","15718","13563","12854",""
"MA200-0416","27699","82","1","1.10","1.4","2023-05-25T08:40:00","120","2023/05/25","08:40:00","-15.802942395210266","35.01882149465382","0.0","11","30","64","53","-195","225","-26570","10","150","149.81","114.93","34.88","31.15","42.9","17.06","90128","31.19","DUALSPOT-UV-BLUE-GREEN-RED-IR","540539","621201","903957","43.733060","15.235023","0.008268","618100","841422","765814","26.123256","7.788856","0.006422","732424","861638","816332","20.274952","5.666590","0.003563","756123","893392","866096","15.386809","3.998721","-0.003096","675725","836360","950425","9.673958","2.407147","-0.014426","41888","57349","65614","50561","57714","60753","49403","52175","53250","49244","47587","47005","47179","42839","41401",""
"MA200-0416","27700","82","1","1.10","1.4","2023-05-25T08:40:30","120","2023/05/25","08:40:30","-15.802945733070374","35.01881899498403","0.0","11","30","64","53","-88","268","-26272","10","150","149.96","115.63","34.33","31.28","42.8","17.14","90128","31.31","DUALSPOT-UV-BLUE-GREEN-RED-IR","534792","620217","908475","45.086236","15.801807","0.008594","608500","835092","763357","27.240444","8.180090","0.007497","722723","856350","814082","21.225780","5.972970","0.005002","746844","887779","862826","16.157972","4.225922","-0.000645","673592","837222","952896","10.193195","2.549400","-0.011258","68734","96973","112211","71623","84485","90005","68268","74095","76377","66909","66399","66218","62728","57886","56271",""
"MA200-0416","27701","82","1","1.10","1.4","2023-05-25T08:41:00","120","2023/05/25","08:41:00","-15.802943646907806","35.018808828666806","0.0","11","30","64","53","-288","196","-26412","10","150","149.51","115.55","33.95","31.42","42.7","17.22","90128","31.44","DUALSPOT-UV-BLUE-GREEN-RED-IR","526311","614837","905503","46.521348","16.412533","0.008797","599444","828725","760595","28.466772","8.613302","0.007898","717650","856013","816419","22.286620","6.318295","0.005872","738032","882376","859679","17.030612","4.484689","0.000726","671522","838049","955305","10.784378","2.712783","-0.007995","72947","105652","123481","78674","94589","101494","76219","84442","87695","75765","76464","76714","71469","67223","65796",""
"MA200-0416","27702","82","1","1.10","1.4","2023-05-25T08:41:30","120","2023/05/25","08:41:30","-15.802940666675568","35.01881632767618","0.0","11","30","64","53","-104","116","-26424","10","150","149.53","115.00","34.52","31.55","42.6","17.30","90132","31.56","DUALSPOT-UV-BLUE-GREEN-RED-IR","523905","615691","911066","47.542072","16.861702","0.008818","596270","829769","764548","29.481636","8.989889","0.008600","709831","851851","815032","23.186434","6.626022","0.007035","736415","885047","864377","17.774634","4.717338","0.003016","665766","833904","952044","11.295376","2.861228","-0.004004","52132","76419","89766","65420","80865","87642","64960","74003","77621","64908","67609","68585","62071","60066","59386",""
"MA200-0416","27703","82","1","1.10","1.4","2023-05-25T08:42:00","120","2023/05/25","08:42:00","-15.802937507629395","35.018811494112015","0.0","11","30","64","53","-132","268","-26547","10","150","149.49","114.95","34.53","31.69","42.3","17.33","90136","31.75","DUALSPOT-UV-BLUE-GREEN-RED-IR","514532","609859","908403","49.249808","17.607696","0.008408","588016","824325","762736","30.802558","9.474070","0.007831","704996","851494","817341","24.295474","7.002026","0.006296","728635","880466","861923","18.667774","4.992121","0.001706","664582","835516","955261","11.884079","3.026897","-0.007804","87257","126879","148928","85185","103937","112266","80098","90394","94563","77950","79829","80515","71541","67015","65469",""
"MA200-0416","27704","82","1","1.10","1.4","2023-05-25T08:42:30","120","2023/05/25","08:42:30","-15.802933275699615","35.01881032809615","0.1","11","30","64","53","-220","116","-26603","10","150","149.92","115.41","34.51","31.84","42.0","17.32","90132","31.88","DUALSPOT-UV-BLUE-GREEN-RED-IR","511182","606716","904758","49.443532","17.700326","0.009762","588457","826629","765839","31.075612","9.578844","0.009346","701170","848593","815432","24.555852","7.090825","0.006715","730725","884693","866757","18.896796","5.060745","0.000143","661050","832371","952244","12.064995","3.077595","-0.007644","9859","15764","19057","17539","22505","24718","18731","21361","22429","19909","19948","19963","21898","20521","20049",""
