"Serial number","Datum ID","Session ID","Data format version","Firmware version","App version","Date / time local","Timezone offset (mins)","Date local (yyyy/MM/dd)","Time local (hh:mm:ss)","GPS lat (ddmm.mmmmm)","GPS long (dddmm.mmmmm)","GPS speed (km/h)","GPS sat count","Timebase (s)","Status","Battery remaining (%)","Accel X","Accel Y","Accel Z","Tape position","Flow setpoint (mL/min)","Flow total (mL/min)","Flow1 (mL/min)","Flow2 (mL/min)","Sample temp (C)","Sample RH (%)","Sample dewpoint (C)","Internal pressure (Pa)","Internal temp (C)","Optical config","UV Sen1","UV Sen2","UV Ref","UV ATN1","UV ATN2","UV K","Blue Sen1","Blue Sen2","Blue Ref","Blue ATN1","Blue ATN2","Blue K","Green Sen1","Green Sen2","Green Ref","Green ATN1","Green ATN2","Green K","Red Sen1","Red Sen2","Red Ref","Red ATN1","Red ATN2","Red K","IR Sen1","IR Sen2","IR Ref","IR ATN1","IR ATN2","IR K","UV BC1","UV BC2","UV BCc","Blue BC1","Blue BC2","Blue BCc","Green BC1","Green BC2","Green BCc","Red BC1","Red BC2","Red BCc","IR BC1","IR BC2","IR BCc","Readable status"
"MA200-0420","42175","66","1","1.10","1.6","2023-07-08T22:45:00","120","2023/07/08","22:45:00","0","0","0.0","12","300","66","17","-1668","-8592","22072","1","100","99.83","72.14","27.69","25.83","42.7","12.21","0","0.00","DUALSPOT-UV-BLUE-GREEN-RED-IR","803784","708851","905658","0.000000","0.000000","0.000000","895186","900175","837868","0.000000","0.000000","0.000000","873567","875416","830531","0.000000","0.000000","0.000000","887923","876801","885973","0.000000","0.000000","0.000000","775826","895869","962458","0.000000","0.000000","0.000000","","","","","","","","","","","","","","","","Start up-DualSpot on"
"MA200-0420","42176","66","1","1.10","1.6","2023-07-08T22:50:00","120","2023/07/08","22:50:00","0","0","0.0","13","300","64","17","-816","-9832","21768","1","100","100.15","71.87","28.29","25.58","42.7","11.96","0","0.00","DUALSPOT-UV-BLUE-GREEN-RED-IR","798126","707283","905969","0.000000","0.000000","0.000000","892388","899650","838626","0.000000","0.000000","0.000000","871394","874991","831079","0.000000","0.000000","0.000000","886443","876604","886559","0.000000","0.000000","0.000000","776446","897425","964608","0.000000","0.000000","0.000000","","","","","","","","","","","","","","","","DualSpot on"
"MA200-0420","42177","66","1","1.10","1.6","2023-07-08T22:55:00","120","2023/07/08","22:55:00","0","0","0.0","13","300","64","16","-804","-9920","21758","1","100","99.62","72.36","27.25","25.39","43.1","11.95","89716","24.31","DUALSPOT-UV-BLUE-GREEN-RED-IR","792073","704927","905261","0.686718","0.259401","0.000000","888500","897711","838010","0.368618","0.145786","0.000000","868641","873750","830875","0.294578","0.119495","0.000000","883186","874516","885218","0.216577","0.089974","0.000000","775416","896969","964614","0.135177","0.055879","0.000000","5573","5590","5573","3776","3965","3776","3379","3640","3379","3002","3312","3002","2609","2864","2609","DualSpot on"
"MA200-0420","42178","66","1","1.10","1.6","2023-07-08T23:00:00","120","2023/07/08","23:00:00","-15.786954998970032","35.03579115867615","0.3","13","300","64","17","-884","-9944","21736","1","100","99.68","72.10","27.58","25.24","43.4","11.91","89708","24.13","DUALSPOT-UV-BLUE-GREEN-RED-IR","788319","704571","907070","1.359902","0.510040","0.000000","886889","898132","839620","0.742537","0.290220","0.000000","867968","874656","832723","0.594890","0.237739","0.000000","885126","877611","889138","0.440702","0.178387","0.000000","772469","894279","962210","0.269338","0.106750","0.000000","5484","5338","5484","3844","3882","3844","3458","3559","3458","3118","3216","3118","2599","2576","2599","DualSpot on"
"MA200-0420","42179","66","1","1.10","1.6","2023-07-08T23:05:00","120","2023/07/08","23:05:00","-15.78694349527359","35.03563582524657","0.5","13","300","64","16","-3539","-12004","20796","1","100","100.39","72.39","28.00","25.10","43.7","11.89","89700","23.94","DUALSPOT-UV-BLUE-GREEN-RED-IR","785084","704619","909413","2.028631","0.758792","0.000000","879236","892465","835537","1.119035","0.433701","0.000000","867552","875901","834818","0.897127","0.350612","0.000000","884204","877980","890250","0.667526","0.260291","0.000000","772608","895308","963812","0.413684","0.155362","0.000000","5425","5217","5425","3855","3798","3855","3466","3346","3466","3143","2934","3143","2785","2425","2785","DualSpot on"
"MA200-0420","42180","66","1","1.10","1.6","2023-07-08T23:10:00","120","2023/07/08","23:10:00","-15.787055790424347","35.0358716621995","0.7","13","300","64","15","-2637","-11804","20879","1","100","99.63","71.94","27.68","25.00","44.0","11.88","89696","23.94","DUALSPOT-UV-BLUE-GREEN-RED-IR","776366","699752","905314","2.695535","1.001867","0.000000","878314","893658","837843","1.496643","0.575387","0.000000","862316","872266","832329","1.197993","0.462680","0.000000","879453","874456","887408","0.890559","0.342443","0.000000","770294","893405","962233","0.554576","0.204679","0.000000","5444","5157","5444","3891","3794","3891","3472","3360","3472","3110","2977","3110","2735","2488","2735","DualSpot on"
"MA200-0420","42181","66","1","1.10","1.6","2023-07-08T23:15:00","120","2023/07/08","23:15:00","-15.787128806114197","35.03527299314737","0.7","12","300","64","15","-2604","-11788","20832","1","100","99.83","72.35","27.48","24.94","44.2","11.92","0","0.00","DUALSPOT-UV-BLUE-GREEN-RED-IR","771366","698108","905263","3.337356","1.231405","-0.030541","875345","892706","838046","1.860589","0.705653","0.000000","859916","871460","832406","1.488572","0.565922","0.000000","877272","873529","887099","1.104146","0.415826","0.000000","774258","898850","968549","0.690567","0.250743","0.000000","5210","4906","4728","3729","3514","3729","3334","3119","3334","2961","2679","2961","2625","2341","2625","DualSpot on"
"MA200-0420","42182","66","1","1.10","1.6","2023-07-08T23:20:00","120","2023/07/08","23:20:00","-15.786965787410736","35.03558349236846","0.5","12","300","64","15","-2668","-11828","21300","1","100","99.83","73.07","26.76","24.90","44.5","11.99","0","0.00","DUALSPOT-UV-BLUE-GREEN-RED-IR","769848","699299","908855","3.927538","1.454477","0.012265","869403","888451","835127","2.195537","0.833612","0.000000","860522","873556","835228","1.756465","0.666296","0.000000","879198","876563","890844","1.303913","0.490207","0.000000","771041","895866","965728","0.819847","0.293732","0.000000","4744","4895","4984","3398","3544","3398","3043","3113","3043","2742","2788","2742","2471","2243","2471","DualSpot on"
"MA200-0420","42183","66","1","1.10","1.6","2023-07-08T23:25:00","120","2023/07/08","23:25:00","-15.787014126777649","35.035404324531555","0.2","12","300","64","15","-2512","-11812","20972","1","100","100.14","72.02","28.11","24.87","44.8","12.06","0","0.00","DUALSPOT-UV-BLUE-GREEN-RED-IR","766254","698458","909648","4.484779","1.660396","-0.020645","867231","888026","835699","2.514720","0.951111","0.000000","853348","867631","830372","2.012950","0.761824","0.000000","878411","876827","891748","1.496601","0.560049","0.000000","770594","896113","966429","0.946884","0.337395","0.000000","4544","4301","4159","3285","3098","3285","2956","2820","2956","2684","2492","2684","2464","2169","2464","DualSpot on"
"MA200-0420","42184","66","1","1.10","1.6","2023-07-08T23:30:00","120","2023/07/08","23:30:00","-15.787081599235535","35.03538565710187","0.5","12","300","64","14","-2552","-11840","20888","1","100","99.66","71.78","27.88","24.86","45.1","12.15","0","0.00","DUALSPOT-UV-BLUE-GREEN-RED-IR","762362","697255","909756","5.004665","1.848405","-0.024528","864976","887464","836072","2.819562","1.058882","0.000000","851301","866944","830458","2.259213","0.846427","0.000000","877034","876538","892010","1.682058","0.623255","0.000000","769750","895851","966502","1.066078","0.375868","0.000000","4254","3960","3788","3148","2865","3148","2848","2519","2848","2592","2274","2592","2319","1927","2319","DualSpot on"
"MA200-0420","42185","66","1","1.10","1.6","2023-07-08T23:35:00","120","2023/07/08","23:35:00","-15.786938965320587","35.03549398854375","0.1","13","300","64","14","-2532","-11784","21080","1","100","99.73","72.06","27.67","24.87","45.3","12.24","89684","23.81","DUALSPOT-UV-BLUE-GREEN-RED-IR","759208","696380","910330","5.484752","2.035238","0.003853","863042","887006","836501","3.096974","1.166349","0.004577","849941","866758","830977","2.483868","0.932836","0.000000","875657","876083","892119","1.852751","0.687363","0.000000","769537","896242","967310","1.176540","0.413713","0.000000","3913","3966","3997","2853","2879","2894","2588","2592","2588","2376","2324","2376","2141","1910","2141","DualSpot on"
"MA200-0420","42186","66","1","1.10","1.6","2023-07-08T23:40:00","120","2023/07/08","23:40:00","0","0","0.0","13","300","64","12","-2504","-11832","20908","1","100","100.37","71.82","28.54","24.86","45.5","12.28","89680","23.81","DUALSPOT-UV-BLUE-GREEN-RED-IR","753547","693107","907654","5.936859","2.213787","-0.001671","857955","883209","833787","3.361064","1.268959","-0.011021","851872","869906","834664","2.698034","1.014429","0.000000","872521","873834","890370","2.015136","0.747589","0.000000","767239","894211","965474","1.284561","0.451715","0.000000","3697","3674","3660","2725","2665","2628","2475","2373","2475","2268","2117","2268","2100","1859","2100","DualSpot on"
"MA200-0420","42187","66","1","1.10","1.6","2023-07-08T23:45:00","120","2023/07/08","23:45:00","-15.787105739116669","35.03534349054098","0.4","13","300","64","13","-2540","-11792","20884","1","100","99.78","72.11","27.67","24.88","45.6","12.33","0","0.00","DUALSPOT-UV-BLUE-GREEN-RED-IR","752221","693694","909902","6.365650","2.377102","-0.001890","858096","884731","835995","3.611982","1.362174","-0.014934","845808","864800","830407","2.903211","1.089685","0.000000","872658","874835","891912","2.171973","0.804473","0.000000","767660","895327","967006","1.388750","0.484477","0.000000","3492","3466","3450","2579","2497","2447","2362","2257","2362","2182","2062","2182","2018","1653","2018","DualSpot on"
"MA200-0420","42188","66","1","1.10","1.6","2023-07-08T23:50:00","120","2023/07/08","23:50:00","-15.787063598632812","35.03526332601905","0.5","13","300","64","11","-2545","-11820","20904","1","100","100.90","73.48","27.42","24.88","45.6","12.35","0","0.00","DUALSPOT-UV-BLUE-GREEN-RED-IR","747165","690641","907410","6.762102","2.540474","0.021172","853920","881620","833887","3.845131","1.458531","0.038401","848060","868120","834233","3.094059","1.166892","0.038448","869056","872003","889517","2.319343","0.863346","0.000000","765442","893264","965131","1.485288","0.520765","0.000000","3168","3499","3698","2352","2605","2759","2156","2337","2447","2012","2154","2012","1835","1848","1835","DualSpot on"
"MA200-0420","42189","66","1","1.10","1.6","2023-07-08T23:55:00","120","2023/07/08","23:55:00","-15.787120163440704","35.03523115813732","0.4","13","300","64","10","-2512","-11800","20954","1","100","100.32","72.46","27.85","24.89","45.7","12.37","89672","23.88","DUALSPOT-UV-BLUE-GREEN-RED-IR","744648","689892","907767","7.141065","2.691541","0.007874","852006","880862","833885","4.068845","1.545488","0.004389","847213","868230","834904","3.275883","1.237255","0.003308","868664","872399","890378","2.459416","0.915369","0.000000","764957","893238","965405","1.577796","0.553782","0.000000","3071","3185","3254","2288","2314","2330","2083","2097","2105","1939","1873","1939","1783","1655","1783","DualSpot on"
"MA200-0420","42190","66","1","1.10","1.6","2023-07-09T00:00:00","120","2023/07/09","00:00:00","-15.787027478218079","35.03540265932679","0.0","13","300","64","10","-2484","-11808","20944","1","100","99.78","72.36","27.42","24.89","45.8","12.39","89672","23.81","DUALSPOT-UV-BLUE-GREEN-RED-IR","742321","689263","908255","7.505192","2.836158","0.009574","850818","880796","834518","4.285240","1.628589","0.004970","845432","867355","834616","3.453511","1.303869","-0.004858","866850","871326","889738","2.594816","0.964338","0.000000","763905","892553","964974","1.668151","0.583818","0.000000","2955","3097","3184","2216","2246","2265","2037","2016","2004","1877","1791","1877","1744","1530","1744","DualSpot on"
"MA200-0420","42191","66","1","1.10","1.6","2023-07-09T00:05:00","120","2023/07/09","00:05:00","-15.787159860134125","35.03525749221444","0.7","13","300","64","10","-2537","-11866","20970","1","100","100.51","72.24","28.27","24.90","45.8","12.40","0","0.00","DUALSPOT-UV-BLUE-GREEN-RED-IR","740948","689441","909736","7.856701","2.972631","-0.001663","850658","881782","836082","4.492456","1.706319","-0.015990","840066","862771","830759","3.624498","1.365625","-0.039003","867938","873164","892050","2.726895","1.011943","0.000000","764713","893993","966816","1.756101","0.612770","0.000000","2858","2835","2821","2126","2038","1983","1965","1813","1721","1834","1689","1834","1700","1430","1700","DualSpot on"
"MA200-0420","42192","66","1","1.10","1.6","2023-07-09T00:10:00","120","2023/07/09","00:10:00","-15.787059366703033","35.035324823111296","0.1","13","300","64","10","-2479","-11804","20987","1","100","100.05","72.03","28.01","24.90","45.8","12.41","0","0.00","DUALSPOT-UV-BLUE-GREEN-RED-IR","737635","687789","908712","8.192295","3.099870","-0.005134","848037","880202","835224","4.693836","1.780319","-0.020769","838106","861665","830158","3.788620","1.425189","-0.031660","866214","872133","891378","2.853752","1.056330","0.000000","763545","893168","966175","1.839780","0.640104","0.000000","2736","2667","2626","2072","1958","1888","1891","1765","1689","1766","1589","1766","1622","1363","1622","DualSpot on"
"MA200-0420","42193","66","1","1.10","1.6","2023-07-09T00:15:00","120","2023/07/09","00:15:00","-15.787029325962067","35.03525833040476","0.1","13","300","64","9","-2476","-11844","21012","1","100","99.88","72.26","27.62","24.90","45.8","12.42","0","0.00","DUALSPOT-UV-BLUE-GREEN-RED-IR","733902","685610","906985","8.510353","3.227886","0.009219","851153","884454","839872","4.884160","1.853221","0.000649","840324","864821","833692","3.946995","1.483422","-0.016507","862655","869249","888806","2.975906","1.099859","0.000000","761743","891537","964653","1.919881","0.666117","0.000000","2585","2721","2805","1952","1956","1958","1819","1750","1708","1696","1580","1696","1548","1315","1548","DualSpot on"
"MA200-0420","42194","66","1","1.10","1.6","2023-07-09T00:20:00","120","2023/07/09","00:20:00","-15.787098944187164","35.035279493778944","0.2","13","300","64","9","-2440","-11808","20744","1","100","99.59","72.01","27.58","24.89","45.9","12.44","0","0.00","DUALSPOT-UV-BLUE-GREEN-RED-IR","732458","685607","908097","8.827770","3.350614","0.001678","851010","885396","841356","5.077511","1.923698","-0.016677","839915","865271","834605","4.106807","1.541441","-0.022241","863124","870424","890387","3.100866","1.143761","-0.048751","761862","892172","965588","2.001007","0.692421","0.000000","2589","2613","2628","1990","1894","1835","1842","1746","1688","1741","1596","1512","1573","1332","1573","DualSpot on"
"MA200-0420","42195","66","1","1.10","1.6","2023-07-09T00:25:00","120","2023/07/09","00:25:00","-15.786859393119812","35.03536266088486","0.6","13","300","64","8","-2512","-11780","20884","1","100","100.28","72.00","28.28","24.90","45.9","12.45","0","0.00","DUALSPOT-UV-BLUE-GREEN-RED-IR","730470","685030","908453","9.140818","3.475959","0.003305","842876","877946","834908","5.269617","1.999503","0.001378","839014","865202","835028","4.265445","1.601189","-0.016561","862513","870473","890881","3.224406","1.190988","-0.013773","761395","892058","965781","2.081356","0.723197","0.000000","2553","2603","2633","1977","1986","1992","1829","1753","1708","1721","1675","1648","1558","1520","1558","DualSpot on"
"MA200-0420","42196","66","1","1.10","1.6","2023-07-09T00:30:00","120","2023/07/09","00:30:00","-15.787070989608765","35.035318825393915","0.5","12","300","64","7","-2491","-11862","20950","1","100","100.19","72.18","28.01","24.89","46.0","12.47","0","0.00","DUALSPOT-UV-BLUE-GREEN-RED-IR","728114","684015","908208","9.436377","3.595489","0.006768","847685","883948","841205","5.451477","2.071011","0.003858","837476","864416","834756","4.417383","1.661419","0.007574","861331","869921","890711","3.342971","1.236101","-0.009517","760566","891554","965481","2.159956","0.749322","0.000000","2405","2506","2569","1867","1892","1907","1747","1785","1808","1648","1615","1597","1521","1303","1521","DualSpot on"
"MA200-0420","42197","66","1","1.10","1.6","2023-07-09T00:35:00","120","2023/07/09","00:35:00","-15.787067651748657","35.03499899059534","1.3","12","300","64","6","-2466","-11870","20991","1","100","99.63","71.82","27.80","24.88","46.0","12.46","89644","23.75","DUALSPOT-UV-BLUE-GREEN-RED-IR","725314","682542","907255","9.717438","3.708770","0.006432","845057","882133","840061","5.625868","2.140217","0.006949","835987","863637","834489","4.562115","1.717001","-0.002815","859878","869060","890224","3.456715","1.279611","-0.005520","759904","891198","965343","2.234569","0.776163","0.000000","2298","2393","2451","1799","1845","1873","1672","1659","1651","1588","1570","1559","1451","1348","1451","DualSpot on"
"MA200-0420","42198","66","1","1.10","1.6","2023-07-09T00:40:00","120","2023/07/09","00:40:00","-15.78724217414856","35.03527549281716","0.4","13","300","64","6","-2480","-11740","20848","1","100","99.68","71.43","28.25","24.87","46.0","12.45","89636","23.75","DUALSPOT-UV-BLUE-GREEN-RED-IR","722937","681387","906767","9.990456","3.821722","0.006962","843667","881559","840111","5.796307","2.210807","0.012254","834180","862498","833863","4.703802","1.775586","0.014504","857314","867007","888551","3.568587","1.325254","0.013440","758830","890351","964722","2.308948","0.803970","0.000000","2244","2348","2412","1768","1852","1904","1646","1721","1767","1571","1621","1650","1454","1375","1454","DualSpot on"
"MA200-0420","42199","66","1","1.10","1.6","2023-07-09T00:45:00","120","2023/07/09","00:45:00","-15.787224352359772","35.03527482226491","0.5","13","300","64","5","-2432","-11808","21032","1","100","100.05","71.95","28.10","24.86","46.0","12.45","89632","23.69","DUALSPOT-UV-BLUE-GREEN-RED-IR","720864","680459","906515","10.253021","3.930523","0.008797","841583","880225","839379","5.959958","2.275806","0.004516","832678","861687","833516","4.840290","1.828617","-0.001689","855726","866016","887880","3.676317","1.366137","-0.012768","757452","889123","963616","2.377308","0.828720","0.000000","2143","2274","2355","1686","1715","1732","1574","1567","1562","1502","1459","1434","1327","1230","1327","DualSpot on"
"MA200-0420","42200","66","1","1.10","1.6","2023-07-09T00:50:00","120","2023/07/09","00:50:00","-15.787153601646423","35.035238824784756","0.6","12","300","64","5","-2460","-11868","20956","1","100","100.05","72.16","27.89","24.85","46.1","12.45","0","0.00","DUALSPOT-UV-BLUE-GREEN-RED-IR","717852","678713","905118","10.514057","4.033180","0.002623","839101","878518","838267","6.123513","2.338284","-0.003146","830855","860511","832817","4.977895","1.880592","-0.007631","854263","865128","887324","3.785018","1.405963","-0.023879","756557","888500","963179","2.449278","0.852443","0.000000","2124","2162","2185","1680","1660","1648","1583","1547","1525","1511","1432","1386","1393","1188","1393","DualSpot on"
"MA200-0420","42201","66","1","1.10","1.6","2023-07-09T00:55:00","120","2023/07/09","00:55:00","-15.787380814552307","35.03518849238753","1.4","13","300","64","4","-2404","-11844","20956","1","100","99.83","72.32","27.51","24.82","46.1","12.43","0","0.00","DUALSPOT-UV-BLUE-GREEN-RED-IR","715568","677594","904555","10.772291","4.136770","0.007559","837334","877580","837897","6.286970","2.401578","0.004500","829167","859485","832244","5.114171","1.931738","-0.004272","852835","864265","886768","3.891582","1.444727","-0.019179","755925","888193","963084","2.521074","0.877388","0.000000","2097","2211","2283","1675","1705","1724","1564","1543","1530","1478","1413","1375","1386","1266","1386","DualSpot on"
"MA200-0420","42202","66","1","1.10","1.6","2023-07-09T01:00:00","120","2023/07/09","01:00:00","-15.787577986717224","35.03491732850671","124190.1","13","300","64","3","-2470","-11850","21220","1","100","99.62","72.03","27.59","24.79","46.1","12.42","0","0.00","DUALSPOT-UV-BLUE-GREEN-RED-IR","718246","681102","910178","11.018532","4.240356","0.012522","834810","875722","836663","6.445234","2.467793","0.020222","827208","858114","831417","5.246799","1.985991","0.018831","851126","863065","885896","3.995665","1.486505","0.017810","754557","886927","961946","2.587387","0.904755","0.000000","2007","2205","2329","1628","1779","1872","1528","1632","1696","1449","1519","1560","1286","1385","1286","DualSpot on"
"MA200-0420","42203","66","1","1.10","1.6","2023-07-09T01:05:00","120","2023/07/09","01:05:00","-15.787110447883606","35.035212993621826","0.9","13","300","64","2","-2480","-11803","21065","1","100","99.98","71.98","28.00","24.76","46.2","12.42","0","0.00","DUALSPOT-UV-BLUE-GREEN-RED-IR","715437","679436","908839","11.262436","4.336035","0.001198","831833","873460","835008","6.603281","2.526146","-0.013602","825133","856703","830438","5.378823","2.035749","-0.009811","855799","868371","891732","4.102217","1.526170","-0.017943","758010","891403","967026","2.656772","0.928095","0.000000","1990","2006","2017","1627","1544","1493","1522","1475","1446","1485","1421","1383","1346","1164","1346","DualSpot on"
"MA200-0420","42204","66","1","1.10","1.6","2023-07-09T01:10:00","120","2023/07/09","01:10:00","-15.787217736244202","35.03520082682371","0.4","13","300","64","1","-2458","-11812","20966","1","100","99.63","71.67","27.96","24.73","46.2","12.40","0","0.00","DUALSPOT-UV-BLUE-GREEN-RED-IR","711115","676271","905410","11.494345","4.427206","0.001071","834108","876677","838575","6.751847","2.583718","-0.001631","826988","859287","833328","5.505123","2.083355","-0.010469","851339","864411","887961","4.200689","1.561491","-0.035041","755367","888652","964260","2.721912","0.950276","0.000000","1900","1915","1924","1536","1526","1520","1463","1413","1383","1378","1267","1201","1269","1108","1269","DualSpot on"
"MA200-0420","42205","66","1","1.10","1.6","2023-07-09T01:15:00","120","2023/07/09","01:15:00","-15.787628531455994","35.03483599424362","0.7","13","300","64","1","-2408","-11800","21156","1","100","100.15","71.91","28.24","24.70","46.3","12.38","0","0.00","DUALSPOT-UV-BLUE-GREEN-RED-IR","710281","676379","906406","11.719494","4.521663","0.008515","833681","876962","839358","6.897371","2.643984","0.011741","826336","859232","833698","5.628985","2.133274","0.007150","851536","865147","889037","4.298748","1.599617","-0.003813","755480","889128","965014","2.785936","0.974935","0.000000","1839","1964","2042","1500","1581","1632","1430","1467","1490","1368","1354","1346","1243","1219","1243","DualSpot on"
"MA200-0420","42206","66","1","1.10","1.6","2023-07-09T01:20:00","120","2023/07/09","01:20:00","-15.787039816379547","35.035373490303755","0.2","13","300","64","0","-2588","-11856","21196","1","100","99.99","72.24","27.75","24.66","46.4","12.39","0","0.00","DUALSPOT-UV-BLUE-GREEN-RED-IR","708085","675150","905553","11.936304","4.610239","0.007843","831801","875722","838642","7.039596","2.700859","0.008838","825253","858725","833580","5.746932","2.178406","-0.001123","850104","864171","888355","4.393079","1.634867","-0.010364","754855","888767","964825","2.845386","0.995845","0.000000","1762","1874","1944","1459","1519","1556","1355","1350","1346","1310","1274","1253","1149","1052","1149","DualSpot on"
"MA200-0420","42207","66","1","1.10","1.6","2023-07-09T01:25:00","120","2023/07/09","01:25:00","-15.787095129489899","35.03535882756114","0.3","13","300","64","0","-2468","-11832","20940","1","100","100.20","71.97","28.23","24.63","46.4","12.38","0","0.00","DUALSPOT-UV-BLUE-GREEN-RED-IR","705559","673586","904244","12.147158","4.697223","0.006382","829548","874092","837521","7.176512","2.755671","0.004476","823045","857061","832350","5.862487","2.224910","0.006809","848177","862712","887177","4.485503","1.670754","-0.003714","753454","887435","963607","2.903652","1.018069","0.000000","1720","1809","1865","1410","1439","1457","1333","1367","1388","1288","1275","1267","1130","1099","1130","DualSpot on"
"MA200-0420","42208","66","1","1.10","1.6","2023-07-09T01:30:00","120","2023/07/09","01:30:00","-15.78715032339096","35.0352993234992","0.6","14","300","64","0","-2429","-11783","20925","1","100","100.12","72.16","27.96","24.59","46.6","12.38","0","0.00","DUALSPOT-UV-BLUE-GREEN-RED-IR","709027","677693","910571","12.354368","4.784849","0.010513","827720","872884","836824","7.314290","2.809405","0.001449","821573","856154","831819","5.980866","2.270824","0.000280","846634","861620","886382","4.579948","1.706948","-0.003854","752739","886892","963244","2.965047","1.041564","0.000000","1686","1840","1938","1415","1424","1430","1361","1363","1364","1313","1298","1290","1188","1173","1188","DualSpot on"
"MA200-0420","42209","66","1","1.10","1.6","2023-07-09T01:35:00","120","2023/07/09","01:35:00","-15.786980211734772","35.03550532832742","0.9","14","300","64","0","-2368","-11808","20916","1","100","99.98","71.94","28.04","24.57","46.6","12.39","0","0.00","DUALSPOT-UV-BLUE-GREEN-RED-IR","705534","675173","907898","12.553217","4.862802","0.000746","824131","869815","834317","7.448529","2.860427","-0.005645","818981","854010","830135","6.093731","2.312123","-0.017944","850380","865964","891134","4.669548","1.737720","-0.049998","750790","884950","961316","3.022775","1.060442","-0.109059","1623","1632","1638","1383","1348","1327","1302","1222","1174","1249","1101","1013","1120","940","843","DualSpot on"
"MA200-0420","42210","66","1","1.10","1.6","2023-07-09T01:40:00","120","2023/07/09","01:40:00","-15.787080645561218","35.03523349389434","0.1","14","300","64","0","-2388","-11840","20924","1","100","99.51","71.74","27.77","24.53","46.8","12.39","0","0.00","DUALSPOT-UV-BLUE-GREEN-RED-IR","703306","673826","906831","12.751806","4.944967","0.007937","822443","868727","833710","7.578091","2.911865","0.005295","822526","858333","834638","6.203010","2.354347","-0.000452","849053","865105","890514","4.756727","1.769926","-0.016450","754580","889754","966728","3.080516","1.081540","-0.030673","1625","1737","1808","1338","1373","1394","1264","1262","1261","1219","1163","1130","1124","1061","1027","DualSpot on"
"MA200-0420","42211","66","1","1.10","1.6","2023-07-09T01:45:00","120","2023/07/09","01:45:00","-15.787075817584991","35.03522365540266","0.6","14","300","64","0","-2480","-11808","21044","1","100","99.88","71.94","27.94","24.48","46.9","12.38","0","0.00","DUALSPOT-UV-BLUE-GREEN-RED-IR","702915","674230","908064","12.942934","5.020481","0.002132","828928","876240","841331","7.705050","2.960479","-0.003023","817720","853854","830658","6.312250","2.396101","-0.004142","849372","865899","891639","4.844996","1.802252","-0.020594","750514","885278","962035","3.135162","1.099415","-0.102286","1560","1587","1604","1308","1289","1278","1260","1240","1228","1230","1160","1119","1061","893","803","DualSpot on"
"MA200-0420","42212","66","1","1.10","1.6","2023-07-09T01:50:00","120","2023/07/09","01:50:00","-15.787099063396454","35.03537715598941","0.5","13","300","64","0","-2391","-11825","20950","1","100","99.83","71.90","27.93","24.44","47.0","12.40","89572","23.25","DUALSPOT-UV-BLUE-GREEN-RED-IR","700844","672989","907068","13.128748","5.096287","0.005793","826902","874777","840321","7.830172","3.009188","0.000473","816277","852905","830071","6.418192","2.437287","0.000236","848140","865089","891069","4.929599","1.834332","-0.007978","749875","884833","961786","3.192281","1.120832","-0.017670","1517","1594","1642","1290","1292","1294","1223","1224","1225","1180","1152","1135","1109","1071","1050","DualSpot on"
"MA200-0420","42213","66","1","1.10","1.6","2023-07-09T01:55:00","120","2023/07/09","01:55:00","-15.787067651748657","35.03529816120863","0.2","13","300","64","0","-2441","-11791","21100","1","100","99.54","71.60","27.94","24.41","47.1","12.40","89568","23.25","DUALSPOT-UV-BLUE-GREEN-RED-IR","696908","669938","903615","13.308451","5.169790","0.005485","822917","871211","837273","7.951533","3.056192","-0.001551","818469","855762","833188","6.522074","2.476680","-0.007321","844585","861910","888067","5.012154","1.864886","-0.017858","752448","888163","965592","3.245197","1.139233","-0.062128","1474","1545","1590","1256","1247","1241","1204","1170","1149","1156","1097","1061","1032","920","859","DualSpot on"
"MA200-0420","42214","66","1","1.10","1.6","2023-07-09T02:00:00","120","2023/07/09","02:00:00","-15.787138640880585","35.03523198887706","0.5","13","300","64","0","-2392","-11823","20896","1","100","99.92","71.79","28.14","24.38","47.3","12.44","89568","23.25","DUALSPOT-UV-BLUE-GREEN-RED-IR","696678","670379","904831","13.480314","5.238853","0.002951","823049","871972","838399","8.066509","3.101861","0.002659","818283","856081","833791","6.619128","2.513796","-0.006141","844605","862373","888817","5.091002","1.893778","-0.022689","752481","888527","966128","3.295124","1.156458","-0.068620","1406","1441","1464","1187","1203","1213","1122","1095","1078","1101","1030","987","971","855","792","DualSpot on"
"MA200-0420","42215","66","1","1.10","1.6","2023-07-09T02:05:00","120","2023/07/09","02:05:00","-15.787124991416931","35.0353311561048","0.6","13","300","64","0","-2416","-11825","20887","1","100","99.83","71.94","27.89","24.35","47.5","12.47","0","0.00","DUALSPOT-UV-BLUE-GREEN-RED-IR","695222","669631","904495","13.649374","5.310890","0.010210","821672","871096","837936","8.179878","3.147924","0.008825","816962","855189","833240","6.716361","2.550989","-0.003310","843184","861359","888022","5.168506","1.922335","-0.016649","751626","887804","965514","3.346014","1.175176","-0.025725","1380","1516","1603","1168","1224","1259","1122","1107","1097","1080","1027","995","988","937","909","DualSpot on"
"MA200-0420","42216","66","1","1.10","1.6","2023-07-09T02:10:00","120","2023/07/09","02:10:00","-15.786993682384491","35.03545882552862","0.1","13","300","64","0","-2428","-11840","20956","1","100","99.64","71.90","27.74","24.32","47.5","12.44","0","0.00","DUALSPOT-UV-BLUE-GREEN-RED-IR","698105","673024","909728","13.815296","5.379423","0.007512","818979","868813","836129","8.291963","3.191471","0.001381","814790","853427","831844","6.811280","2.588343","0.004621","847806","866473","893537","5.244312","1.951662","0.000869","750476","886728","964528","3.397232","1.193277","-0.043715","1355","1451","1512","1155","1163","1169","1096","1118","1131","1057","1060","1062","995","911","866","DualSpot on"
"MA200-0420","42217","66","1","1.10","1.6","2023-07-09T02:15:00","120","2023/07/09","02:15:00","-15.786747336387634","35.03596682474017","0.3","13","300","72","0","-2404","-11772","21024","1","100","99.53","71.63","27.90","24.29","47.4","12.39","89564","23.13","DUALSPOT-UV-BLUE-GREEN-RED-IR","603077","582006","787177","13.979664","5.445423","0.003451","823409","874112","841595","8.404176","3.235983","0.003472","812573","851588","830368","6.907202","2.625680","-0.000150","845013","864033","891326","5.321620","1.980936","-0.008696","748893","885139","962973","3.447572","1.211055","-0.048701","1347","1389","1416","1161","1182","1196","1111","1111","1110","1082","1052","1034","981","890","840","DualSpot on"
"MA200-0420","42218","66","1","1.10","1.6","2023-07-09T02:20:00","120","2023/07/09","02:20:00","-15.787026822566986","35.0354324914515","0.0","14","300","64","0","-2395","-11841","20904","1","100","99.51","72.22","27.28","24.25","47.4","12.34","89568","23.06","DUALSPOT-UV-BLUE-GREEN-RED-IR","693750","670117","906953","14.136772","5.515295","0.015925","821382","872485","840413","8.511428","3.282505","0.022825","816449","856123","835115","6.999875","2.666688","0.030960","844443","863804","891332","5.395290","2.011572","0.025649","748417","884801","962801","3.493921","1.230239","0.036797","1277","1504","1648","1100","1263","1366","1065","1247","1360","1023","1126","1187","896","982","1028","DualSpot on"
"MA200-0420","42219","66","1","1.10","1.6","2023-07-09T02:25:00","120","2023/07/09","02:25:00","-15.787067174911499","35.03523765876889","0.2","12","300","64","0","-2436","-11772","20996","1","100","97.16","72.24","24.92","24.20","47.3","12.29","89572","23.06","DUALSPOT-UV-BLUE-GREEN-RED-IR","517498","666580","902880","35.594176","5.592447","0.189523","633553","868069","836594","27.152886","3.333389","0.318128","630559","853557","832972","26.906982","2.709698","0.391056","654189","860090","887839","24.814976","2.046905","0.519164","589229","887704","966177","21.034614","1.253616","0.849694","174466","1818","-30363","191302","1513","-25045","228789","1433","-24027","269707","1422","-22696","339201","1310","-20103","DualSpot on"
"MA200-0420","42220","66","1","1.10","1.6","2023-07-09T02:30:00","120","2023/07/09","02:30:00","-15.78710263967514","35.03530899435282","0.2","12","300","64","0","-2412","-11808","20783","1","100","100.37","71.94","28.43","24.15","47.4","12.25","89572","23.00","DUALSPOT-UV-BLUE-GREEN-RED-IR","529238","671692","911376","41.737228","5.759483","0.322470","660881","868071","837590","30.071388","3.452456","2.576894","660463","852391","832737","28.080652","2.818465","-0.203232","686531","858829","887377","25.844208","2.144506","-0.187333","597971","887008","966152","26.315666","1.332547","2.852847","50157","3451","-4025","30075","3104","-393","13545","3176","2019","14354","3444","2457","102552","3878","-1384","DualSpot on"
"MA200-0420","42221","66","1","1.10","1.6","2023-07-09T02:35:00","120","2023/07/09","02:35:00","-15.787094950675964","35.03528416156769","0.5","12","300","64","0","-2416","-11788","20908","1","100","99.60","71.64","27.95","24.10","47.5","12.23","89572","22.94","DUALSPOT-UV-BLUE-GREEN-RED-IR","586047","669604","909118","31.293278","5.825039","0.160558","693159","865649","835625","24.985266","3.497606","0.251533","690253","851399","832091","23.458426","2.855545","0.305753","712791","857794","886578","21.806932","2.174156","0.394187","620953","886359","965593","22.396428","1.350220","0.628661","-85621","1377","21275","-52627","1197","9958","-53563","1101","8677","-56535","1064","7442","-76418","883","5842","DualSpot on"
"MA200-0420","42222","66","1","1.10","1.6","2023-07-09T02:40:00","120","2023/07/09","02:40:00","-15.786977410316467","35.03538782149553","0.6","12","300","64","0","-2441","-11779","20987","1","100","99.64","71.64","28.00","24.05","47.5","12.21","89568","22.88","DUALSPOT-UV-BLUE-GREEN-RED-IR","601419","668128","907678","28.677582","5.887844","0.138758","708010","870940","841107","22.505342","3.540438","0.230256","723609","850083","831102","19.465312","2.893156","0.304590","750358","856816","885825","18.198068","2.202695","0.396841","649674","885562","964956","18.001190","1.368819","0.646432","-21446","1317","7198","-25663","1134","6136","-46278","1115","9389","-50542","1022","8123","-85709","927","8058","DualSpot on"
"MA200-0420","42223","66","1","1.10","1.6","2023-07-09T02:45:00","120","2023/07/09","02:45:00","-15.78703111410141","35.03534932434559","0.0","12","300","64","0","-2424","-11764","20968","1","100","99.83","71.79","28.04","23.99","47.6","12.19","89572","22.88","DUALSPOT-UV-BLUE-GREEN-RED-IR","553808","667413","907253","36.805692","5.951099","0.187830","700095","869592","840139","24.588226","3.582769","0.411519","694784","849658","830996","22.758314","2.929580","0.425209","727810","862177","891609","20.382944","2.231044","0.622108","613693","884737","964193","23.450260","1.385643","0.826534","66503","1324","-11246","21509","1119","-2358","38084","1078","-4389","30535","1014","-2614","106037","838","-5768","DualSpot on"
"MA200-0420","42224","66","1","1.10","1.6","2023-07-09T02:50:00","120","2023/07/09","02:50:00","-15.786890804767609","35.03531865775585","1.0","12","300","64","0","-3296","-11660","20988","1","100","99.62","71.45","28.17","23.99","47.7","12.22","89568","22.88","DUALSPOT-UV-BLUE-GREEN-RED-IR","527493","667488","908077","32.373092","6.027313","0.140283","649837","863591","834717","25.665902","3.631901","1.333047","649653","850115","831774","25.645156","2.969598","0.466616","683404","863212","892999","23.816026","2.263668","0.577616","604145","885615","965355","18.606346","1.405574","0.631602","-36437","1589","10289","11181","1293","-336","33543","1179","-3058","48204","1162","-3778","-94702","988","8808","DualSpot on"
"MA200-0420","42225","66","1","1.10","1.6","2023-07-09T02:55:00","120","2023/07/09","02:55:00","-15.786999344825745","35.03540549427271","0.4","12","300","64","0","-3416","-11676","20820","1","100","100.05","72.32","27.72","23.95","47.8","12.20","89560","22.81","DUALSPOT-UV-BLUE-GREEN-RED-IR","596206","665810","906419","30.079280","6.098919","0.126507","670216","868576","839964","25.547558","3.679317","0.067317","693604","853011","834941","23.974606","3.008890","0.236916","711029","860316","890233","21.863880","2.293958","0.327303","672208","883236","962952","17.146904","1.423950","0.519765","-18629","1517","6640","-1213","1267","1685","-19177","1176","4097","-27081","1096","4399","-28190","925","3562","DualSpot on"
"MA200-0420","42226","66","1","1.10","1.6","2023-07-09T03:00:00","120","2023/07/09","03:00:00","-15.786843061447144","35.03538532182574","0.4","12","300","64","0","-3428","-11796","20748","1","100","99.64","72.31","27.32","23.88","47.8","12.15","89560","22.69","DUALSPOT-UV-BLUE-GREEN-RED-IR","601010","668001","910081","31.671654","6.171861","0.376818","685407","864930","836878","24.725190","3.728520","0.151540","710972","850864","833205","22.535226","3.050351","0.225703","744464","857225","887341","19.319354","2.326875","0.346093","684578","887027","967282","17.249894","1.443785","-0.066709","12933","1568","-1182","-8430","1335","3069","-16525","1259","4044","-35302","1208","6208","1989","1014","925","DualSpot on"
"MA200-0420","42227","66","1","1.10","1.6","2023-07-09T03:05:00","120","2023/07/09","03:05:00","-15.787005305290222","35.0353713221848","0.2","11","300","64","0","-3439","-11724","20848","1","100","99.49","71.71","27.78","23.81","47.9","12.10","0","0.00","DUALSPOT-UV-BLUE-GREEN-RED-IR","589803","665442","907160","28.768844","6.237238","0.133775","695578","868756","840931","25.760238","3.773802","1.026070","692631","848443","831122","23.263310","3.087830","-241.747284","728265","861397","891915","20.331944","2.355604","1.069644","668985","884955","965187","13.320786","1.462167","0.623566","-23775","1382","8346","10699","1208","-420","8429","1120","1","14166","1037","-682","-76539","924","10475","DualSpot on"
"MA200-0420","42228","66","1","1.10","1.6","2023-07-09T03:10:00","120","2023/07/09","03:10:00","-15.786920964717865","35.03535399213433","0.5","11","300","64","0","-3507","-11752","20748","1","100","100.00","71.69","28.31","23.73","47.9","12.04","0","0.00","DUALSPOT-UV-BLUE-GREEN-RED-IR","609187","663339","904955","26.966252","6.308233","0.122219","712221","866149","838815","22.951182","3.821605","0.216823","711909","851822","834753","21.474324","3.128332","0.242527","742110","858955","889661","18.401008","2.386479","0.332248","683354","883485","963776","12.522671","1.482348","0.465799","-14767","1473","6432","-29046","1251","7304","-20716","1187","4923","-27021","1094","5284","-15551","995","3217","DualSpot on"
"MA200-0420","42229","66","1","1.10","1.6","2023-07-09T03:15:00","120","2023/07/09","03:15:00","-15.786684095859528","35.03552332893014","0.4","10","300","64","0","-3541","-11841","20758","1","100","99.73","71.63","28.10","23.67","48.0","12.00","89552","22.50","DUALSPOT-UV-BLUE-GREEN-RED-IR","611025","662288","904105","26.025608","6.372114","0.107850","733360","865109","838166","19.942480","3.865945","0.224822","721424","851342","834599","18.302638","3.166348","0.276620","759926","857571","888452","15.831839","2.414980","0.359207","668036","882838","963241","14.280251","1.501284","0.876850","-7713","1335","4268","-31139","1169","8939","-36762","1123","9048","-35985","1017","7677","34278","941","-2975","DualSpot on"
"MA200-0420","42230","66","1","1.10","1.6","2023-07-09T03:20:00","120","2023/07/09","03:20:00","-15.78706431388855","35.035342160612345","0.3","10","300","64","0","-3555","-11764","20844","1","100","99.01","71.05","27.97","23.61","48.1","12.00","89560","22.50","DUALSPOT-UV-BLUE-GREEN-RED-IR","510963","664083","907169","44.877032","6.437574","0.164056","639636","867292","840654","33.743884","3.909170","0.272487","636761","848493","832129","31.595526","3.203791","0.333425","665455","854778","885871","28.760888","2.444686","0.436646","598785","880521","960917","25.668296","1.519871","0.704556","155852","1374","-24496","144012","1145","-17573","155339","1111","-16291","182579","1065","-15796","223921","928","-13106","DualSpot on"
