"Serial number","Datum ID","Session ID","Data format version","Firmware version","App version","Date / time local","Timezone offset (mins)","Date local (yyyy/MM/dd)","Time local (hh:mm:ss)","GPS lat (ddmm.mmmmm)","GPS long (dddmm.mmmmm)","GPS speed (km/h)","GPS sat count","Timebase (s)","Status","Battery remaining (%)","Accel X","Accel Y","Accel Z","Tape position","Flow setpoint (mL/min)","Flow total (mL/min)","Flow1 (mL/min)","Flow2 (mL/min)","Sample temp (C)","Sample RH (%)","Sample dewpoint (C)","Internal pressure (Pa)","Internal temp (C)","Optical config","UV Sen1","UV Sen2","UV Ref","UV ATN1","UV ATN2","UV K","Blue Sen1","Blue Sen2","Blue Ref","Blue ATN1","Blue ATN2","Blue K","Green Sen1","Green Sen2","Green Ref","Green ATN1","Green ATN2","Green K","Red Sen1","Red Sen2","Red Ref","Red ATN1","Red ATN2","Red K","IR Sen1","IR Sen2","IR Ref","IR ATN1","IR ATN2","IR K","UV BC1","UV BC2","UV BCc","Blue BC1","Blue BC2","Blue BCc","Green BC1","Green BC2","Green BCc","Red BC1","Red BC2","Red BCc","IR BC1","IR BC2","IR BCc","Readable status"
"MA200-0416","27705","83","1","1.10","1.4","2023-05-25T09:43:00","120","2023/05/25","09:43:00","0","0","0.0","2","30","66","54","-1260","-760","22936","11","150","149.35","114.05","35.30","29.19","49.2","17.45","89612","29.25","DUALSPOT-UV-BLUE-GREEN-RED-IR","856979","738593","911397","0.000000","0.000000","0.000000","806722","915380","762660","0.000000","0.000000","0.000000","902574","919609","815459","0.000000","0.000000","0.000000","884822","935871","863681","0.000000","0.000000","0.000000","749839","866028","954768","0.000000","0.000000","0.000000","","","","","","","","","","","","","","","","Start up"
"MA200-0416","27706","83","1","1.10","1.4","2023-05-25T09:43:30","120","2023/05/25","09:43:30","0","0","0.0","3","30","66","54","992","-928","23140","11","150","150.17","115.03","35.15","29.29","48.4","17.29","89608","29.75","DUALSPOT-UV-BLUE-GREEN-RED-IR","849708","732688","904286","0.000000","0.000000","0.000000","808700","917934","764883","0.000000","0.000000","0.000000","902304","919519","815488","0.000000","0.000000","0.000000","887346","938718","866433","0.000000","0.000000","0.000000","749625","866000","954852","0.000000","0.000000","0.000000","","","","","","","","","","","","","","","","Start up"
"MA200-0416","27707","83","1","1.10","1.4","2023-05-25T09:44:00","120","2023/05/25","09:44:00","0","0","0.0","3","30","66","53","1084","-980","23036","11","150","150.29","115.75","34.54","29.41","48.0","17.24","89600","30.00","DUALSPOT-UV-BLUE-GREEN-RED-IR","854295","737009","909810","0.000000","0.000000","0.000000","806716","915883","763295","0.000000","0.000000","0.000000","899999","917355","813601","0.000000","0.000000","0.000000","885309","936692","864604","0.000000","0.000000","0.000000","747237","863318","951963","0.000000","0.000000","0.000000","","","","","","","","","","","","","","","","Start up"
"MA200-0416","27708","83","1","1.10","1.4","2023-05-25T09:44:30","120","2023/05/25","09:44:30","0","0","0.0","3","30","66","53","1316","-948","23100","11","150","150.14","115.29","34.85","29.51","47.6","17.22","89596","30.19","DUALSPOT-UV-BLUE-GREEN-RED-IR","853286","736596","909457","0.000000","0.000000","0.000000","806896","916416","763769","0.000000","0.000000","0.000000","903843","921534","817367","0.000000","0.000000","0.000000","885608","937204","865111","0.000000","0.000000","0.000000","746393","862485","951079","0.000000","0.000000","0.000000","","","","","","","","","","","","","","","","Start up"
"MA200-0416","27709","83","1","1.10","1.4","2023-05-25T09:45:00","120","2023/05/25","09:45:00","0","0","0.0","5","30","66","53","1816","-1324","22816","11","150","150.01","114.41","35.60","29.62","47.5","17.27","89596","30.31","DUALSPOT-UV-BLUE-GREEN-RED-IR","848265","732657","904710","0.000000","0.000000","0.000000","809127","919252","766202","0.000000","0.000000","0.000000","900816","918675","814868","0.000000","0.000000","0.000000","882683","934272","862397","0.000000","0.000000","0.000000","748046","864502","953311","0.000000","0.000000","0.000000","","","","","","","","","","","","","","","","Start up"
"MA200-0416","27710","83","1","1.10","1.4","2023-05-25T09:45:30","120","2023/05/25","09:45:30","0","0","0.0","3","30","64","53","1748","-796","23588","11","150","149.35","114.79","34.56","29.72","47.4","17.33","89596","30.44","DUALSPOT-UV-BLUE-GREEN-RED-IR","851567","735798","908757","0.000000","0.000000","0.000000","806661","916678","764089","0.000000","0.000000","0.000000","902287","920321","816369","0.000000","0.000000","0.000000","884396","936204","864226","0.000000","0.000000","0.000000","749310","866052","955027","0.000000","0.000000","0.000000","","","","","","","","","","","","","","","",""
"MA200-0416","27711","83","1","1.10","1.4","2023-05-25T09:46:00","120","2023/05/25","09:46:00","0","0","0.0","4","30","64","53","1924","-976","22820","11","150","150.08","115.04","35.03","29.81","47.1","17.33","89592","30.50","DUALSPOT-UV-BLUE-GREEN-RED-IR","852627","737017","910399","0.059877","0.016933","0.000000","807581","917914","765168","0.029760","0.006675","0.000000","897883","916019","812581","0.022704","0.003319","0.000000","886875","938979","866807","0.016367","0.003099","0.000000","745473","861727","950285","0.015468","0.003103","0.000000","3057","2839","3057","1917","1412","1917","1638","786","1638","1427","887","1427","1878","1237","1878",""
"MA200-0416","27712","83","1","1.10","1.4","2023-05-25T09:46:30","120","2023/05/25","09:46:30","0","0","0.0","4","30","64","52","2068","-940","23160","11","150","149.87","115.04","34.82","29.91","46.9","17.34","89596","30.56","DUALSPOT-UV-BLUE-GREEN-RED-IR","851393","736806","910482","0.199249","0.050937","0.000000","806215","917065","764675","0.121140","0.029855","0.000000","897185","915851","812551","0.091702","0.018996","0.000000","885841","938292","866300","0.067466","0.012516","0.000000","744435","860832","949410","0.052141","0.011660","0.000000","7115","5735","7115","5888","4934","5888","4979","3737","4979","4456","2713","4456","4453","3432","4453",""
"MA200-0416","27713","83","1","1.10","1.4","2023-05-25T09:47:00","120","2023/05/25","09:47:00","0","0","0.0","4","30","64","53","2043","-912","23084","11","150","149.45","115.12","34.33","30.00","46.6","17.30","89596","30.56","DUALSPOT-UV-BLUE-GREEN-RED-IR","846573","733058","906033","0.291708","0.074892","0.000000","803993","914887","762922","0.179952","0.043100","0.000000","898732","917707","814299","0.138837","0.029838","0.000000","882132","934637","862937","0.103855","0.018567","0.000000","746053","862842","951662","0.081546","0.019168","0.000000","4717","4098","4717","3787","2860","3787","3399","2622","3399","3171","1767","3171","3568","3055","3568",""
"MA200-0416","27714","83","1","1.10","1.4","2023-05-25T09:47:30","120","2023/05/25","09:47:30","-15.828966319561005","35.08740898221731","0.3","7","30","64","53","2088","-888","22988","11","150","149.57","114.56","35.01","30.08","46.2","17.27","89596","30.63","DUALSPOT-UV-BLUE-GREEN-RED-IR","847394","734144","907490","0.354478","0.091039","0.000000","804122","915321","763348","0.217938","0.051725","0.000000","899279","918498","815017","0.166535","0.031894","0.000000","883698","936490","864658","0.125700","0.020468","0.000000","746356","863348","952268","0.102184","0.023849","0.000000","3218","2709","3218","2458","1826","2458","2007","487","2007","1913","545","1913","2516","1867","2516",""
"MA200-0416","27715","83","1","1.10","1.4","2023-05-25T09:48:00","120","2023/05/25","09:48:00","-15.828940987586975","35.08740381151438","0.1","7","30","64","53","2048","-955","22876","11","150","149.87","115.25","34.62","30.17","45.9","17.24","89600","30.63","DUALSPOT-UV-BLUE-GREEN-RED-IR","847649","734624","908192","0.405604","0.104051","0.000000","804957","916461","764321","0.245374","0.056493","0.000000","899440","918843","815343","0.188970","0.035184","0.000000","884243","937163","865283","0.142169","0.021391","0.000000","746229","863276","952236","0.118444","0.028332","0.000000","2605","2207","2605","1764","1021","1764","1616","789","1616","1433","267","1433","1970","1809","1970",""
"MA200-0416","27716","83","1","1.10","1.4","2023-05-25T09:48:30","120","2023/05/25","09:48:30","-15.828941285610199","35.0874208137393","0.0","8","30","64","53","2052","-992","22808","11","150","149.43","115.41","34.02","30.24","45.7","17.25","89596","30.63","DUALSPOT-UV-BLUE-GREEN-RED-IR","842078","730072","902696","0.455540","0.116518","0.000000","801766","913026","761525","0.272661","0.061607","0.000000","900725","920323","816651","0.207609","0.036472","0.000000","885912","939080","867034","0.154751","0.020438","0.000000","747029","864314","953422","0.131923","0.031264","0.000000","2541","2152","2541","1752","1114","1752","1340","314","1340","1093","-281","1093","1631","1203","1631",""
"MA200-0416","27717","83","1","1.10","1.4","2023-05-25T09:49:00","120","2023/05/25","09:49:00","-15.828926503658295","35.08741547912359","0.0","7","30","64","52","2040","-932","23032","11","150","147.77","114.00","33.77","30.33","45.5","17.25","89596","30.69","DUALSPOT-UV-BLUE-GREEN-RED-IR","840551","728997","901460","0.503391","0.128667","0.000000","800994","912332","760965","0.296885","0.065158","0.000000","899213","918896","815424","0.225633","0.037825","0.000000","877922","930726","859351","0.167936","0.020069","0.000000","745878","863044","952025","0.143579","0.033370","0.000000","2465","2113","2465","1575","779","1575","1312","332","1312","1160","-109","1160","1428","871","1428",""
"MA200-0416","27718","83","1","1.10","1.4","2023-05-25T09:49:30","120","2023/05/25","09:49:30","-15.828994512557983","35.08745065331459","0.1","7","30","64","52","2191","-718","22845","11","150","149.50","115.26","34.24","30.40","45.3","17.22","89600","30.75","DUALSPOT-UV-BLUE-GREEN-RED-IR","844076","732280","905653","0.547544","0.140506","0.000000","803323","915130","763329","0.319600","0.069749","0.000000","897140","916950","813662","0.241977","0.039113","0.000000","882916","936166","864346","0.180035","0.018519","0.000000","743847","860766","949573","0.158504","0.037460","0.000000","2250","2030","2250","1460","994","1460","1177","312","1177","1053","-454","1053","1808","1668","1808",""
"MA200-0416","27719","83","1","1.10","1.4","2023-05-25T09:50:00","120","2023/05/25","09:50:00","-15.828963220119476","35.08743464946747","0.2","8","30","64","52","2380","-452","22364","11","150","149.90","115.39","34.50","30.49","45.0","17.22","89600","30.81","DUALSPOT-UV-BLUE-GREEN-RED-IR","843539","732189","905701","0.605485","0.154838","0.000000","803134","915177","763451","0.350839","0.074815","0.000000","897087","917094","813836","0.265765","0.041442","0.000000","882959","936370","864564","0.198274","0.020247","0.000000","743545","860551","949355","0.174619","0.040667","0.000000","2949","2439","2949","2006","1088","2006","1711","560","1711","1585","502","1585","1950","1298","1950",""
"MA200-0416","27720","83","1","1.10","1.4","2023-05-25T09:50:30","120","2023/05/25","09:50:30","-15.828947305679321","35.087426982820034","0.6","8","30","64","52","1903","-1140","23040","11","150","149.96","115.67","34.29","30.57","44.8","17.23","89600","30.88","DUALSPOT-UV-BLUE-GREEN-RED-IR","840635","729971","903047","0.669491","0.170745","0.000000","801766","913894","762405","0.388169","0.082260","0.000000","899171","919444","815926","0.292933","0.044256","0.000000","878030","931287","859883","0.216454","0.020134","0.000000","745528","862995","952086","0.191957","0.043929","0.000000","3250","2724","3250","2392","1609","2392","1949","681","1949","1576","-33","1576","2093","1328","2093",""
"MA200-0416","27721","83","1","1.10","1.4","2023-05-25T09:51:00","120","2023/05/25","09:51:00","-15.829180181026459","35.087517984211445","2.1","8","30","64","52","1608","-1308","24756","11","150","149.25","115.48","33.77","30.66","44.6","17.24","89604","30.94","DUALSPOT-UV-BLUE-GREEN-RED-IR","840199","729931","903123","0.725158","0.183210","0.000000","801778","914139","762615","0.417220","0.086997","0.000000","898743","919187","815720","0.314206","0.046504","0.000000","877688","931083","859675","0.231307","0.019669","0.000000","744453","861829","950795","0.206800","0.045336","0.000000","2831","2167","2831","1864","1039","1864","1529","552","1529","1290","-138","1290","1795","582","1795",""
"MA200-0416","27722","83","1","1.10","1.4","2023-05-25T09:51:30","120","2023/05/25","09:51:30","-15.828957498073578","35.08742447942495","0.1","9","30","64","52","2043","-988","23236","11","150","149.39","115.55","33.83","30.72","44.5","17.26","89600","31.00","DUALSPOT-UV-BLUE-GREEN-RED-IR","844324","733846","908083","0.784882","0.198785","0.000000","804730","917747","765681","0.448131","0.091451","0.000000","896519","917082","813862","0.335586","0.048130","0.000000","882052","935877","864062","0.245738","0.018382","0.000000","746761","864594","953899","0.221904","0.049675","0.000000","3035","2704","3035","1983","975","1983","1536","399","1536","1252","-381","1252","1825","1791","1825",""
"MA200-0416","27723","83","1","1.10","1.4","2023-05-25T09:52:00","120","2023/05/25","09:52:00","-15.828955829143524","35.08742915093899","0.1","9","30","64","52","2008","-1040","23256","11","150","150.36","115.59","34.77","30.80","44.5","17.30","89600","31.13","DUALSPOT-UV-BLUE-GREEN-RED-IR","846084","735685","910525","0.844090","0.213701","0.000000","796290","908314","757871","0.476485","0.096035","0.000000","897082","917808","814540","0.355083","0.049686","0.000000","884015","938077","866091","0.257939","0.017250","0.000000","747513","865612","955060","0.236646","0.052556","0.000000","3008","2519","3008","1818","977","1818","1400","371","1400","1058","-326","1058","1781","1157","1781",""
"MA200-0416","27724","83","1","1.10","1.4","2023-05-25T09:52:30","120","2023/05/25","09:52:30","-15.829003512859344","35.08747215569019","0.1","10","30","64","52","2040","-971","23076","11","150","149.99","115.30","34.69","30.89","44.3","17.33","89596","31.13","DUALSPOT-UV-BLUE-GREEN-RED-IR","839601","730357","904062","0.901355","0.227834","0.000000","802021","915071","763540","0.505858","0.102722","0.000000","898063","918987","815602","0.376481","0.051599","0.000000","878788","932662","861087","0.273025","0.017428","0.000000","744126","861752","950822","0.251327","0.055319","0.000000","2917","2393","2917","1888","1429","1888","1540","457","1540","1312","51","1312","1778","1112","1778",""
"MA200-0416","27725","83","1","1.10","1.4","2023-05-25T09:53:00","120","2023/05/25","09:53:00","-15.82899683713913","35.087457314133644","0.1","10","30","64","52","-14392","7732","16028","11","150","150.01","115.00","35.00","30.97","44.3","17.40","89592","31.25","DUALSPOT-UV-BLUE-GREEN-RED-IR","841414","732261","906531","0.956842","0.241500","0.000000","803931","917458","765558","0.533843","0.106929","0.000000","898785","919919","816446","0.397789","0.053816","0.000000","879968","934083","862403","0.288188","0.016551","0.000000","744375","862170","951278","0.263580","0.056767","0.000000","2833","2293","2833","1803","891","1803","1538","525","1538","1322","-251","1322","1488","577","1488",""
"MA200-0416","27726","83","1","1.10","1.4","2023-05-25T09:53:30","120","2023/05/25","09:53:30","-15.828940629959106","35.08741748332977","0.2","10","30","64","51","-22928","-2348","-11392","11","150","149.76","115.47","34.29","31.05","44.4","17.50","89588","31.38","DUALSPOT-UV-BLUE-GREEN-RED-IR","840733","731984","906314","1.011257","0.254472","0.000000","798561","911550","760678","0.560975","0.110750","0.000000","894563","915763","812761","0.415176","0.053757","0.000000","881198","935529","863680","0.299584","0.014549","0.000000","744736","862665","951901","0.277608","0.057621","0.000000","2767","2221","2767","1741","825","1741","1250","-14","1250","990","-585","990","1697","347","1697",""
"MA200-0416","27727","83","1","1.10","1.4","2023-05-25T09:54:00","120","2023/05/25","09:54:00","-15.828894019126892","35.08746515214443","0.4","13","30","64","52","-23391","-8033","-7483","11","150","150.29","115.67","34.62","31.13","44.3","17.56","89596","31.44","DUALSPOT-UV-BLUE-GREEN-RED-IR","838098","730088","904155","1.086235","0.272995","0.000000","802236","916047","764457","0.596427","0.117366","0.000000","898228","919737","816304","0.441551","0.056958","0.000000","878545","932830","861224","0.316989","0.014174","0.000000","747671","866172","955798","0.296947","0.064461","0.000000","3807","3142","3807","2272","1416","2272","1893","767","1893","1509","-108","1509","2335","2760","2335",""
"MA200-0416","27728","83","1","1.10","1.4","2023-05-25T09:54:30","120","2023/05/25","09:54:30","-15.828955829143524","35.08752581477165","0.1","13","30","64","52","-23544","-8696","-5704","11","150","150.03","115.47","34.55","31.22","44.0","17.53","89596","31.50","DUALSPOT-UV-BLUE-GREEN-RED-IR","841103","733033","907946","1.153482","0.292219","0.000000","799861","913513","762437","0.628423","0.125764","0.000000","898969","920659","817140","0.463533","0.061095","0.000000","880667","935206","863436","0.331097","0.016463","0.000000","743701","861691","950876","0.311178","0.067788","0.000000","3420","3267","3420","2054","1801","2054","1580","993","1580","1225","664","1225","1721","1344","1721",""
"MA200-0416","27729","83","1","1.10","1.4","2023-05-25T09:55:00","120","2023/05/25","09:55:00","-15.828971862792969","35.087503649294376","0.1","14","30","64","51","-22164","-6064","-11972","11","150","150.42","115.46","34.96","31.30","44.0","17.58","89600","31.63","DUALSPOT-UV-BLUE-GREEN-RED-IR","835677","728698","902701","1.215045","0.306335","0.000000","801397","915539","764154","0.659608","0.130289","0.000000","896074","917906","814731","0.484210","0.062346","0.000000","884589","939525","867418","0.345748","0.015359","0.000000","745511","863890","953327","0.325656","0.069669","0.000000","3131","2371","3131","2002","959","2002","1486","297","1486","1273","-316","1273","1751","751","1751",""
"MA200-0416","27730","83","1","1.10","1.4","2023-05-25T09:55:30","120","2023/05/25","09:55:30","-15.8289253115654","35.08750198036432","0.3","14","30","64","51","-22103","-2126","-14350","11","150","149.90","115.71","34.18","31.41","43.9","17.65","89600","31.69","DUALSPOT-UV-BLUE-GREEN-RED-IR","838287","731279","906054","1.277498","0.321901","0.000000","803845","918565","766691","0.688838","0.133853","0.000000","897231","919230","815905","0.504100","0.062685","0.000000","880102","934901","863135","0.358867","0.011920","0.000000","746480","865099","954693","0.340705","0.072999","0.000000","3170","2674","3170","1872","773","1872","1427","82","1427","1137","-1009","1137","1816","1360","1816",""
"MA200-0416","27731","83","1","1.10","1.4","2023-05-25T09:56:00","120","2023/05/25","09:56:00","-15.828914821147919","35.08751764893532","0.1","14","30","64","51","-22636","-11416","-3952","11","150","150.29","115.43","34.86","31.51","43.9","17.73","89600","31.81","DUALSPOT-UV-BLUE-GREEN-RED-IR","834267","728201","902382","1.351166","0.336908","0.000000","801522","916220","764773","0.727260","0.138669","0.000000","894226","916364","813371","0.530273","0.062876","0.000000","883693","938905","866780","0.376546","0.011282","0.000000","743773","862113","951386","0.359596","0.076010","0.000000","3748","2528","3748","2467","1024","2467","1882","45","1882","1536","-183","1536","2286","1206","2286",""
"MA200-0416","27732","83","1","1.10","1.4","2023-05-25T09:56:30","120","2023/05/25","09:56:30","-15.82890498638153","35.087544813752174","0.7","14","30","64","51","-21741","-11529","-7120","11","150","149.46","115.34","34.13","31.60","43.9","17.81","89600","31.88","DUALSPOT-UV-BLUE-GREEN-RED-IR","838422","732028","907228","1.394185","0.348754","0.000000","799668","914250","763134","0.749123","0.141256","0.000000","896501","918857","815570","0.545430","0.062179","0.000000","880376","935493","863648","0.386762","0.008135","0.000000","745620","864349","953912","0.371397","0.076879","0.000000","2190","2038","2190","1405","561","1405","1091","-169","1091","888","-925","888","1429","355","1429",""
"MA200-0416","27733","83","1","1.10","1.4","2023-05-25T09:57:00","120","2023/05/25","09:57:00","-15.829022765159607","35.08765998482704","0.4","14","30","64","51","-23192","-10404","-5104","11","150","149.90","115.43","34.46","31.72","43.8","17.91","89592","32.00","DUALSPOT-UV-BLUE-GREEN-RED-IR","840666","734429","910348","1.459963","0.365274","0.000000","795583","909876","759555","0.785255","0.146627","0.000000","897005","919624","816268","0.573188","0.064933","0.000000","873935","928862","857506","0.407242","0.008237","0.000000","746081","865039","954689","0.392200","0.081549","0.000000","3346","2815","3346","2320","1155","2320","1996","663","1996","1780","29","1780","2517","1893","2517",""
"MA200-0416","27734","83","1","1.10","1.4","2023-05-25T09:57:30","120","2023/05/25","09:57:30","-15.829084992408752","35.08772931993008","0.1","14","30","64","51","-22048","-11840","-7560","11","150","149.83","115.24","34.59","31.83","43.6","17.93","89584","32.13","DUALSPOT-UV-BLUE-GREEN-RED-IR","838535","733110","908968","1.567923","0.392629","0.000000","799645","914901","763806","0.835258","0.156873","0.000000","896893","919770","816446","0.606411","0.067609","0.000000","881392","936980","865004","0.429230","0.008005","0.000000","745563","864565","954214","0.413206","0.086180","0.000000","5502","4644","5502","3216","2195","3216","2393","642","2393","1914","-67","1914","2546","1870","2546",""
"MA200-0416","27735","83","1","1.10","1.4","2023-05-25T09:58:00","120","2023/05/25","09:58:00","-15.829072117805481","35.08770714700222","0.1","14","30","64","51","-21592","-12268","-8015","11","150","149.70","115.27","34.42","31.95","43.3","17.93","89588","32.25","DUALSPOT-UV-BLUE-GREEN-RED-IR","834373","729749","904952","1.623551","0.407751","0.000000","796996","912052","761462","0.863313","0.161855","0.000000","897984","921081","817586","0.626356","0.067991","0.000000","876088","931472","859901","0.442850","0.006002","0.000000","746344","865571","955351","0.429607","0.088654","0.000000","2834","2580","2834","1804","1072","1804","1436","92","1436","1185","-583","1185","1987","1003","1987",""
"MA200-0416","27736","83","1","1.10","1.4","2023-05-25T09:58:30","120","2023/05/25","09:58:30","-15.829101920127869","35.08774448186159","0.6","14","30","64","51","-21956","-14164","-3655","11","150","149.39","115.59","33.79","32.05","43.1","17.93","89580","32.38","DUALSPOT-UV-BLUE-GREEN-RED-IR","837719","733070","909172","1.691096","0.424028","0.000000","799301","914943","763902","0.895577","0.164842","0.000000","895344","918562","815369","0.648457","0.068897","0.000000","880610","936445","864457","0.456863","0.003576","0.000000","743753","862709","952218","0.445634","0.091865","0.000000","3432","2829","3432","2069","655","2069","1587","222","1587","1216","-720","1216","1936","1327","1936",""
"MA200-0416","27737","83","1","1.10","1.4","2023-05-25T09:59:00","120","2023/05/25","09:59:00","-15.829133689403534","35.087899811565876","0.6","14","30","64","51","-23688","-10928","-4460","11","150","149.70","115.24","34.46","32.17","42.8","17.93","89564","32.44","DUALSPOT-UV-BLUE-GREEN-RED-IR","833605","729744","905193","1.743360","0.436830","0.000000","796725","912214","761661","0.920206","0.167692","0.000000","892773","916095","813157","0.666982","0.068963","0.000000","875864","931566","859927","0.469344","-0.000309","0.000000","745274","864530","954252","0.459842","0.093391","0.000000","2663","2181","2663","1584","612","1584","1334","15","1334","1086","-1131","1086","1722","618","1722",""
"MA200-0416","27738","83","1","1.10","1.4","2023-05-25T09:59:30","120","2023/05/25","09:59:30","-15.828978538513184","35.088033989071846","1.0","14","30","64","51","-22444","-12136","-6016","11","150","149.81","115.80","34.00","32.28","42.6","17.94","89552","32.56","DUALSPOT-UV-BLUE-GREEN-RED-IR","836728","733066","909568","1.850046","0.465312","0.000000","799046","915255","764246","0.969290","0.176990","0.000000","894629","918258","815106","0.697261","0.070786","0.000000","879223","935334","863386","0.490361","-0.001514","0.000000","746717","866390","956364","0.481668","0.097363","0.000000","5411","4919","5411","3142","2027","3142","2170","445","2170","1820","-355","1820","2632","1631","2632",""
"MA200-0416","27739","83","1","1.10","1.4","2023-05-25T10:00:00","120","2023/05/25","10:00:00","-15.828811347484589","35.08819581568241","1.1","15","30","64","51","-21712","-11780","-4496","11","150","149.76","115.51","34.25","32.40","42.3","17.96","89544","32.63","DUALSPOT-UV-BLUE-GREEN-RED-IR","831009","728447","904013","1.921959","0.485046","0.000000","800704","917402","766093","1.004058","0.182979","0.000000","895771","919686","816377","0.723528","0.071787","0.000000","881895","938344","866161","0.506371","-0.004148","0.000000","743212","862466","952030","0.500299","0.100799","0.000000","3656","3384","3656","2231","1296","2231","1887","242","1887","1390","-771","1390","2253","1401","2253",""
"MA200-0416","27740","83","1","1.10","1.4","2023-05-25T10:00:30","120","2023/05/25","10:00:30","-15.828621983528137","35.08834598958492","1.1","15","30","64","51","-21808","-13168","-6808","11","150","150.08","116.00","34.07","32.50","42.1","17.99","89548","32.69","DUALSPOT-UV-BLUE-GREEN-RED-IR","832931","730525","906750","1.995040","0.502578","0.000000","796729","913162","762606","1.042330","0.189018","0.000000","897230","921408","817932","0.750744","0.074720","0.000000","876380","932666","860905","0.525081","-0.004673","0.000000","744145","863706","953422","0.518260","0.103759","0.000000","3700","3022","3700","2445","1313","2445","1947","714","1947","1618","-154","1618","2163","1213","2163",""
"MA200-0416","27741","83","1","1.10","1.4","2023-05-25T10:01:00","120","2023/05/25","10:01:00","-15.828429996967316","35.088564306497574","1.0","15","30","64","51","-21054","-12495","-8233","11","150","149.46","115.13","34.34","32.61","41.7","17.93","89552","32.81","DUALSPOT-UV-BLUE-GREEN-RED-IR","834102","732270","909287","2.106501","0.533803","0.000000","797318","914540","763941","1.123189","0.210571","0.000000","892269","916899","814092","0.817155","0.089711","0.000000","878131","935066","863238","0.576829","0.004267","0.000000","744401","864364","954282","0.561870","0.113866","0.000000","5686","5341","5686","5206","4653","5206","4789","3624","4789","4509","2612","4509","5291","4112","5291",""
"MA200-0416","27742","83","1","1.10","1.4","2023-05-25T10:01:30","120","2023/05/25","10:01:30","-15.82822734117508","35.08876197785139","0.7","15","30","64","51","-21060","-13076","-6352","11","150","150.24","115.45","34.79","32.71","41.4","17.87","89552","32.88","DUALSPOT-UV-BLUE-GREEN-RED-IR","826157","726437","902561","2.315817","0.592580","0.000000","797322","915663","765295","1.289761","0.255811","0.000000","892240","917897","815299","0.959474","0.126129","0.000000","878694","936518","864843","0.694531","0.032681","0.000000","744604","865151","955381","0.648160","0.137901","0.000000","10649","9923","10649","10696","9640","10696","10234","8690","10234","10228","8193","10228","10441","9650","10441",""
"MA200-0416","27743","83","1","1.10","1.4","2023-05-25T10:02:00","120","2023/05/25","10:02:00","-15.828146874904633","35.08885999023914","0.1","15","30","64","51","-21668","-11820","-8175","11","150","149.42","115.37","34.05","32.81","41.0","17.81","89556","32.88","DUALSPOT-UV-BLUE-GREEN-RED-IR","825108","726852","903719","2.592255","0.667558","0.000000","790802","909573","760596","1.515698","0.315212","0.000000","890519","917349","815176","1.157272","0.176620","0.000000","878338","937179","865760","0.856304","0.072169","0.000000","743185","864213","954617","0.768995","0.168116","0.000000","14073","12934","14073","14518","12933","14518","14234","12312","14234","14068","11636","14068","14631","12397","14631",""
"MA200-0416","27744","83","1","1.10","1.4","2023-05-25T10:02:30","120","2023/05/25","10:02:30","-15.828122019767761","35.08892580866814","0.6","15","30","64","50","-21312","-12072","-7392","11","150","149.46","114.88","34.59","32.90","40.5","17.70","89572","32.94","DUALSPOT-UV-BLUE-GREEN-RED-IR","823278","725682","902482","2.687580","0.695858","0.000000","794503","914220","764606","1.582581","0.333488","0.000000","889167","916314","814359","1.213676","0.189643","0.000000","869434","927971","857305","0.900507","0.080693","0.000000","742367","863473","953910","0.807912","0.179429","0.000000","4873","4806","4873","4316","3917","4316","4076","3126","4076","3860","2472","3860","4732","4569","4732",""
"MA200-0416","27745","83","1","1.10","1.4","2023-05-25T10:03:00","120","2023/05/25","10:03:00","-15.827991366386414","35.08904181420803","1.0","15","30","64","51","-23484","-11932","348","11","150","150.23","115.75","34.47","32.98","40.1","17.61","89552","33.00","DUALSPOT-UV-BLUE-GREEN-RED-IR","825558","728058","905659","2.762609","0.715944","0.000000","790438","909864","761076","1.635671","0.345724","0.000000","890345","917834","815773","1.256895","0.199258","0.000000","872398","931402","860493","0.934004","0.084698","0.000000","743356","864806","955436","0.837490","0.186170","0.000000","3807","3422","3807","3400","2631","3400","3099","2315","3099","2903","1165","2903","3569","2731","3569",""
"MA200-0416","27746","83","1","1.10","1.4","2023-05-25T10:03:30","120","2023/05/25","10:03:30","-15.827931821346283","35.08929415047169","0.8","15","30","64","50","-21216","-12468","-4156","11","150","149.83","115.00","34.83","33.05","39.7","17.51","89528","33.00","DUALSPOT-UV-BLUE-GREEN-RED-IR","823010","726122","903346","2.817126","0.730243","0.000000","789059","908519","760001","1.669353","0.355201","0.000000","889065","916684","814826","1.283973","0.204974","0.000000","870744","929784","859044","0.952863","0.087451","0.000000","742158","863524","954091","0.857854","0.192993","0.000000","2784","2411","2784","2171","2017","2171","1954","1362","1954","1645","793","1645","2473","2736","2473",""
"MA200-0416","27747","83","1","1.10","1.4","2023-05-25T10:04:00","120","2023/05/25","10:04:00","-15.827701568603516","35.08931715041399","0.9","15","30","64","51","-22025","-10925","733","11","150","149.90","115.75","34.14","33.13","39.3","17.42","89504","33.00","DUALSPOT-UV-BLUE-GREEN-RED-IR","825687","728759","906789","2.872796","0.747890","0.000000","790634","910565","761798","1.704281","0.365018","0.000000","890303","918164","816185","1.311630","0.211459","0.000000","872440","931757","860898","0.974231","0.091523","0.000000","742881","864508","955244","0.878852","0.200252","0.000000","2824","3035","2824","2236","2131","2236","1983","1576","1983","1852","1196","1852","2534","2970","2534",""
"MA200-0416","27748","83","1","1.10","1.4","2023-05-25T10:04:30","120","2023/05/25","10:04:30","-15.827485024929047","35.08943781256676","1.0","14","30","64","49","-22120","-12224","2035","11","150","149.83","115.16","34.67","33.19","39.0","17.36","89452","33.00","DUALSPOT-UV-BLUE-GREEN-RED-IR","821430","726453","904621","3.097078","0.810726","-0.033590","787883","908863","760850","1.883465","0.415592","0.000000","886439","915446","814229","1.464999","0.254678","0.000000","868094","928191","857991","1.099526","0.125349","0.000000","740069","861916","952697","0.971612","0.226717","0.000000","11439","10643","10361","11535","10812","11535","11057","10348","11057","10916","9787","10916","11252","10661","11252",""
"MA200-0416","27749","83","1","1.10","1.4","2023-05-25T10:05:00","120","2023/05/25","10:05:00","-15.827486157417297","35.0897651463747","0.8","14","30","64","50","-21344","-11752","3584","11","150","149.49","115.26","34.23","33.25","38.7","17.29","89412","33.00","DUALSPOT-UV-BLUE-GREEN-RED-IR","813692","725671","906693","3.985253","1.063358","-0.015341","780955","907417","761845","2.645242","0.631349","0.000000","880491","915093","815942","2.127797","0.439148","0.000000","864880","929671","861092","1.647239","0.276768","0.000000","737668","862420","954618","1.364770","0.333707","0.000000","45261","43350","42654","48997","46727","48997","47743","44742","47743","47676","44381","47676","47651","43664","47651",""
"MA200-0416","27750","83","1","1.10","1.4","2023-05-25T10:05:30","120","2023/05/25","10:05:30","-15.82750391960144","35.08993647247553","0.9","14","30","64","50","-22023","-13292","-7207","11","150","149.87","115.09","34.78","33.30","38.5","17.26","89400","33.00","DUALSPOT-UV-BLUE-GREEN-RED-IR","798769","721655","906676","6.067592","1.684234","-0.003128","768798","903303","762016","4.443473","1.169895","-0.002807","868515","911750","816413","3.733349","0.916141","-0.006176","854904","926810","861541","3.000717","0.673728","-0.013216","731682","860773","955123","2.329206","0.606114","0.000000","106276","104846","104296","115834","114782","114407","115825","113855","113214","117991","114501","113490","117067","109406","117067",""
"MA200-0416","27751","83","1","1.10","1.4","2023-05-25T10:06:00","120","2023/05/25","10:06:00","-15.827520906925201","35.09012131392956","0.8","14","30","64","50","-21768","-11244","380","11","150","150.04","115.59","34.45","33.35","38.2","17.19","89388","33.00","DUALSPOT-UV-BLUE-GREEN-RED-IR","797799","720870","905753","6.201932","1.722498","-0.010536","768000","902441","761262","4.545546","1.198368","-0.020950","867316","910552","815320","3.827620","0.941043","-0.046358","852314","924061","858954","3.082291","0.693452","-0.104431","729937","858728","952874","2.393064","0.623573","0.000000","6826","6524","6407","6546","6127","5977","6771","6001","5750","7080","5744","5356","7717","7079","7717",""
"MA200-0416","27752","83","1","1.10","1.4","2023-05-25T10:06:30","120","2023/05/25","10:06:30","-15.827370703220367","35.09004832059145","0.8","14","30","64","50","-22232","-13004","-3884","11","150","149.70","115.43","34.26","33.40","38.0","17.14","0","0.00","DUALSPOT-UV-BLUE-GREEN-RED-IR","799577","722676","908084","6.231642","1.730466","-0.024702","769427","904190","762770","4.558891","1.200323","-0.482506","867976","911339","816050","3.836823","0.940823","0.864345","854931","926969","861631","3.087181","0.690960","0.453489","730884","859932","954230","2.403707","0.626046","0.000000","1511","1366","1310","857","422","267","661","-53","-285","424","-729","-1062","1287","1008","1287",""
"MA200-0416","27753","83","1","1.10","1.4","2023-05-25T10:07:00","120","2023/05/25","10:07:00","-15.827251195907593","35.090066477656364","0.7","14","30","64","50","-21979","-12100","337","11","150","149.50","115.21","34.29","33.45","38.0","17.18","0","0.00","DUALSPOT-UV-BLUE-GREEN-RED-IR","767528","713535","908387","8.477545","2.429899","0.007178","742086","894237","763161","6.558020","1.821268","0.008657","840797","902455","816186","5.561865","1.469624","0.007004","832617","919696","861912","4.517511","1.122098","0.003658","716903","855013","954240","3.441539","0.927655","-0.009740","114504","119797","121924","128641","134233","136384","124315","128023","129354","124561","126134","126654","125845","122863","121763",""
"MA200-0416","27754","83","1","1.10","1.4","2023-05-25T10:07:30","120","2023/05/25","10:07:30","-15.827184736728668","35.08993147313595","0.7","14","30","64","50","-21608","-13620","-7632","11","150","149.46","115.00","34.46","33.49","38.1","17.26","89392","33.06","DUALSPOT-UV-BLUE-GREEN-RED-IR","723989","700710","910665","16.176744","5.004057","0.008874","703959","879071","764012","13.368777","4.090864","0.010401","801674","889340","817658","11.759976","3.505182","0.010230","799743","909325","864087","9.852983","2.834529","0.009209","696143","848439","956055","7.320837","2.115819","0.004123","393227","438748","459137","439036","488243","509940","447457","490409","508647","465465","498551","511913","471225","481653","485892",""
"MA200-0416","27755","83","1","1.10","1.4","2023-05-25T10:08:00","120","2023/05/25","10:08:00","-15.827006042003632","35.08991830796003","0.4","14","30","64","50","-21007","-13284","-8403","11","150","150.22","115.10","35.12","33.51","38.2","17.33","89376","33.13","DUALSPOT-UV-BLUE-GREEN-RED-IR","712270","692623","902438","17.158062","5.348886","0.010515","699834","877647","764442","14.238474","4.391199","0.011231","792209","882282","812770","12.560588","3.776067","0.010715","795550","907690","864010","10.551572","3.064173","0.009302","692720","846602","955105","7.844890","2.275861","0.000139","50078","57666","61103","56017","63391","66680","57751","64032","66732","60895","65598","67522","63605","63654","63675",""
"MA200-0416","27756","83","1","1.10","1.4","2023-05-25T10:08:30","120","2023/05/25","10:08:30","-15.826765298843384","35.08978180587292","0.8","14","30","64","50","-22260","-13876","-5408","11","150","149.61","114.99","34.61","33.57","38.2","17.38","89368","33.19","DUALSPOT-UV-BLUE-GREEN-RED-IR","713713","694269","904750","17.227384","5.372885","0.010391","701032","879310","765962","14.282946","4.406399","0.011461","793309","883724","814145","12.601123","3.787356","-0.009508","796730","909202","865492","10.586605","3.073006","-0.028019","693542","847739","956432","7.878025","2.284670","-0.025018","3540","4072","4312","2867","3255","3428","2926","2707","2613","3056","2560","2357","4025","3554","3362",""
"MA200-0416","27757","83","1","1.10","1.4","2023-05-25T10:09:00","120","2023/05/25","10:09:00","-15.826556146144867","35.0896333232522","0.9","14","30","64","49","-22920","-12672","-4184","11","150","149.39","115.79","33.59","33.61","38.1","17.37","89372","33.25","DUALSPOT-UV-BLUE-GREEN-RED-IR","713150","694546","905672","17.380908","5.424640","0.010966","695865","873500","761137","14.375854","4.434204","0.003038","792891","883770","814397","12.674786","3.807807","-0.005179","797477","910513","866890","10.644380","3.086913","-0.029661","689387","842928","951139","7.922302","2.295214","-0.042569","7787","9049","9621","5948","6136","6219","5281","5054","4956","5005","4152","3804","5341","4384","3994",""
"MA200-0416","27758","83","1","1.10","1.4","2023-05-25T10:09:30","120","2023/05/25","10:09:30","-15.826340854167938","35.08950614929199","1.1","14","30","64","49","-22932","-13044","-1300","11","150","150.13","115.37","34.76","33.66","38.1","17.40","89348","33.31","DUALSPOT-UV-BLUE-GREEN-RED-IR","712069","694040","905392","17.525718","5.475481","0.011060","694841","872634","760563","14.460696","4.460275","0.001938","791965","883159","813933","12.742157","3.825033","-0.021649","789460","901694","858543","10.695716","3.098702","-0.047032","688674","842293","950484","7.960666","2.304564","-0.046209","7372","8591","9145","5451","5560","5608","4848","4114","3799","4464","3403","2970","4645","3757","3396",""
"MA200-0416","27759","83","1","1.10","1.4","2023-05-25T10:10:00","120","2023/05/25","10:10:00","-15.826065003871918","35.089313477277756","1.5","14","30","64","49","-22372","-13623","-6220","11","150","150.36","115.35","35.00","33.70","38.2","17.50","89348","33.31","DUALSPOT-UV-BLUE-GREEN-RED-IR","712409","694768","906596","17.605198","5.499183","-0.001460","695418","873699","761581","14.509117","4.470337","-0.057689","792198","883669","814463","12.780241","3.832591","-0.076462","790372","902971","859789","10.724032","3.101640","-1.163779","689060","842934","951271","7.984958","2.309689","-0.094001","4046","3977","3945","3111","2130","1693","2741","1792","1386","2462","842","182","2941","2045","1680",""
"MA200-0416","27760","83","1","1.10","1.4","2023-05-25T10:10:30","120","2023/05/25","10:10:30","-15.825927555561066","35.08905132114887","0.5","14","30","64","49","-21116","-13008","-8004","11","150","149.73","115.21","34.52","33.74","38.4","17.59","89376","33.38","DUALSPOT-UV-BLUE-GREEN-RED-IR","708225","691082","902007","17.682782","5.524336","0.006029","697239","876312","763941","14.555105","4.482704","-0.011928","794620","886661","817331","12.816869","3.840547","-0.050433","793747","907003","863714","10.752267","3.105891","-0.216717","691034","845504","954207","8.006237","2.314115","-0.094249","3955","4279","4427","2959","2656","2521","2639","1913","1603","2458","1235","738","2580","1791","1470",""
"MA200-0416","27761","83","1","1.10","1.4","2023-05-25T10:11:00","120","2023/05/25","10:11:00","-15.825746834278107","35.088763147592545","0.7","14","30","64","49","-21120","-13604","-6192","11","150","149.58","115.42","34.16","33.79","38.3","17.61","89408","33.44","DUALSPOT-UV-BLUE-GREEN-RED-IR","709121","692226","903674","17.747348","5.546295","0.010050","697532","876881","764553","14.592190","4.494238","0.004699","794159","886363","817091","12.847475","3.848302","-0.020103","794356","907892","864578","10.775281","3.111529","-0.029623","690769","845327","954055","8.027187","2.318582","-0.080666","3285","3775","3998","2381","2503","2557","2201","1884","1749","2000","1656","1516","2535","1826","1539",""
"MA200-0416","27762","83","1","1.10","1.4","2023-05-25T10:11:30","120","2023/05/25","10:11:30","-15.82560908794403","35.0886053070426","0.8","14","30","64","49","-20564","-12708","-4336","11","150","150.01","115.22","34.79","33.83","38.3","17.65","89408","33.44","DUALSPOT-UV-BLUE-GREEN-RED-IR","709885","693553","905769","17.866480","5.585085","0.005728","693765","872597","760952","14.662270","4.512262","-0.018575","790788","882948","814045","12.901943","3.861165","-0.034983","794961","908911","865585","10.816209","3.118503","-0.145943","691408","846310","955233","8.059032","2.324635","-0.134791","6073","6549","6765","4509","3840","3543","3924","3069","2704","3563","2011","1382","3861","2430","1850",""
"MA200-0416","27763","83","1","1.10","1.4","2023-05-25T10:12:00","120","2023/05/25","10:12:00","-15.825417816638947","35.0884714871645","0.9","14","30","64","49","-21560","-13500","-4200","11","150","149.58","115.21","34.38","33.88","38.4","17.72","89416","33.50","DUALSPOT-UV-BLUE-GREEN-RED-IR","710045","694233","906974","17.982872","5.624258","0.008726","694070","873397","761749","14.725949","4.529411","-0.011136","790531","882992","814189","12.954673","3.874296","-0.023849","788900","902266","859341","10.855843","3.126401","-0.080584","687584","841853","950220","8.086952","2.330084","-0.116882","5934","6693","7038","4097","3697","3520","3799","3171","2903","3451","2304","1841","3385","2214","1740",""
"MA200-0416","27764","83","1","1.10","1.4","2023-05-25T10:12:30","120","2023/05/25","10:12:30","-15.825362384319305","35.088685147464275","1.2","14","30","64","49","-21960","-12864","1344","11","150","149.83","115.51","34.32","33.92","38.4","17.76","89388","33.56","DUALSPOT-UV-BLUE-GREEN-RED-IR","711048","695493","908823","18.042698","5.645130","0.011218","694914","874678","762972","14.764092","4.541672","0.007171","791175","883935","815126","12.987753","3.883176","-0.012267","790486","904259","861265","10.880348","3.129810","-0.270487","688096","842557","951076","8.108009","2.335076","-0.048874","3042","3572","3814","2447","2648","2737","2377","2148","2050","2128","996","539","2546","2031","1823",""
"MA200-0416","27765","83","1","1.10","1.4","2023-05-25T10:13:00","120","2023/05/25","10:13:00","-15.825329422950745","35.088954992592335","0.5","14","30","64","48","-22300","-11888","-1428","11","150","149.63","114.80","34.83","33.96","38.2","17.73","89356","33.56","DUALSPOT-UV-BLUE-GREEN-RED-IR","709184","693841","906833","18.090042","5.661329","0.008658","693529","873097","761648","14.794460","4.550367","-0.005975","790166","882932","814253","13.009727","3.888279","-0.038703","789518","903283","860363","10.899001","3.133684","-0.072918","687120","841486","949888","8.124191","2.338564","-0.084424","2422","2731","2872","1961","1850","1801","1589","1216","1056","1630","1115","908","1969","1398","1168",""
"MA200-0416","27766","83","1","1.10","1.4","2023-05-25T10:13:30","120","2023/05/25","10:13:30","-15.825043439865112","35.08895332366228","1.2","14","30","64","49","-20160","-12304","-1364","11","150","150.43","115.31","35.11","34.01","38.1","17.71","89340","33.63","DUALSPOT-UV-BLUE-GREEN-RED-IR","706356","691255","903537","18.131128","5.675258","0.007819","696366","876843","764968","14.818658","4.556560","-0.020177","791589","884657","815871","13.030489","3.892296","-0.083018","792316","906563","863518","10.914175","3.135365","-0.761559","688643","843442","952121","8.139683","2.343004","-0.011018","2092","2330","2438","1555","1307","1197","1494","950","718","1320","480","141","1876","1766","1722",""
"MA200-0416","27767","83","1","1.10","1.4","2023-05-25T10:14:00","120","2023/05/25","10:14:00","-15.82474285364151","35.0889778137207","1.2","14","30","64","49","-21200","-12566","1845","11","150","150.42","114.75","35.67","34.05","37.9","17.67","89316","33.69","DUALSPOT-UV-BLUE-GREEN-RED-IR","706468","691597","904159","18.171670","5.689346","0.008063","696381","877100","765258","14.846304","4.563511","-0.025707","792436","885794","816982","13.053344","3.896862","-0.079582","794134","908845","865732","10.931221","3.137839","-0.271198","689339","844416","953268","8.154205","2.344820","-0.639228","2075","2319","2431","1786","1444","1292","1653","1062","811","1490","695","375","1767","711","284",""
"MA200-0416","27768","83","1","1.10","1.4","2023-05-25T10:14:30","120","2023/05/25","10:14:30","-15.824377834796906","35.08896864205599","1.1","14","30","64","49","-22476","-12368","-3348","11","150","149.96","114.76","35.20","34.10","37.7","17.63","89296","33.69","DUALSPOT-UV-BLUE-GREEN-RED-IR","706718","692204","905195","18.253192","5.717603","0.008713","691986","871854","760788","14.897729","4.579092","-0.001217","788306","881453","813066","13.096182","3.908861","-0.010799","787158","901064","858355","10.966287","3.144330","-0.114213","689185","844417","953332","8.182476","2.351293","-0.067503","4172","4714","4961","3322","3281","3262","3099","2829","2715","3065","1849","1360","3441","2568","2216",""
"MA200-0416","27769","83","1","1.10","1.4","2023-05-25T10:15:00","120","2023/05/25","10:15:00","-15.824132144451141","35.08891896903515","0.7","14","30","64","49","-21880","-13308","-5396","11","150","149.83","115.04","34.79","34.14","37.6","17.63","89304","33.69","DUALSPOT-UV-BLUE-GREEN-RED-IR","707273","693031","906474","18.319150","5.740209","0.008868","692044","872184","761172","14.943045","4.592520","-0.002015","789406","882923","814481","13.133491","3.917723","-0.033551","788286","902587","859860","10.996735","3.151875","-0.030828","690215","845845","954986","8.207565","2.356880","-0.071578","3367","3816","4020","2920","2861","2834","2692","2114","1869","2655","2175","1983","3046","2243","1919",""
"MA200-0416","27770","83","1","1.10","1.4","2023-05-25T10:15:30","120","2023/05/25","10:15:30","-15.823803663253784","35.08888831734657","0.9","14","30","64","49","-22460","-13051","-4880","11","150","150.17","115.14","35.03","34.19","37.5","17.62","89308","33.75","DUALSPOT-UV-BLUE-GREEN-RED-IR","706676","692645","906111","18.363096","5.753978","0.002266","691753","871981","761046","14.973007","4.600775","-0.010542","787820","881318","813022","13.158978","3.923219","-0.053898","786718","900940","858331","11.017373","3.155875","-0.093994","688393","843695","952599","8.223510","2.361348","-0.015158","2241","2308","2339","1929","1746","1666","1837","1302","1075","1798","1145","883","1934","1781","1720",""
"MA200-0416","27771","83","1","1.10","1.4","2023-05-25T10:16:00","120","2023/05/25","10:16:00","-15.823576986789703","35.08868748694658","0.9","14","30","64","49","-21568","-12964","-8396","11","150","149.73","115.07","34.66","34.22","37.5","17.66","89308","33.75","DUALSPOT-UV-BLUE-GREEN-RED-IR","709184","695358","909805","18.413270","5.770584","0.006820","693296","874184","763039","15.003978","4.607946","-0.033429","789915","883878","815446","13.183845","3.928738","-0.045513","790043","904898","862127","11.036377","3.158402","-0.325988","690762","846734","956041","8.241081","2.365452","-0.055789","2561","2813","2928","1995","1533","1328","1794","1321","1121","1656","731","360","2133","1654","1461",""
"MA200-0416","27772","83","1","1.10","1.4","2023-05-25T10:16:30","120","2023/05/25","10:16:30","-15.823669493198395","35.08837531507015","1.2","14","30","64","49","-21712","-13508","-8368","11","150","149.95","114.82","35.12","34.26","37.6","17.76","89340","33.81","DUALSPOT-UV-BLUE-GREEN-RED-IR","703056","689616","902438","18.473094","5.789552","0.002734","693851","875097","763918","15.040822","4.616182","-0.042211","789767","883916","815520","13.214921","3.934478","-0.097932","790804","905944","863160","11.059052","3.161287","-0.406028","686615","841737","950476","8.260189","2.368764","-0.187608","3060","3172","3223","2378","1738","1455","2247","1356","979","1981","824","360","2324","1316","911",""
"MA200-0416","27773","83","1","1.10","1.4","2023-05-25T10:17:00","120","2023/05/25","10:17:00","-15.823730766773224","35.088147312402725","0.8","14","30","64","49","-21084","-13836","-4972","11","150","150.43","114.84","35.59","34.30","37.8","17.86","89360","33.88","DUALSPOT-UV-BLUE-GREEN-RED-IR","704002","690782","904137","18.524808","5.806057","0.002249","694896","876629","765294","15.073426","4.625202","-0.012162","790383","884799","816418","13.240491","3.940391","-0.042732","791216","906611","863821","11.079077","3.163391","-1.115562","686920","842238","951071","8.274479","2.371376","-0.163442","2645","2723","2760","2104","1878","1778","1848","1379","1180","1749","593","130","1738","1025","738",""
"MA200-0416","27774","83","1","1.10","1.4","2023-05-25T10:17:30","120","2023/05/25","10:17:30","-15.823823511600494","35.08786614984274","1.1","14","30","64","49","-21708","-12516","-9152","11","150","150.24","114.69","35.55","34.34","37.7","17.87","89372","33.94","DUALSPOT-UV-BLUE-GREEN-RED-IR","703800","691483","905666","18.678474","5.859499","0.008077","689652","870915","760676","15.191362","4.663212","0.003566","787233","882030","814170","13.338299","3.969395","-0.004934","786229","901564","859254","11.159651","3.185296","-0.018629","687856","843924","953160","8.337162","2.387449","-0.038322","7869","8829","9268","7623","7925","8059","7080","6773","6643","7048","6181","5835","7635","6315","5786",""
"MA200-0416","27775","83","1","1.10","1.4","2023-05-25T10:18:00","120","2023/05/25","10:18:00","-15.82385367155075","35.08772898465395","0.5","14","30","64","49","-21168","-13687","-9196","11","150","149.76","114.80","34.97","34.39","37.9","17.98","89380","34.06","DUALSPOT-UV-BLUE-GREEN-RED-IR","705689","693900","909204","18.834424","5.911758","0.006764","690731","872821","762536","15.303674","4.696577","-0.002408","787638","882949","815174","13.437215","3.996402","-0.012873","787560","903521","861234","11.240355","3.205574","-0.028864","688171","844610","954054","8.400173","2.402866","-0.045275","7979","8778","9144","7252","7074","6994","7153","6412","6098","7053","5818","5325","7667","6159","5555",""
"MA200-0416","27776","83","1","1.10","1.4","2023-05-25T10:18:30","120","2023/05/25","10:18:30","-15.82371699810028","35.08762665838003","0.9","14","30","64","48","-22384","-13187","-5632","11","150","150.01","115.34","34.67","34.44","38.1","18.09","89372","34.13","DUALSPOT-UV-BLUE-GREEN-RED-IR","700174","688960","903049","18.938548","5.948641","0.010897","691388","874086","763840","15.378744","4.719854","0.002822","788310","884165","816456","13.502164","4.015350","-0.003247","789245","905802","863517","11.294205","3.217965","-0.043204","689244","846153","955912","8.440189","2.413773","-0.017804","5302","6248","6681","4825","4976","5044","4675","4537","4478","4684","3585","3148","4846","4394","4213",""
"MA200-0416","27777","83","1","1.10","1.4","2023-05-25T10:19:00","120","2023/05/25","10:19:00","-15.823502838611603","35.08753897994757","0.7","14","30","64","48","-22516","-13140","-5112","11","150","149.76","114.80","34.97","34.49","38.1","18.15","89356","34.13","DUALSPOT-UV-BLUE-GREEN-RED-IR","701413","690476","905274","19.016100","5.977018","0.011936","687707","869735","760137","15.435240","4.737365","0.001607","788741","884915","817231","13.549147","4.028475","-0.009864","789875","906723","864492","11.332775","3.227758","-0.026755","685235","841417","950608","8.470695","2.421287","-0.043204","3967","4766","5133","3648","3712","3741","3397","3116","2997","3370","2809","2586","3712","3001","2717",""
"MA200-0416","27778","83","1","1.10","1.4","2023-05-25T10:19:30","120","2023/05/25","10:19:30","-15.823161363601685","35.0874499976635","1.3","14","30","64","48","-21556","-13608","-6632","11","150","149.45","114.80","34.65","34.54","38.1","18.19","89348","34.19","DUALSPOT-UV-BLUE-GREEN-RED-IR","701499","691131","906478","19.130002","6.010174","-0.002859","687859","870430","760928","15.511861","4.758627","-0.008484","788151","884676","817172","13.613130","4.045517","-0.014755","790385","907708","865514","11.382914","3.238803","-0.053297","684971","841379","950657","8.512375","2.430474","-0.071239","5827","5620","5525","4947","4549","4372","4627","4083","3853","4381","3198","2727","5071","3703","3157",""
"MA200-0416","27779","83","1","1.10","1.4","2023-05-25T10:20:00","120","2023/05/25","10:20:00","-15.82284528017044","35.087396651506424","1.0","14","30","64","48","-21888","-13244","-7511","11","150","150.08","114.96","35.12","34.59","38.0","18.19","89348","34.25","DUALSPOT-UV-BLUE-GREEN-RED-IR","701910","692004","907877","19.230222","6.042635","0.004209","688127","871181","761722","15.581441","4.779154","-0.003324","785244","881741","814581","13.670626","4.060811","-0.016459","791140","908914","866734","11.428374","3.248840","-0.055299","685802","842587","952097","8.548565","2.440818","-0.011552","5120","5429","5571","4486","4333","4265","4152","3616","3389","3967","2867","2431","4397","4115","4002",""
"MA200-0416","27780","83","1","1.10","1.4","2023-05-25T10:20:30","120","2023/05/25","10:20:30","-15.822574019432068","35.0873963162303","1.2","14","30","64","48","-21591","-13241","-6250","11","150","150.43","114.96","35.47","34.64","37.9","18.19","89344","34.25","DUALSPOT-UV-BLUE-GREEN-RED-IR","702100","692491","908710","19.299746","6.065218","0.003705","688386","871798","762338","15.623990","4.791248","-0.008206","785334","882057","814910","13.703560","4.068708","-0.033856","784673","901633","859856","11.454679","3.254270","-0.075037","685425","842284","951782","8.569649","2.442974","-1.687066","3552","3739","3825","2743","2527","2432","2378","1848","1624","2295","1536","1234","2562","848","165",""
"MA200-0416","27781","83","1","1.10","1.4","2023-05-25T10:21:00","120","2023/05/25","10:21:00","-15.82227247953415","35.087348982691765","1.3","14","30","64","48","-20792","-13095","-5240","11","150","150.43","115.04","35.39","34.68","37.6","18.13","89340","34.31","DUALSPOT-UV-BLUE-GREEN-RED-IR","702674","693506","910339","19.386286","6.096180","0.009909","688988","872862","763440","15.674668","4.807340","0.002837","785687","882754","815667","13.744574","4.079818","-0.014884","785457","902774","860992","11.483918","3.260940","-0.049207","686103","843271","952948","8.592285","2.450127","0.004275","4418","5138","5469","3265","3371","3417","2959","2606","2457","2550","1890","1629","2748","2823","2853",""
"MA200-0416","27782","83","1","1.10","1.4","2023-05-25T10:21:30","120","2023/05/25","10:21:30","-15.822079122066498","35.0872553139925","0.2","14","30","64","48","-21288","-12968","-6128","11","150","150.09","114.76","35.34","34.74","37.5","18.10","89348","34.31","DUALSPOT-UV-BLUE-GREEN-RED-IR","702971","694074","911296","19.459460","6.118168","-0.001875","689236","873419","763982","15.719569","4.819023","-0.018318","785930","883232","816170","13.779068","4.088861","-0.019457","786551","904182","862368","11.509752","3.265195","-0.160773","686440","843813","953627","8.612583","2.454008","-0.131047","3745","3654","3613","2900","2450","2252","2495","2124","1967","2258","1208","792","2470","1534","1160",""
"MA200-0416","27783","83","1","1.10","1.4","2023-05-25T10:22:00","120","2023/05/25","10:22:00","-15.822077810764313","35.08720947802067","0.3","13","30","64","48","-20880","-13711","-6946","11","150","149.86","114.65","35.21","34.78","37.4","18.11","89364","34.38","DUALSPOT-UV-BLUE-GREEN-RED-IR","696146","687631","902961","19.516650","6.135980","0.001039","688947","873276","763944","15.753626","4.826801","-0.037210","785594","883049","816054","13.805439","4.093033","-0.160577","787305","905249","863390","11.530054","3.267330","-0.969065","686130","843552","953361","8.629791","2.457645","-0.089530","2929","2971","2990","2202","1637","1388","1909","983","593","1776","608","145","2096","1443","1182",""
"MA200-0416","27784","83","1","1.10","1.4","2023-05-25T10:22:30","120","2023/05/25","10:22:30","-15.822026371955872","35.0870693102479","0.4","13","30","64","47","-21936","-13128","-8336","11","150","149.45","114.80","34.65","34.82","37.3","18.11","89388","34.44","DUALSPOT-UV-BLUE-GREEN-RED-IR","697351","689122","905110","19.577598","6.155784","0.005131","690010","874906","765438","15.790668","4.836441","-0.015707","785963","883645","816651","13.835458","4.099614","-0.046010","787580","905747","863900","11.552135","3.270739","-0.185083","686317","843907","953813","8.647663","2.460729","-0.172409","3118","3357","3466","2392","2062","1916","2170","1576","1326","1929","987","614","2174","1243","873",""
"MA200-0416","27785","83","1","1.10","1.4","2023-05-25T10:23:00","120","2023/05/25","10:23:00","-15.822245240211487","35.08701881766319","0.8","13","30","64","47","-21541","-12870","-6583","11","150","149.59","114.75","34.84","34.86","37.2","18.11","89396","34.50","DUALSPOT-UV-BLUE-GREEN-RED-IR","696008","688096","904009","19.652070","6.182232","0.010101","688683","873472","764269","15.833482","4.850418","0.006186","782092","879547","812916","13.869574","4.109079","-0.010060","787173","905428","863658","11.576094","3.275770","-0.065188","686027","843618","953537","8.666946","2.465904","-0.022350","3811","4458","4755","2765","2974","3066","2468","2255","2166","2094","1448","1193","2347","2074","1966",""
"MA200-0416","27786","83","1","1.10","1.4","2023-05-25T10:23:30","120","2023/05/25","10:23:30","-15.822522401809692","35.087023481726646","1.2","13","30","64","48","-22332","-12420","-6360","11","150","150.36","114.76","35.60","34.91","37.1","18.11","89396","34.56","DUALSPOT-UV-BLUE-GREEN-RED-IR","698403","691234","908648","19.799942","6.231527","0.004957","686058","870800","762160","15.928995","4.878784","-0.004116","783957","882178","815593","13.948183","4.131198","-0.010914","790077","909258","867437","11.637763","3.289837","-0.050264","684082","841598","951371","8.714462","2.477774","-0.042893","7568","8132","8392","6170","5906","5790","5687","5158","4935","5391","3964","3401","5784","4657","4210",""
"MA200-0416","27787","83","1","1.10","1.4","2023-05-25T10:24:00","120","2023/05/25","10:24:00","-15.822787523269653","35.08704398572445","0.8","13","30","64","48","-22552","-12887","-2100","11","150","149.39","115.04","34.35","34.96","37.1","18.13","89404","34.63","DUALSPOT-UV-BLUE-GREEN-RED-IR","692273","686225","902821","20.055898","6.324091","0.011751","686439","872095","763674","16.081039","4.927135","0.005328","784413","883424","816982","14.071415","4.166997","-0.002849","785527","904610","863213","11.734375","3.317165","-0.006752","684926","843019","953110","8.780773","2.494444","-0.032273","13068","15827","17098","9798","10435","10716","8893","8652","8551","8425","7982","7807","8052","6779","6274",""
"MA200-0416","27788","83","1","1.10","1.4","2023-05-25T10:24:30","120","2023/05/25","10:24:30","-15.822904407978058","35.086875312030315","1.2","13","30","64","48","-20520","-13116","-9358","11","150","149.85","114.99","34.87","35.01","37.1","18.18","89444","34.69","DUALSPOT-UV-BLUE-GREEN-RED-IR","692607","686676","903532","20.094552","6.337332","0.007922","686415","872197","763797","16.107897","4.936086","0.007769","780347","878964","812901","14.092659","4.172289","-0.024083","785390","904545","863153","11.752336","3.319007","-1.010835","684036","842026","952003","8.795387","2.498246","-0.028180","1974","2230","2348","1731","1903","1979","1533","1260","1145","1567","529","121","1775","1522","1422",""
"MA200-0416","27789","83","1","1.10","1.4","2023-05-25T10:25:00","120","2023/05/25","10:25:00","-15.822848558425903","35.08673832565546","0.2","13","30","64","47","-20552","-8868","-13323","11","150","149.90","115.31","34.58","35.07","37.0","18.20","0","0.00","DUALSPOT-UV-BLUE-GREEN-RED-IR","695360","689616","907532","20.135460","6.351667","0.009814","684148","869490","761484","16.133476","4.942829","-0.013114","782376","881380","815182","14.114355","4.177892","-0.017413","788468","908233","866707","11.768401","3.320730","-0.723841","686154","844735","955121","8.812195","2.501509","-0.110026","2083","2434","2596","1644","1445","1357","1562","1345","1253","1397","499","146","2036","1318","1033",""
"MA200-0416","27790","83","1","1.10","1.4","2023-05-25T10:25:30","120","2023/05/25","10:25:30","-15.822846949100494","35.08662347495556","1.1","13","30","64","48","-21220","-10984","-11012","11","150","150.05","114.92","35.13","35.13","37.2","18.32","0","0.00","DUALSPOT-UV-BLUE-GREEN-RED-IR","696766","691199","909756","20.177656","6.365318","0.003882","685144","870959","762828","16.163319","4.949819","-0.031431","782822","882071","815874","14.139162","4.181922","-0.140747","782896","901993","860762","11.788084","3.323829","-0.176472","686477","845239","955737","8.829506","2.505686","-0.047216","2156","2282","2339","1925","1475","1276","1792","952","599","1718","885","557","2104","1660","1485",""
"MA200-0416","27791","83","1","1.10","1.4","2023-05-25T10:26:00","120","2023/05/25","10:26:00","-15.823035061359406","35.08647347986698","1.1","13","30","64","47","-22160","-11940","-292","11","150","150.03","115.08","34.95","35.19","37.1","18.34","89500","34.88","DUALSPOT-UV-BLUE-GREEN-RED-IR","691996","686616","903812","20.212306","6.377916","0.011058","686450","872766","764465","16.187397","4.955948","-0.018843","783990","883556","817247","14.157836","4.185337","-0.091657","784228","903646","862366","11.802292","3.324908","2.000211","683479","841646","951682","8.842667","2.508800","-0.050475","1768","2117","2277","1551","1299","1188","1347","811","586","1238","309","-54","1597","1244","1104",""
"MA200-0416","27792","83","1","1.10","1.4","2023-05-25T10:26:30","120","2023/05/25","10:26:30","-15.823193669319153","35.086676485836506","1.0","13","30","64","47","-22492","-10480","2896","11","150","149.73","115.25","34.48","35.25","37.0","18.34","89464","35.00","DUALSPOT-UV-BLUE-GREEN-RED-IR","692628","687394","904996","20.250270","6.391834","0.012233","686910","873496","765161","16.211761","4.962921","-0.004101","784028","883718","817445","14.177236","4.189610","-0.042200","785574","905306","863955","11.816829","3.324998","0.317835","683475","841712","951824","8.857307","2.512237","-0.048527","1934","2370","2572","1567","1499","1469","1397","1028","874","1265","26","-459","1774","1392","1241",""
"MA200-0416","27793","83","1","1.10","1.4","2023-05-25T10:27:00","120","2023/05/25","10:27:00","-15.82316118478775","35.08685214817524","0.6","13","30","64","47","-23668","-9836","-760","11","150","149.94","115.04","34.89","35.31","36.7","18.30","89400","35.06","DUALSPOT-UV-BLUE-GREEN-RED-IR","694561","689575","908039","20.296552","6.408804","0.011523","683545","869461","761709","16.242014","4.972500","0.003657","781621","881174","815150","14.203350","4.196722","-0.011949","787196","907356","865948","11.836850","3.329330","-0.055985","684133","842662","952939","8.874027","2.517198","-0.003524","2362","2856","3084","1949","2034","2072","1884","1691","1611","1746","1245","1050","2030","1986","1968",""
"MA200-0416","27794","83","1","1.10","1.4","2023-05-25T10:27:30","120","2023/05/25","10:27:30","-15.82328885793686","35.08701182156801","1.2","13","30","64","47","-21941","-11212","-7729","11","150","149.80","114.92","34.88","35.37","36.5","18.26","89372","35.06","DUALSPOT-UV-BLUE-GREEN-RED-IR","692519","688541","907430","20.479936","6.473642","0.009484","681538","867750","760603","16.361456","5.012394","0.007728","780659","880802","815110","14.297863","4.226458","0.003452","779926","899581","858759","11.910242","3.349626","-0.011855","683567","842386","952807","8.928818","2.532150","-0.018371","9373","10918","11632","7705","8478","8820","6828","7077","7182","6407","5837","5614","6660","5988","5721",""
"MA200-0416","27795","83","1","1.10","1.4","2023-05-25T10:28:00","120","2023/05/25","10:28:00","-15.823563814163208","35.08701315522194","0.9","13","30","64","47","-22176","-10844","-9208","11","150","149.57","114.52","35.05","35.43","36.4","18.24","89392","35.19","DUALSPOT-UV-BLUE-GREEN-RED-IR","689605","685950","904181","20.594806","6.513571","0.008047","684093","871268","763739","16.433666","5.034006","-0.001995","779667","879882","814338","14.355454","4.241860","-0.015190","783576","903979","862980","11.955630","3.360515","-0.035929","685927","845410","956262","8.963360","2.539796","-0.070180","5891","6691","7062","4674","4571","4526","4175","3648","3427","3976","3117","2781","4213","3047","2586",""
"MA200-0416","27796","83","1","1.10","1.4","2023-05-25T10:28:30","120","2023/05/25","10:28:30","-15.823704838752747","35.08691930770874","0.9","13","30","64","47","-22072","-11433","-9341","11","150","150.23","114.60","35.63","35.49","36.3","18.25","89412","35.25","DUALSPOT-UV-BLUE-GREEN-RED-IR","690770","687331","906146","20.642734","6.529730","0.005327","685822","873650","765908","16.466848","5.043203","-0.011253","779411","879819","814320","14.383821","4.249167","-0.022341","784458","905102","864092","11.976439","3.363550","-0.235655","681648","840265","950527","8.983501","2.545189","-0.026689","2456","2663","2759","2146","1913","1810","2054","1702","1555","1821","854","476","2455","2114","1980",""
"MA200-0416","27797","83","1","1.10","1.4","2023-05-25T10:29:00","120","2023/05/25","10:29:00","-15.823790490627289","35.08671648800373","1.1","13","30","64","47","-22704","-11796","-7752","11","150","149.51","115.00","34.51","35.55","36.3","18.32","89432","35.31","DUALSPOT-UV-BLUE-GREEN-RED-IR","692244","689054","908602","20.700152","6.548492","0.005561","681767","868766","761692","16.506353","5.051040","-0.057794","780538","881330","815769","14.418835","4.255498","-0.089728","785894","906985","865916","12.002339","3.367227","-0.227921","682716","841757","952209","9.008404","2.551527","-0.029871","2932","3193","3314","2546","1683","1303","2527","1522","1102","2259","1069","604","3025","2565","2383",""
"MA200-0416","27798","83","1","1.10","1.4","2023-05-25T10:29:30","120","2023/05/25","10:29:30","-15.823919892311096","35.08657614141703","0.8","13","30","64","47","-22696","-11120","-8568","11","150","150.61","115.24","35.37","35.62","36.3","18.35","89476","35.38","DUALSPOT-UV-BLUE-GREEN-RED-IR","691465","688466","907938","20.745224","6.563566","0.005587","681419","868441","761498","16.537657","5.062067","0.010611","780416","881335","815828","14.442522","4.260886","-0.040174","785792","907025","865974","12.022659","3.370279","-0.203241","682261","841287","951712","9.025799","2.554790","-0.131232","2297","2503","2598","2013","2311","2442","1706","1264","1079","1769","865","513","2108","1288","965",""
"MA200-0416","27799","83","1","1.10","1.4","2023-05-25T10:30:00","120","2023/05/25","10:30:00","-15.824014842510223","35.08635315299034","1.2","13","30","64","47","-20540","-11512","-9736","11","150","149.83","114.96","34.87","35.67","36.1","18.33","89552","35.44","DUALSPOT-UV-BLUE-GREEN-RED-IR","687463","684625","902950","20.776950","6.574585","0.008416","683258","870937","763704","16.555189","5.066282","-0.025796","777885","878604","813279","14.458211","4.263353","-0.148960","782714","903535","862656","12.033588","3.370576","0.397621","683780","843228","953959","9.038269","2.557919","-0.035152","1621","1855","1964","1130","895","792","1133","587","359","953","85","-252","1515","1253","1150",""
"MA200-0416","27800","83","1","1.10","1.4","2023-05-25T10:30:30","120","2023/05/25","10:30:30","-15.824021875858307","35.086101315915585","0.8","13","30","64","47","-22128","-11844","-8880","11","150","149.57","115.00","34.57","35.72","36.0","18.33","89580","35.44","DUALSPOT-UV-BLUE-GREEN-RED-IR","689172","686523","905580","20.814986","6.586803","0.004385","684581","872801","765378","16.577337","5.071819","-0.019313","778957","879936","814563","14.475587","4.266614","-0.078776","783584","904675","863763","12.047648","3.371530","1.185634","684786","844565","955534","9.051956","2.560696","-0.091587","1942","2076","2137","1427","1187","1081","1254","783","586","1226","276","-92","1662","1122","909",""
"MA200-0416","27801","83","1","1.10","1.4","2023-05-25T10:31:00","120","2023/05/25","10:31:00","-15.824000060558319","35.085804149508476","0.6","13","30","64","46","-21208","-9929","-10116","11","150","149.90","114.72","35.18","35.79","35.9","18.35","89628","35.50","DUALSPOT-UV-BLUE-GREEN-RED-IR","688047","685677","904671","20.875812","6.609562","0.011671","683726","871944","764670","16.614140","5.081642","-0.013816","778386","879510","814213","14.506319","4.273748","-0.036215","782716","903839","862973","12.070462","3.374064","-0.639719","683932","843648","954495","9.073349","2.565472","-0.067311","3114","3799","4117","2378","2070","1934","2224","1683","1458","1995","722","228","2605","1896","1617",""
"MA200-0416","27802","83","1","1.10","1.4","2023-05-25T10:31:30","120","2023/05/25","10:31:30","-15.823987007141113","35.08549798280001","1.1","13","30","64","47","-22132","-11408","-7960","11","150","149.96","114.72","35.24","35.84","35.7","18.30","89632","35.56","DUALSPOT-UV-BLUE-GREEN-RED-IR","690497","688187","908091","20.905998","6.621732","0.015008","680357","867733","761029","16.632059","5.087042","-0.001698","779728","881103","815718","14.520584","4.276979","-0.040907","785921","907657","866623","12.081741","3.374779","0.900800","680936","840024","950421","9.084114","2.567468","-0.136009","1545","2028","2252","1158","1135","1126","1032","761","647","986","203","-99","1310","791","586",""
"MA200-0416","27803","83","1","1.10","1.4","2023-05-25T10:32:00","120","2023/05/25","10:32:00","-15.823983371257782","35.085315480828285","0.8","13","30","64","47","-20608","-11120","-5104","11","150","149.83","114.76","35.07","35.89","35.6","18.30","89592","35.63","DUALSPOT-UV-BLUE-GREEN-RED-IR","691300","689151","909477","20.936856","6.630995","-0.001282","681419","869236","762389","16.652517","5.091089","-0.062039","779971","881512","816129","14.536000","4.279864","-0.083895","786513","908432","867375","12.093966","3.375601","1.093933","681674","840990","951547","9.095394","2.570313","-0.035418","1579","1551","1538","1321","855","650","1115","682","502","1068","235","-87","1373","1133","1038",""
"MA200-0416","27804","83","1","1.10","1.4","2023-05-25T10:32:30","120","2023/05/25","10:32:30","-15.824127197265625","35.085004821419716","0.6","13","30","64","46","-21716","-12528","1496","11","150","149.90","114.84","35.06","35.96","35.5","18.34","89556","35.63","DUALSPOT-UV-BLUE-GREEN-RED-IR","692146","690238","911040","20.985816","6.645776","-0.000782","682011","870193","763317","16.685596","5.100029","-0.011859","780326","882056","816667","14.559502","4.283780","-0.123981","780037","901089","860357","12.108901","3.376460","0.739923","681421","840814","951358","9.110821","2.573145","-0.137150","2504","2476","2463","2135","1890","1782","1699","927","605","1304","245","-163","1876","1128","834",""
"MA200-0416","27805","83","1","1.10","1.4","2023-05-25T10:33:00","120","2023/05/25","10:33:00","-15.824233710765839","35.084684155881405","1.0","13","30","64","46","-21564","-12100","-8652","11","150","149.45","114.60","34.85","36.01","35.6","18.43","89532","35.69","DUALSPOT-UV-BLUE-GREEN-RED-IR","685205","683475","902144","21.013768","6.652446","-0.021881","681446","869612","762812","16.701998","5.100769","0.324425","776691","878068","812964","14.575198","4.283440","0.201296","779480","900556","859829","12.120077","3.376043","0.230830","681091","840486","951022","9.119297","2.574400","-0.275642","1432","1124","981","1060","157","-240","1137","-81","-587","978","-120","-544","1033","502","294",""
"MA200-0416","27806","83","1","1.10","1.4","2023-05-25T10:33:30","120","2023/05/25","10:33:30","-15.824238002300262","35.084631480276585","1.1","13","30","64","46","-21004","-11564","-8160","11","150","150.18","114.88","35.30","36.07","35.6","18.45","89536","35.75","DUALSPOT-UV-BLUE-GREEN-RED-IR","687210","685606","905052","21.048196","6.664907","0.009806","683138","871930","764876","16.724468","5.107593","-0.001012","777801","879456","814297","14.592544","4.289049","0.004725","782255","903888","863021","12.132046","3.375268","0.204121","682102","841808","952539","9.132133","2.578082","-0.011194","1760","2073","2218","1450","1433","1425","1253","1319","1346","1045","-220","-707","1560","1457","1416",""
"MA200-0416","27807","83","1","1.10","1.4","2023-05-25T10:34:00","120","2023/05/25","10:34:00","-15.824200868606567","35.08485832065344","0.9","13","30","64","46","-21784","-12576","-8920","11","150","149.76","115.31","34.45","36.11","35.5","18.44","89560","35.81","DUALSPOT-UV-BLUE-GREEN-RED-IR","688919","687524","907707","21.088058","6.677623","0.004283","679454","867391","760950","16.748177","5.113357","-0.021882","778343","880212","815022","14.612039","4.291737","-0.219610","783794","905758","864847","12.145855","3.376305","2.318853","682823","842756","953625","9.144669","2.579416","-0.948488","2030","2168","2231","1524","1240","1115","1403","647","333","1201","302","-44","1518","541","156",""
"MA200-0416","27808","83","1","1.10","1.4","2023-05-25T10:34:30","120","2023/05/25","10:34:30","-15.824059844017029","35.085123650729656","1.3","13","30","64","46","-19952","-9228","-5092","11","150","149.86","114.84","35.02","36.17","35.3","18.43","89588","35.81","DUALSPOT-UV-BLUE-GREEN-RED-IR","689385","688265","908961","21.154484","6.700746","0.008111","679842","868108","761657","16.786540","5.123502","-0.014074","778857","880999","815822","14.641952","4.299468","-0.018801","784646","906946","865980","12.168363","3.380608","-0.087787","683038","843165","954145","9.162376","2.583707","-0.043690","3397","3878","4101","2476","2147","2003","2162","1832","1695","1966","1232","950","2154","1711","1538",""
"MA200-0416","27809","83","1","1.10","1.4","2023-05-25T10:35:00","120","2023/05/25","10:35:00","-15.824076533317566","35.08540881425142","1.1","13","30","64","46","-21620","-12320","-8832","11","150","149.54","114.88","34.67","36.24","35.1","18.37","89632","35.88","DUALSPOT-UV-BLUE-GREEN-RED-IR","688999","688164","908981","21.208608","6.718929","0.006702","679821","868289","761903","16.820454","5.136198","0.015288","779468","881845","816693","14.669125","4.307664","-0.000057","779344","900967","860322","12.187835","3.384667","-0.061442","684129","844627","955851","9.180714","2.586812","-0.171289","2767","3080","3225","2188","2714","2946","1963","1962","1962","1700","1174","972","2229","1250","866",""
"MA200-0416","27810","83","1","1.10","1.4","2023-05-25T10:35:30","120","2023/05/25","10:35:30","-15.824093639850616","35.08572815358639","1.0","13","30","64","46","-23064","-13000","-107","11","150","149.91","114.99","34.92","36.25","34.8","18.26","89592","35.94","DUALSPOT-UV-BLUE-GREEN-RED-IR","690113","689511","910915","21.262324","6.736957","0.006286","680749","869669","763199","16.855982","5.146616","-0.003071","779471","882039","816923","14.697530","4.315478","-0.010437","778978","900658","860094","12.209313","3.388714","-0.090574","683427","843905","955046","9.199665","2.592233","-0.009512","2743","3032","3166","2290","2212","2177","2050","1858","1778","1873","1162","889","2302","2169","2116",""
"MA200-0416","27811","83","1","1.10","1.4","2023-05-25T10:36:00","120","2023/05/25","10:36:00","-15.824049890041351","35.08599999547005","1.3","13","30","64","46","-21392","-12680","-3655","11","150","149.76","115.04","34.73","36.29","34.7","18.23","89552","35.94","DUALSPOT-UV-BLUE-GREEN-RED-IR","690717","690252","912037","21.300394","6.750711","0.010498","681170","870375","763856","16.880308","5.151153","-0.072439","779356","882109","816988","14.716422","4.317403","-1.019390","779634","901533","860896","12.222332","3.389745","4.016666","683596","844160","955379","9.212093","2.593435","-1.904293","1943","2326","2503","1567","968","705","1363","460","85","1135","297","-23","1509","483","81",""
"MA200-0416","27812","83","1","1.10","1.4","2023-05-25T10:36:30","120","2023/05/25","10:36:30","-15.824031829833984","35.086308144032955","0.7","13","30","64","46","-23144","-11964","4880","11","150","149.86","114.99","34.87","36.34","34.4","18.14","89508","36.00","DUALSPOT-UV-BLUE-GREEN-RED-IR","685353","685045","905217","21.330318","6.760664","0.005823","681314","870677","764163","16.898330","5.157238","0.008318","776904","879368","814490","14.731305","4.320478","-0.055691","781296","903526","862808","12.233890","3.390956","-0.785131","680430","840326","951039","9.223675","2.597778","0.026873","1528","1676","1745","1161","1293","1351","1074","732","590","1008","348","95","1406","1740","1870",""
"MA200-0416","27813","83","1","1.10","1.4","2023-05-25T10:37:00","120","2023/05/25","10:37:00","-15.82384991645813","35.08657697588205","1.5","13","30","64","46","-20658","-12720","-6700","11","150","149.40","114.52","34.88","36.38","34.2","18.11","89448","36.00","DUALSPOT-UV-BLUE-GREEN-RED-IR","683901","683780","903658","21.371514","6.773992","0.003910","680809","870197","763806","16.924070","5.164373","-0.008788","775607","878034","813287","14.751215","4.324639","-0.054166","779627","901763","861131","12.247739","3.390651","0.250849","679069","838729","949285","9.236637","2.601084","-0.031655","2112","2244","2305","1666","1516","1450","1443","990","802","1213","-87","-585","1581","1324","1223",""
"MA200-0416","27814","83","1","1.10","1.4","2023-05-25T10:37:30","120","2023/05/25","10:37:30","-15.823788821697235","35.086752980947495","0.7","13","30","64","46","-23236","-12144","-3728","11","150","149.51","114.64","34.87","36.43","34.1","18.11","0","0.00","DUALSPOT-UV-BLUE-GREEN-RED-IR","686096","686199","906989","21.413022","6.786527","-0.000492","677481","866073","760233","16.949324","5.168962","-0.081127","777308","880124","815262","14.772118","4.329068","-0.050884","782434","905095","864348","12.261828","3.391390","0.648248","680641","840756","951611","9.248100","2.602798","-0.261683","2126","2111","2104","1633","975","687","1513","1054","864","1233","212","-177","1396","686","408",""
"MA200-0416","27815","83","1","1.10","1.4","2023-05-25T10:38:00","120","2023/05/25","10:38:00","-15.823745787143707","35.087117820978165","1.4","13","30","64","46","-21824","-13072","2904","11","150","149.83","114.84","34.99","36.46","33.9","18.04","0","0.00","DUALSPOT-UV-BLUE-GREEN-RED-IR","686427","686811","907972","21.477190","6.808872","0.008051","677750","866678","760835","16.988536","5.181795","0.005660","777285","880310","815483","14.803404","4.336113","-0.039521","783125","906061","865300","12.285206","3.396463","-0.053795","680907","841213","952119","9.267738","2.607978","-0.024801","3281","3750","3968","2531","2718","2800","2261","1671","1427","2042","1454","1229","2388","2068","1942",""
"MA200-0416","27816","83","1","1.10","1.4","2023-05-25T10:38:30","120","2023/05/25","10:38:30","-15.823824107646942","35.08732131123543","0.9","13","30","64","46","-21054","-12500","-6741","11","150","149.09","114.88","34.21","36.51","33.7","17.95","89372","36.06","DUALSPOT-UV-BLUE-GREEN-RED-IR","685637","686240","907405","21.527056","6.826847","0.010944","677292","866338","760610","17.020700","5.191845","0.003883","776761","879892","815146","14.826080","4.343694","0.009979","782229","905205","864492","12.303106","3.400773","-0.029277","680657","840920","951901","9.281490","2.611487","-0.026825","2549","3086","3335","2075","2177","2222","1638","1840","1923","1563","1263","1149","1672","1432","1338",""
"MA200-0416","27817","83","1","1.10","1.4","2023-05-25T10:39:00","120","2023/05/25","10:39:00","-15.823977530002594","35.087528981268406","0.4","13","30","64","46","-21028","-10980","-7740","11","150","149.39","114.96","34.43","36.54","33.5","17.88","89388","36.13","DUALSPOT-UV-BLUE-GREEN-RED-IR","686786","687665","910166","21.643040","6.916195","0.032247","678270","867610","762372","17.089986","5.269993","0.046809","777537","880692","816542","14.884140","4.418677","0.055421","778393","900629","860723","12.343005","3.462952","0.069178","681560","842158","953594","9.311821","2.643876","0.083957","5926","15242","19618","4468","16826","22337","4193","18081","23945","3482","18119","23827","3685","13141","16890",""
"MA200-0416","27818","83","1","1.10","1.4","2023-05-25T10:39:30","120","2023/05/25","10:39:30","-15.824180841445923","35.08762314915657","1.0","13","30","64","46","-21828","-13772","-7052","11","150","150.03","114.80","35.23","36.58","33.4","17.88","89388","36.19","DUALSPOT-UV-BLUE-GREEN-RED-IR","681654","683044","904363","21.776904","6.959131","0.002857","678881","868872","763672","17.192220","5.301910","0.001421","775267","878547","814708","14.967960","4.443478","-0.003591","779926","902750","862893","12.412985","3.482180","-0.013715","682837","844007","955810","9.366653","2.659899","-0.007634","6849","7158","7303","6601","6716","6767","6061","5844","5752","6115","5475","5226","6672","6353","6227",""
"MA200-0416","27819","83","1","1.10","1.4","2023-05-25T10:40:00","120","2023/05/25","10:40:00","-15.824457824230194","35.08773948252201","1.2","13","30","64","45","-20652","-13356","-9320","11","150","149.61","115.18","34.42","36.61","33.2","17.84","89388","36.25","DUALSPOT-UV-BLUE-GREEN-RED-IR","681264","682867","904248","21.821430","6.973856","0.006201","678381","868381","763309","17.219430","5.309576","-0.005266","774409","877702","813979","14.992253","4.448498","-0.052201","778961","901802","861990","12.431939","3.484887","-0.212863","681534","842506","954125","9.383125","2.661790","-0.654742","2270","2512","2625","1751","1650","1605","1751","1210","982","1650","788","452","1997","767","279",""
"MA200-0416","27820","83","1","1.10","1.4","2023-05-25T10:40:30","120","2023/05/25","10:40:30","-15.824764966964722","35.08787948638201","1.2","13","30","64","45","-22276","-13204","-264","11","150","150.17","115.30","34.88","36.66","33.1","17.80","89376","36.31","DUALSPOT-UV-BLUE-GREEN-RED-IR","684627","686337","908971","21.853632","6.985471","0.010087","676072","865563","760865","17.241296","5.314541","-0.032680","776522","880225","816333","15.009545","4.451639","-0.087581","782559","906030","866043","12.444247","3.485751","1.287275","679458","839999","951353","9.396111","2.666097","0.012647","1640","1956","2104","1405","1055","899","1245","747","537","1071","248","-71","1573","1725","1785",""
"MA200-0416","27821","83","1","1.10","1.4","2023-05-25T10:41:00","120","2023/05/25","10:41:00","-15.825127482414246","35.087948970496655","1.2","13","30","64","45","-21448","-13704","-7520","11","150","149.96","114.92","35.05","36.70","33.0","17.79","89368","36.38","DUALSPOT-UV-BLUE-GREEN-RED-IR","685595","687465","910561","21.886602","6.996982","0.008019","677528","867563","762672","17.263288","5.319500","-0.034996","776663","880530","816669","15.028321","4.456341","-0.022660","783296","907001","866977","12.458879","3.487033","-7.893225","679676","840366","951780","9.409130","2.668216","-0.198128","1685","1929","2043","1418","1049","884","1356","1114","1011","1277","366","12","1582","844","552",""
"MA200-0416","27822","83","1","1.10","1.4","2023-05-25T10:41:30","120","2023/05/25","10:41:30","-15.825417697429657","35.08801631629467","1.1","13","30","64","45","-19700","-12884","-6915","11","150","149.76","114.64","35.13","36.74","32.9","17.81","89408","36.44","DUALSPOT-UV-BLUE-GREEN-RED-IR","680918","682961","904676","21.920850","7.007440","-0.000229","678911","869511","764412","17.284842","5.325210","-0.014077","774387","878090","814406","15.047199","4.458553","-0.477131","778548","901643","861861","12.473497","3.488600","-0.740499","680994","842080","953733","9.422348","2.669823","-0.564414","1754","1748","1745","1393","1205","1121","1367","522","167","1279","447","124","1610","639","254",""
"MA200-0416","27823","83","1","1.10","1.4","2023-05-25T10:42:00","120","2023/05/25","10:42:00","-15.825723230838776","35.08807347714901","1.0","13","30","64","45","-20941","-13141","-6870","11","150","150.09","115.02","35.06","36.80","33.0","17.89","89472","36.50","DUALSPOT-UV-BLUE-GREEN-RED-IR","682344","684506","906847","21.953180","7.018726","0.008009","679710","870657","765444","17.303900","5.328018","-0.170338","775763","879749","815988","15.062170","4.460317","-0.450122","781017","904588","864666","12.483635","3.487647","0.178282","681843","843214","955010","9.433563","2.672227","-0.075036","1650","1890","2003","1228","593","311","1080","417","138","884","-272","-721","1362","957","797",""
"MA200-0416","27824","83","1","1.10","1.4","2023-05-25T10:42:30","120","2023/05/25","10:42:30","-15.825872242450714","35.08790747076273","1.0","13","30","64","45","-21284","-13151","-8504","11","150","149.83","115.00","34.83","36.85","33.0","17.94","89500","36.56","DUALSPOT-UV-BLUE-GREEN-RED-IR","683998","686304","909311","21.978724","7.026998","0.004197","675924","865929","761320","17.321798","5.332273","-0.026035","776549","880761","816927","15.076151","4.462564","-0.132772","776086","899029","859330","12.493441","3.487033","0.198798","678814","839517","950883","9.444088","2.675277","-0.006766","1304","1394","1437","1153","905","795","1009","535","336","855","-176","-576","1278","1223","1201",""
"MA200-0416","27825","83","1","1.10","1.4","2023-05-25T10:43:00","120","2023/05/25","10:43:00","-15.825901091098785","35.08760380744934","1.5","13","30","64","45","-21440","-12968","-8804","11","150","149.55","114.88","34.67","36.91","33.1","18.05","89508","36.69","DUALSPOT-UV-BLUE-GREEN-RED-IR","677814","680237","901309","22.007156","7.033827","-0.019506","675980","866122","761492","17.338904","5.333948","-2.302938","773304","877174","813623","15.090135","4.463393","0.535627","782558","906582","866560","12.504251","3.486478","0.208527","678741","839523","950889","9.456161","2.676736","-0.541903","1453","1156","1017","1103","358","26","1010","198","-142","944","-160","-587","1468","587","239",""
"MA200-0416","27826","83","1","1.10","1.4","2023-05-25T10:43:30","120","2023/05/25","10:43:30","-15.825901925563812","35.087358482182026","1.3","13","30","64","45","-22616","-12720","-2568","11","150","149.76","115.20","34.57","36.97","33.1","18.10","89504","36.69","DUALSPOT-UV-BLUE-GREEN-RED-IR","679710","683039","905792","22.222724","7.118047","0.013841","678186","869691","764921","17.458158","5.370176","0.001001","773658","878281","814838","15.191403","4.488682","-0.020580","777798","901701","862087","12.596075","3.506708","-0.046309","679124","840576","952251","9.538612","2.695490","-0.053362","10991","14310","15874","7674","7769","7811","7298","6073","5560","7997","5871","5051","9998","7579","6626",""
"MA200-0416","27827","83","1","1.10","1.4","2023-05-25T10:44:00","120","2023/05/25","10:44:00","-15.825683891773224","35.087165147066116","0.8","13","30","64","45","-21228","-12488","-4616","11","150","149.45","114.84","34.61","37.03","33.1","18.16","89460","36.75","DUALSPOT-UV-BLUE-GREEN-RED-IR","679839","683418","906520","22.284946","7.143278","0.015127","678358","870117","765371","17.494724","5.380893","-0.002358","774797","879740","816286","15.223209","4.498131","-0.001368","780006","904485","864784","12.624064","3.512078","-0.080301","680628","842585","954574","9.566608","2.701231","-0.083956","3182","4282","4800","2360","2295","2266","2299","2266","2252","2445","1556","1214","3405","2317","1888",""
"MA200-0416","27828","83","1","1.10","1.4","2023-05-25T10:44:30","120","2023/05/25","10:44:30","-15.825591921806335","35.086874812841415","1.2","13","30","64","44","-21041","-12195","-9125","11","150","149.90","115.04","34.86","37.08","33.1","18.17","89468","36.81","DUALSPOT-UV-BLUE-GREEN-RED-IR","679921","683572","906742","22.301018","7.148199","0.000678","673475","863911","759957","17.506922","5.384947","0.006985","774368","879302","815871","15.232127","4.498482","0.345544","778808","903151","863504","12.628875","3.511083","0.138690","679724","841527","953422","9.574787","2.702082","-1.116316","820","829","833","786","861","895","643","83","-150","419","-286","-558","993","341","84",""
"MA200-0416","27829","83","1","1.10","1.4","2023-05-25T10:45:00","120","2023/05/25","10:45:00","-15.82557076215744","35.08660213649273","0.7","13","30","64","45","-20629","-11804","-7691","11","150","149.76","115.12","34.65","37.14","33.1","18.24","89492","36.88","DUALSPOT-UV-BLUE-GREEN-RED-IR","682734","686505","910744","22.325902","7.156675","0.007271","675563","866703","762402","17.521196","5.386364","-1.686559","775546","880787","817238","15.242867","4.498727","0.276311","781701","906579","866774","12.638736","3.510278","0.183227","681225","843456","955615","9.585354","2.703745","-0.206996","1269","1436","1515","919","303","30","774","58","-241","859","-233","-653","1282","670","429",""
"MA200-0416","27830","83","1","1.10","1.4","2023-05-25T10:45:30","120","2023/05/25","10:45:30","-15.825773000717163","35.08642231673002","1.4","13","30","64","45","-20950","-12511","-7283","11","150","150.23","114.96","35.27","37.18","33.3","18.36","89508","36.88","DUALSPOT-UV-BLUE-GREEN-RED-IR","677022","680944","903485","22.360574","7.167843","0.003055","675836","867249","762964","17.546212","5.393606","-0.005050","772713","877697","814423","15.264048","4.502881","-0.068649","774871","898808","859354","12.655272","3.512144","-0.553524","680712","842889","955035","9.598732","2.707283","-0.024790","1771","1859","1901","1613","1522","1481","1529","977","746","1443","530","180","1625","1401","1313",""
"MA200-0416","27831","83","1","1.10","1.4","2023-05-25T10:46:00","120","2023/05/25","10:46:00","-15.825888395309448","35.086244478821754","0.9","13","30","64","45","-21240","-14204","-9240","11","150","149.96","115.12","34.85","37.23","33.3","18.40","89540","36.94","DUALSPOT-UV-BLUE-GREEN-RED-IR","677665","681783","904720","22.407066","7.184866","0.010523","676225","867959","763637","17.580018","5.402851","-0.009225","773661","878955","815657","15.294055","4.510665","-0.016638","777342","901844","862289","12.678609","3.516989","-0.060639","678273","839993","951788","9.620422","2.714090","0.005066","2372","2869","3104","2177","1966","1873","2164","1854","1725","2033","1395","1149","2632","2728","2767",""
"MA200-0416","27832","83","1","1.10","1.4","2023-05-25T10:46:30","120","2023/05/25","10:46:30","-15.826074361801147","35.08605499565601","1.4","13","30","64","45","-20448","-13316","-8744","11","150","150.24","115.33","34.90","37.29","33.3","18.48","89600","37.00","DUALSPOT-UV-BLUE-GREEN-RED-IR","678636","682860","906202","22.427898","7.191097","-0.000776","677227","869317","764870","17.593844","5.405765","-0.044293","773823","879242","815914","15.304311","4.512304","-0.132143","778197","902904","863313","12.685884","3.516918","0.262783","678641","840524","952384","9.628437","2.715494","-0.147441","1060","1048","1042","888","618","499","738","389","244","632","-20","-271","970","561","401",""
"MA200-0416","27833","83","1","1.10","1.4","2023-05-25T10:47:00","120","2023/05/25","10:47:00","-15.826354563236237","35.08616065233946","1.1","13","30","64","44","-21132","-13300","-7411","11","150","149.83","114.92","34.91","37.34","33.3","18.49","89600","37.06","DUALSPOT-UV-BLUE-GREEN-RED-IR","680382","684787","908899","22.466210","7.202814","0.000432","673833","865128","761229","17.617436","5.411274","-0.028497","774491","880141","816805","15.323620","4.516434","-0.047171","779780","904837","865171","12.698327","3.516596","0.236017","679272","841393","953414","9.640835","2.718264","-0.060480","1958","1971","1977","1521","1169","1013","1394","982","809","1086","-92","-543","1507","1108","952",""
"MA200-0416","27834","83","1","1.10","1.4","2023-05-25T10:47:30","120","2023/05/25","10:47:30","-15.826507806777954","35.086475148797035","1.2","13","30","64","44","-21736","-12300","-7343","11","150","149.89","115.24","34.65","37.40","33.2","18.50","89596","37.13","DUALSPOT-UV-BLUE-GREEN-RED-IR","679668","684223","908197","22.494776","7.211799","0.002817","673256","864437","760671","17.635888","5.416239","-0.010162","774079","879769","816445","15.336720","4.516906","0.328171","778445","903409","863758","12.707534","3.515630","0.169709","677836","839711","951515","9.651222","2.719884","-0.210524","1456","1522","1554","1187","1062","1006","943","112","-234","801","-279","-693","1259","653","415",""
"MA200-0416","27835","83","1","1.10","1.4","2023-05-25T10:48:00","120","2023/05/25","10:48:00","-15.8265979886055","35.08677514642477","1.2","13","30","64","44","-21396","-12392","-9040","11","150","149.99","114.92","35.07","37.45","33.0","18.46","89588","37.19","DUALSPOT-UV-BLUE-GREEN-RED-IR","675940","680601","903505","22.522736","7.221548","0.007697","675129","867012","762934","17.651848","5.420095","-0.024336","772542","878097","814901","15.350173","4.520172","-0.026586","775609","900186","860711","12.718076","3.517336","-0.145933","680059","842495","954702","9.660896","2.721479","-0.184235","1429","1632","1728","1029","815","720","972","773","690","920","487","322","1176","635","423",""
"MA200-0416","27836","83","1","1.10","1.4","2023-05-25T10:48:30","120","2023/05/25","10:48:30","-15.826609194278717","35.08709714561701","1.5","13","30","64","44","-21448","-12800","-8340","11","150","149.92","115.26","34.66","37.50","32.9","18.44","89588","37.25","DUALSPOT-UV-BLUE-GREEN-RED-IR","677699","682550","906232","22.557556","7.233690","0.008427","676343","868755","764514","17.673458","5.424774","-0.038385","773573","879444","816171","15.365969","4.522013","-0.426827","777127","902074","862517","12.730233","3.517258","0.269697","677171","839016","950781","9.673805","2.724343","-0.059468","1774","2057","2190","1389","1000","828","1137","441","150","1058","-22","-434","1564","1154","993",""
"MA200-0416","27837","83","1","1.10","1.4","2023-05-25T10:49:00","120","2023/05/25","10:49:00","-15.826564133167267","35.08741232007742","1.0","13","30","64","44","-21628","-13044","-7711","11","150","150.49","114.00","36.49","37.56","32.7","18.39","89584","37.25","DUALSPOT-UV-BLUE-GREEN-RED-IR","676431","681435","904836","22.601488","7.248216","0.002054","675728","868062","763949","17.698186","5.431640","-0.013352","771867","877626","814512","15.385678","4.526049","-0.067785","775216","899938","860486","12.742486","3.517884","0.565910","679225","841623","953764","9.684818","2.726719","-0.085671","2263","2338","2373","1608","1395","1300","1435","918","702","1078","172","-173","1349","909","737",""
"MA200-0416","27838","83","1","1.10","1.4","2023-05-25T10:49:30","120","2023/05/25","10:49:30","-15.826547801494598","35.08767765015364","1.0","13","30","64","44","-21396","-12688","-8912","11","150","150.69","115.24","35.45","37.61","32.5","18.33","89572","37.31","DUALSPOT-UV-BLUE-GREEN-RED-IR","678465","683617","907804","22.629700","7.257780","0.005759","677143","870022","765697","17.716840","5.436451","-0.017189","773505","879583","816351","15.398938","4.528236","-0.124440","778547","903904","864282","12.753415","3.517336","0.207799","676716","838587","950311","9.696781","2.729933","-0.022104","1437","1584","1653","1199","1005","919","955","512","327","951","-155","-576","1450","1266","1194",""
"MA200-0416","27839","83","1","1.10","1.4","2023-05-25T10:50:00","120","2023/05/25","10:50:00","-15.826537728309631","35.08782798796892","0.4","14","30","64","44","-21844","-11088","-9212","11","150","149.09","114.00","35.08","37.65","32.3","18.28","89560","37.31","DUALSPOT-UV-BLUE-GREEN-RED-IR","677928","683179","907320","22.654648","7.265865","0.003198","671547","862922","759516","17.732534","5.439918","-0.038637","773646","879820","816605","15.412401","4.530495","-0.117388","777469","902753","863163","12.762335","3.518038","2.997971","676424","838274","949991","9.706024","2.731329","-0.251067","1285","1353","1385","1020","732","605","980","534","349","784","201","-21","1132","555","329",""
"MA200-0416","27840","83","1","1.10","1.4","2023-05-25T10:50:30","120","2023/05/25","10:50:30","-15.826761543750763","35.0879779830575","0.9","14","30","64","44","-19628","-10832","-12264","11","150","149.61","115.22","34.39","37.70","32.1","18.23","89576","37.38","DUALSPOT-UV-BLUE-GREEN-RED-IR","673829","679210","902147","22.689660","7.278629","0.010841","673465","865555","761861","17.754564","5.445354","-0.018755","771657","877672","814655","15.429515","4.534030","-0.050138","781049","906984","867223","12.774962","3.518623","0.549229","678483","840907","953034","9.718639","2.734476","-0.030445","1784","2180","2367","1417","1171","1063","1233","853","695","1099","170","-182","1529","1278","1180",""
"MA200-0416","27841","83","1","1.10","1.4","2023-05-25T10:51:00","120","2023/05/25","10:51:00","-15.827066123485565","35.0879026427865","1.0","14","30","64","44","-22172","-12255","-7402","11","150","149.73","115.33","34.40","37.75","32.0","18.24","89592","37.44","DUALSPOT-UV-BLUE-GREEN-RED-IR","674999","680662","904246","22.740602","7.293783","-0.000171","674564","867181","763349","17.788014","5.453897","-0.014704","771780","878050","815023","15.456715","4.538834","-0.088372","780837","906935","867187","12.796500","3.520030","1.088027","677648","840000","952017","9.734657","2.737300","-0.135551","2594","2587","2584","2150","1840","1704","1957","1159","827","1873","410","-144","1940","1146","836",""
"MA200-0416","27842","83","1","1.10","1.4","2023-05-25T10:51:30","120","2023/05/25","10:51:30","-15.827352821826935","35.087841652333736","1.1","14","30","64","44","-19920","-11762","-9737","11","150","149.90","115.43","34.46","37.80","32.1","18.31","89596","37.44","DUALSPOT-UV-BLUE-GREEN-RED-IR","675604","681488","905487","22.793022","7.309889","0.001805","675079","868086","764220","17.820786","5.460430","-0.051613","772076","878549","815552","15.484074","4.544228","-0.059753","775521","900912","861448","12.815262","3.522568","-0.239043","678409","841047","953244","9.751724","2.740921","-0.069058","2667","2744","2781","2104","1405","1096","1967","1299","1022","1630","739","401","2065","1467","1234",""
"MA200-0416","27843","83","1","1.10","1.4","2023-05-25T10:52:00","120","2023/05/25","10:52:00","-15.827541172504425","35.08767148852348","0.9","14","30","64","44","-20476","-12452","-9356","11","150","149.51","115.08","34.43","37.84","32.0","18.31","89616","37.50","DUALSPOT-UV-BLUE-GREEN-RED-IR","677028","683097","907767","22.834490","7.323982","0.007303","676203","869656","765664","17.848356","5.469137","0.004160","773419","880218","817133","15.504411","4.548025","-0.073357","776908","902660","863130","12.829669","3.523594","1.614106","679595","842622","955081","9.765194","2.744121","-0.041072","2116","2404","2540","1776","1874","1918","1467","915","686","1256","298","-63","1635","1298","1167",""
"MA200-0416","27844","83","1","1.10","1.4","2023-05-25T10:52:30","120","2023/05/25","10:52:30","-15.827600836753845","35.08736465126276","1.0","14","30","64","44","-20576","-11860","-10768","11","150","149.59","115.54","34.05","37.88","32.0","18.32","89652","37.56","DUALSPOT-UV-BLUE-GREEN-RED-IR","677635","683907","908938","22.874726","7.337959","0.009114","676619","870376","766332","17.871076","5.473066","-0.082431","773305","880241","817176","15.523279","4.552114","-0.038545","777511","903464","863910","12.844027","3.525090","-0.635140","679661","842805","955283","9.778194","2.746270","-0.160371","2045","2411","2584","1457","855","589","1355","997","848","1246","440","136","1571","881","612",""
"MA200-0416","27845","83","1","1.10","1.4","2023-05-25T10:53:00","120","2023/05/25","10:53:00","-15.827688336372375","35.087063647806644","1.1","14","30","64","44","-21164","-10712","-12152","11","150","149.59","115.17","34.42","37.92","31.8","18.30","89668","37.56","DUALSPOT-UV-BLUE-GREEN-RED-IR","678014","684466","909799","22.912332","7.348972","-0.001338","671552","863995","760740","17.895406","5.480396","0.000647","773458","880545","817506","15.544306","4.557562","-0.014928","778876","905146","865527","12.857883","3.526687","-0.428801","680171","843526","956124","9.791801","2.750135","-0.007563","1917","1879","1860","1566","1578","1584","1515","1313","1230","1207","465","185","1650","1568","1536",""
"MA200-0416","27846","83","1","1.10","1.4","2023-05-25T10:53:30","120","2023/05/25","10:53:30","-15.827792048454285","35.08677048236132","1.2","14","30","64","44","-19800","-12340","-10720","11","150","150.56","115.25","35.31","37.96","31.8","18.30","89692","37.63","DUALSPOT-UV-BLUE-GREEN-RED-IR","678182","684815","910383","22.949660","7.362602","0.009600","672228","864983","761681","17.918772","5.486667","-0.012150","773043","880198","817210","15.561644","4.560775","-0.081433","778305","904632","865064","12.872402","3.527546","0.773328","679416","842644","955155","9.803982","2.752822","-0.065046","1902","2267","2439","1502","1316","1234","1248","755","550","1263","243","-141","1476","1062","901",""
"MA200-0416","27847","83","1","1.10","1.4","2023-05-25T10:54:00","120","2023/05/25","10:54:00","-15.82788771390915","35.08647082000971","1.3","14","30","64","43","-19587","-12145","-9254","11","150","149.63","115.47","34.16","38.01","31.7","18.32","89712","37.63","DUALSPOT-UV-BLUE-GREEN-RED-IR","670084","677318","900934","23.110664","7.420028","0.010064","670751","863562","760603","17.996024","5.510133","0.002075","769211","876164","813582","15.617812","4.575580","-0.011656","777818","904316","864827","12.910170","3.535336","-0.055370","679428","842827","955446","9.831802","2.758026","-0.106265","8189","9874","10671","4959","5092","5151","4038","3598","3416","3281","2288","1913","3365","2128","1645",""
"MA200-0416","27848","83","1","1.10","1.4","2023-05-25T10:54:30","120","2023/05/25","10:54:30","-15.82800406217575","35.08620881289244","1.2","14","30","64","43","-20775","-12133","-9108","11","150","150.23","115.55","34.67","38.04","31.5","18.25","89740","37.63","DUALSPOT-UV-BLUE-GREEN-RED-IR","671422","678787","902995","23.140252","7.431843","0.014157","671765","865016","761902","18.017354","5.516792","0.003047","769953","877112","814495","15.634558","4.580719","0.001972","779323","906167","866612","12.922829","3.538197","-0.039839","675772","838398","950394","9.841644","2.761202","0.009670","1503","2001","2236","1368","1423","1447","1203","1230","1241","1099","827","725","1189","1279","1314",""
"MA200-0416","27849","83","1","1.10","1.4","2023-05-25T10:55:00","120","2023/05/25","10:55:00","-15.828064143657684","35.085899479687214","1.2","14","30","64","43","-21428","-12256","-9216","11","150","150.62","115.43","35.19","38.07","31.3","18.15","89744","37.69","DUALSPOT-UV-BLUE-GREEN-RED-IR","671054","678543","902725","23.166056","7.440309","0.004363","671759","865087","762033","18.033946","5.522632","0.010122","770107","877409","814824","15.648733","4.583752","-0.046545","779815","906791","867199","12.930689","3.537726","0.196859","676247","839036","951178","9.850544","2.761756","1.056662","1313","1413","1460","1065","1230","1303","1019","715","589","683","-134","-442","1077","219","-114",""
"MA200-0416","27850","83","1","1.10","1.4","2023-05-25T10:55:30","120","2023/05/25","10:55:30","-15.828218221664429","35.085690312087536","1.0","14","30","64","43","-21248","-12488","-9720","11","150","149.96","115.24","34.73","38.09","31.1","18.06","89740","37.69","DUALSPOT-UV-BLUE-GREEN-RED-IR","671298","678909","903293","23.191648","7.449095","0.007332","671565","864963","761949","18.052648","5.526573","-0.042452","769895","877247","814688","15.663491","4.587424","-0.020903","779354","906374","866833","12.942661","3.539336","-0.248004","676001","838791","950899","9.859367","2.763877","-0.039574","1304","1485","1571","1203","841","681","1063","877","800","1042","464","247","1069","853","769",""
"MA200-0416","27851","83","1","1.10","1.4","2023-05-25T10:56:00","120","2023/05/25","10:56:00","-15.828357994556427","35.08564832061529","0.9","14","30","64","43","-19856","-13540","-12112","11","150","149.90","114.96","34.94","38.12","30.8","17.96","89740","37.69","DUALSPOT-UV-BLUE-GREEN-RED-IR","671093","678810","903234","23.218182","7.458566","0.008810","671754","865304","762321","18.070302","5.533224","0.014215","769854","877317","814802","15.676485","4.591173","-0.004918","778426","905358","865870","12.952869","3.541326","-0.075127","679217","842841","955509","9.869583","2.766364","-0.038793","1355","1592","1704","1138","1411","1531","938","890","871","890","571","451","1241","994","897",""
"MA200-0416","27852","83","1","1.10","1.4","2023-05-25T10:56:30","120","2023/05/25","10:56:30","-15.828638017177582","35.08557964861393","1.3","14","30","64","43","-20920","-11816","-10770","11","150","149.90","115.51","34.38","38.15","30.6","17.86","89752","37.69","DUALSPOT-UV-BLUE-GREEN-RED-IR","675903","683835","910040","23.251162","7.469591","0.006601","670753","864140","761318","18.091474","5.539100","-0.005966","771793","879673","817037","15.696584","4.596508","-0.011523","778083","905036","865563","12.964261","3.542548","-0.566913","678658","842227","954846","9.880230","2.767662","-0.461621","1676","1883","1980","1358","1267","1226","1444","1288","1223","989","356","118","1287","527","231",""
"MA200-0416","27853","83","1","1.10","1.4","2023-05-25T10:57:00","120","2023/05/25","10:57:00","-15.8287855386734","35.08566414564848","0.8","14","30","64","43","-21168","-11724","-9912","11","150","149.58","115.15","34.43","38.16","30.4","17.77","89768","37.63","DUALSPOT-UV-BLUE-GREEN-RED-IR","675208","683245","909358","23.280488","7.479891","0.008789","670210","863575","760877","18.113598","5.545599","-0.001454","771580","879495","816863","15.712081","4.600811","-0.007136","777966","905022","865596","12.978902","3.545600","-0.055052","678496","842064","954676","9.890091","2.770689","0.003602","1495","1757","1880","1424","1398","1387","1117","1037","1004","1275","889","744","1196","1228","1240",""
"MA200-0416","27854","83","1","1.10","1.4","2023-05-25T10:57:30","120","2023/05/25","10:57:30","-15.828950226306915","35.085874147713184","0.7","14","30","64","43","-22584","-11004","2648","11","150","149.59","115.09","34.51","38.17","30.3","17.70","89792","37.63","DUALSPOT-UV-BLUE-GREEN-RED-IR","673435","681632","907311","23.317240","7.492914","0.009064","668824","861945","759519","18.137246","5.553282","0.005933","769780","877557","815129","15.732969","4.606021","-0.019832","774337","900949","861729","12.994925","3.549796","-0.016226","676566","839760","952091","9.900890","2.772028","-0.443539","1875","2216","2378","1523","1650","1706","1506","1253","1148","1396","1220","1153","1310","542","243",""
"MA200-0416","27855","83","1","1.10","1.4","2023-05-25T10:58:00","120","2023/05/25","10:58:00","-15.829109847545624","35.086025819182396","0.9","14","30","64","43","-23660","-10000","6200","11","150","149.90","115.31","34.58","38.18","30.2","17.66","89720","37.63","DUALSPOT-UV-BLUE-GREEN-RED-IR","674224","682593","908697","23.353894","7.504104","0.001110","669799","863351","760826","18.164296","5.561834","0.004002","770427","878462","816031","15.754709","4.612869","0.004229","775967","902900","863634","13.010886","3.553825","-0.021380","677275","840718","953196","9.914063","2.775634","-0.013849","1866","1900","1916","1739","1833","1875","1565","1644","1676","1388","1168","1086","1595","1457","1403",""
"MA200-0416","27856","83","1","1.10","1.4","2023-05-25T10:58:30","120","2023/05/25","10:58:30","-15.829295873641968","35.08599615097046","1.1","14","30","64","43","-21608","-12495","-9408","11","150","149.51","114.92","34.59","38.17","30.1","17.61","89712","37.63","DUALSPOT-UV-BLUE-GREEN-RED-IR","674106","682651","908897","23.389730","7.516746","0.008645","669522","863127","760661","18.188714","5.570537","0.011531","770742","878929","816522","15.774143","4.618543","-0.002798","775989","903047","863795","13.025375","3.557003","-0.045761","677684","841299","953875","9.923107","2.777691","-0.051880","1831","2146","2295","1575","1865","1993","1403","1362","1344","1264","921","792","1099","830","725",""
"MA200-0416","27857","83","1","1.10","1.4","2023-05-25T10:59:00","120","2023/05/25","10:59:00","-15.829506576061249","35.08588080853224","1.0","14","30","64","42","-21660","-12176","-10956","11","150","150.09","115.27","34.82","38.18","30.0","17.55","89720","37.63","DUALSPOT-UV-BLUE-GREEN-RED-IR","673908","682581","908909","23.421780","7.528349","0.009658","669051","862659","760320","18.209938","5.577909","0.009753","770554","878813","816439","15.790751","4.623193","-0.007324","775984","903091","863880","13.038088","3.561628","0.016835","677359","840960","953497","9.933666","2.779813","-0.087306","1633","1957","2110","1365","1569","1659","1196","1108","1072","1106","1332","1417","1279","851","685",""
"MA200-0416","27858","83","1","1.10","1.4","2023-05-25T10:59:30","120","2023/05/25","10:59:30","-15.829737484455109","35.08572515100241","1.1","14","30","64","43","-21728","-12696","-9532","11","150","150.23","115.55","34.67","38.19","29.8","17.48","89736","37.63","DUALSPOT-UV-BLUE-GREEN-RED-IR","673316","682144","908419","23.453186","7.538738","0.005593","673882","869008","765949","18.230694","5.583286","-0.013454","770118","878416","816109","15.809155","4.629189","0.006844","775056","902153","862989","13.052182","3.563702","-0.179556","676886","840419","952899","9.944183","2.782351","-0.037562","1596","1759","1837","1331","1149","1069","1322","1435","1482","1223","600","365","1271","1022","925",""
"MA200-0416","27859","83","1","1.10","1.4","2023-05-25T11:00:00","120","2023/05/25","11:00:00","-15.82993483543396","35.08574981987476","0.7","14","30","64","42","-20748","-12944","-3100","11","150","149.90","115.63","34.26","38.19","29.7","17.41","89728","37.63","DUALSPOT-UV-BLUE-GREEN-RED-IR","670699","679620","905177","23.489330","7.552974","0.013911","671696","866359","763671","18.255518","5.591942","0.011115","768800","877030","814868","15.828080","4.635996","0.014668","773290","900149","861116","13.065801","3.568739","0.019475","675637","838957","951289","9.954388","2.784637","-0.051459","1835","2440","2727","1591","1872","1996","1358","1649","1769","1181","1474","1584","1232","932","815",""
"MA200-0416","27860","83","1","1.10","1.4","2023-05-25T11:00:30","120","2023/05/25","11:00:30","-15.830060064792633","35.08592397719622","0.8","14","30","64","43","-22476","-12384","-4707","11","150","150.16","115.39","34.77","38.19","29.6","17.35","89700","37.63","DUALSPOT-UV-BLUE-GREEN-RED-IR","672387","681496","907833","23.529784","7.567104","0.008083","672621","867700","764921","18.281432","5.599594","-0.001604","769683","878183","815991","15.849512","4.642374","-0.001116","774952","902197","863129","13.082316","3.572482","-0.039520","676584","840192","952728","9.966026","2.788220","0.002947","2059","2387","2542","1664","1631","1617","1541","1523","1515","1435","1080","946","1408","1439","1451",""
"MA200-0416","27861","83","1","1.10","1.4","2023-05-25T11:01:00","120","2023/05/25","11:01:00","-15.830227851867676","35.086120650172234","1.1","14","30","64","43","-20288","-13084","-8204","11","150","149.70","115.12","34.58","38.19","29.5","17.33","89664","37.63","DUALSPOT-UV-BLUE-GREEN-RED-IR","672328","681632","908137","23.566786","7.580923","0.011197","672940","868243","765476","18.307058","5.608951","0.012947","770181","878894","816701","15.870379","4.648340","-0.004618","774160","901384","862393","13.097533","3.577500","0.009061","676115","839669","952176","9.976227","2.790841","-0.025217","1887","2347","2564","1650","2005","2163","1505","1432","1402","1326","1456","1504","1237","1058","989",""
"MA200-0416","27862","83","1","1.10","1.4","2023-05-25T11:01:30","120","2023/05/25","11:01:30","-15.830084085464478","35.086285315454006","0.7","14","30","64","42","-20383","-12662","-9562","11","150","149.54","115.30","34.25","38.19","29.5","17.33","89644","37.63","DUALSPOT-UV-BLUE-GREEN-RED-IR","670875","680320","906491","23.606370","7.594757","0.008748","671824","866976","764412","18.333682","5.616403","-0.004961","769112","877800","815758","15.893994","4.655564","0.002548","772650","899690","860818","13.114638","3.581833","-0.019352","675177","838588","950970","9.989117","2.794262","-0.017389","2016","2372","2541","1711","1612","1569","1700","1751","1772","1488","1269","1187","1561","1395","1330",""
"MA200-0416","27863","83","1","1.10","1.4","2023-05-25T11:02:00","120","2023/05/25","11:02:00","-15.829887449741364","35.08647248893976","1.1","14","30","64","42","-21640","-13323","-8864","11","150","149.70","115.00","34.70","38.19","29.6","17.35","89632","37.63","DUALSPOT-UV-BLUE-GREEN-RED-IR","672739","682341","909293","23.639328","7.606683","0.009603","673267","868991","766226","18.357582","5.623817","0.002119","769609","878464","816436","15.913114","4.661250","-0.001307","774887","902454","863457","13.130126","3.586471","-0.000823","676793","840669","953374","9.998894","2.796425","-0.058749","1683","2018","2177","1540","1584","1603","1380","1360","1352","1351","1340","1336","1187","871","748",""
"MA200-0416","27864","83","1","1.10","1.4","2023-05-25T11:02:30","120","2023/05/25","11:02:30","-15.82974499464035","35.08661064505577","1.0","15","30","64","42","-21362","-13091","-9337","11","150","150.16","115.27","34.89","38.19","29.6","17.39","89636","37.63","DUALSPOT-UV-BLUE-GREEN-RED-IR","672236","682367","909618","23.739898","7.635792","-0.002895","668104","862805","760955","18.428298","5.643261","-0.008246","768887","878090","816202","15.973768","4.677284","-0.013640","774563","902428","863554","13.176613","3.596621","-0.047119","676129","840093","952777","10.031624","2.804171","-0.043251","5124","4900","4794","4547","4131","3947","4368","3815","3586","4045","2919","2496","3966","3101","2766",""
"MA200-0416","27865","83","1","1.10","1.4","2023-05-25T11:03:00","120","2023/05/25","11:03:00","-15.829527854919434","35.0867969840765","1.6","15","30","64","42","-21750","-11883","-8816","11","150","150.35","115.17","35.18","38.20","29.7","17.42","89624","37.63","DUALSPOT-UV-BLUE-GREEN-RED-IR","671211","682036","909593","23.900630","7.684047","-0.001092","667580","862814","761211","18.547410","5.676609","-0.007377","769472","879368","817595","16.072998","4.702806","-0.017901","774202","902549","863819","13.258631","3.617132","-0.025074","676372","840717","953598","10.085991","2.816759","-0.050159","8197","8055","7988","7667","7026","6744","7153","6022","5554","7144","5848","5362","6594","4997","4379",""
"MA200-0416","27866","83","1","1.10","1.4","2023-05-25T11:03:30","120","2023/05/25","11:03:30","-15.829344153404236","35.08694280683994","1.6","15","30","64","42","-21508","-11912","-9232","11","150","149.62","115.40","34.22","38.20","29.6","17.40","89624","37.63","DUALSPOT-UV-BLUE-GREEN-RED-IR","670783","681739","909285","23.929634","7.694666","0.010743","667037","862209","760741","18.567240","5.683296","0.008904","769061","879012","817315","16.089668","4.708666","0.012913","775652","904271","865531","13.271293","3.622585","0.028913","677044","841591","954628","10.096752","2.820502","0.019188","1476","1822","1986","1273","1448","1526","1199","1421","1513","1100","1599","1786","1302","1528","1615",""
"MA200-0416","27867","83","1","1.10","1.4","2023-05-25T11:04:00","120","2023/05/25","11:04:00","-15.82912266254425","35.08704214543104","0.9","15","30","64","42","-21964","-11788","-7868","11","150","150.03","115.12","34.91","38.20","29.6","17.36","89616","37.63","DUALSPOT-UV-BLUE-GREEN-RED-IR","671234","682360","910236","23.965560","7.707243","0.007734","666995","862286","760884","18.593238","5.693126","0.014103","768732","878754","817137","16.111713","4.715926","0.006718","775236","903891","865205","13.289147","3.627265","-0.017296","676561","841062","954058","10.108292","2.824115","0.004270","1833","2115","2250","1674","2087","2269","1589","1726","1782","1556","1344","1265","1400","1445","1463",""
"MA200-0416","27868","83","1","1.10","1.4","2023-05-25T11:04:30","120","2023/05/25","11:04:30","-15.828977704048157","35.08720314502716","0.9","15","30","64","42","-20866","-13129","-9795","11","150","149.70","114.88","34.82","38.21","29.4","17.30","89604","37.63","DUALSPOT-UV-BLUE-GREEN-RED-IR","669196","680571","908061","24.022786","7.728779","0.010932","665456","860570","759497","18.634802","5.708801","0.013975","767143","877149","815753","16.146223","4.728944","0.015912","773132","901657","863200","13.318446","3.637766","0.015075","675237","839632","952505","10.133736","2.830683","-0.025587","2925","3632","3967","2682","3337","3626","2494","3103","3356","2558","3026","3201","3094","2634","2457",""
"MA200-0416","27869","83","1","1.10","1.4","2023-05-25T11:05:00","120","2023/05/25","11:05:00","-15.828925728797913","35.08733581751585","0.5","15","30","64","42","-20036","-11888","-11944","11","150","150.11","115.30","34.82","38.20","29.4","17.27","89592","37.63","DUALSPOT-UV-BLUE-GREEN-RED-IR","669857","681965","910449","24.163106","7.777670","0.007652","666680","862770","761692","18.722918","5.738174","0.006960","767297","877808","816575","16.214680","4.751366","0.006598","773878","902879","864489","13.368100","3.652673","-0.000604","675614","840329","953392","10.170612","2.839992","-0.028975","7148","8248","8770","5665","6254","6514","4929","5347","5520","4320","4295","4286","4468","3735","3451",""
"MA200-0416","27870","83","1","1.10","1.4","2023-05-25T11:05:30","120","2023/05/25","11:05:30","-15.828905701637268","35.087401650846004","0.3","16","30","64","42","-21324","-11020","-9220","11","150","149.83","115.12","34.71","38.21","29.6","17.36","89596","37.63","DUALSPOT-UV-BLUE-GREEN-RED-IR","665871","680569","910610","24.794734","8.006023","0.009157","663049","860825","761321","19.234492","5.915981","0.009387","764468","877027","817084","16.651600","4.900325","0.009375","772025","902822","865451","13.723922","3.770411","0.008616","674466","840274","954062","10.414146","2.916040","0.004513","32227","38637","41693","32944","37971","40203","31511","35624","37340","31011","34027","35169","29553","30602","31010",""
"MA200-0416","27871","83","1","1.10","1.4","2023-05-25T11:06:00","120","2023/05/25","11:06:00","-15.828908681869507","35.087355986237526","0.1","16","30","64","42","-21004","-11576","-10700","11","150","149.94","115.00","34.93","38.21","29.8","17.49","89592","37.63","DUALSPOT-UV-BLUE-GREEN-RED-IR","658178","674101","903108","25.090970","8.119901","0.011233","662120","861042","762185","19.455532","5.996633","0.011578","763309","876886","817538","16.834440","4.966497","0.012683","770751","902296","865424","13.865450","3.818941","0.010885","673593","839776","953851","10.510605","2.950086","0.017481","15129","19146","21068","14248","17114","18391","13199","15726","16783","12346","13937","14541","11716","13614","14354",""
"MA200-0416","27872","83","1","1.10","1.4","2023-05-25T11:06:30","120","2023/05/25","11:06:30","-15.828987836837769","35.08721198141575","0.3","14","30","64","42","-20772","-10652","8196","11","150","149.90","115.27","34.62","38.21","30.1","17.67","89596","37.63","DUALSPOT-UV-BLUE-GREEN-RED-IR","657211","673884","903389","25.316668","8.203344","0.010060","661102","860374","761938","19.616786","6.054575","0.011276","760316","874016","815134","16.965448","5.010122","0.007880","771289","903417","866717","13.968446","3.851824","0.005733","674024","840640","954980","10.578648","2.972629","0.011857","11500","14156","15429","10370","12406","13315","9435","10461","10891","8964","9529","9744","8245","9095","9428",""
