"Serial number","Datum ID","Session ID","Data format version","Firmware version","App version","Date / time local","Timezone offset (mins)","Date local (yyyy/MM/dd)","Time local (hh:mm:ss)","GPS lat (ddmm.mmmmm)","GPS long (dddmm.mmmmm)","GPS speed (km/h)","GPS sat count","Timebase (s)","Status","Battery remaining (%)","Accel X","Accel Y","Accel Z","Tape position","Flow setpoint (mL/min)","Flow total (mL/min)","Flow1 (mL/min)","Flow2 (mL/min)","Sample temp (C)","Sample RH (%)","Sample dewpoint (C)","Internal pressure (Pa)","Internal temp (C)","Optical config","UV Sen1","UV Sen2","UV Ref","UV ATN1","UV ATN2","UV K","Blue Sen1","Blue Sen2","Blue Ref","Blue ATN1","Blue ATN2","Blue K","Green Sen1","Green Sen2","Green Ref","Green ATN1","Green ATN2","Green K","Red Sen1","Red Sen2","Red Ref","Red ATN1","Red ATN2","Red K","IR Sen1","IR Sen2","IR Ref","IR ATN1","IR ATN2","IR K","UV BC1","UV BC2","UV BCc","Blue BC1","Blue BC2","Blue BCc","Green BC1","Green BC2","Green BCc","Red BC1","Red BC2","Red BCc","IR BC1","IR BC2","IR BCc","Readable status"
"MA200-0416","19890","57","1","1.10","1.4","2023-05-04T11:04:02","120","2023/05/04","11:04:02","-15.795641124248505","35.0027436662931","0.0","17","30","66","70","566","24120","-6270","17","150","149.20","117.27","31.93","32.08","0.0","-203.53","90644","31.13","DUALSPOT-UV-BLUE-GREEN-RED-IR","902486","772810","938505","0.000000","0.000000","0.000000","876610","994003","813952","0.000000","0.000000","0.000000","946980","964507","841384","0.000000","0.000000","0.000000","968454","1025994","931740","0.000000","0.000000","0.000000","756847","869202","954403","0.000000","0.000000","0.000000","","","","","","","","","","","","","","","","Start up"
"MA200-0416","19891","57","1","1.10","1.4","2023-05-04T11:04:32","120","2023/05/04","11:04:32","-15.795628845691681","35.00274849962443","0.0","17","30","66","70","836","24052","-6475","17","150","149.70","115.91","33.79","32.08","41.4","17.33","90644","31.19","DUALSPOT-UV-BLUE-GREEN-RED-IR","874966","749659","910743","0.000000","0.000000","0.000000","821609","931724","763343","0.000000","0.000000","0.000000","918028","935169","816060","0.000000","0.000000","0.000000","897613","951162","864156","0.000000","0.000000","0.000000","756149","868843","954202","0.000000","0.000000","0.000000","","","","","","","","","","","","","","","","Start up"
"MA200-0416","19892","57","1","1.10","1.4","2023-05-04T11:05:02","120","2023/05/04","11:05:02","-15.795625388622284","35.00275283283554","0.0","17","30","66","70","738","23965","-6315","17","150","149.61","116.70","32.90","32.08","40.6","17.02","90648","31.31","DUALSPOT-UV-BLUE-GREEN-RED-IR","865783","742009","901582","0.000000","0.000000","0.000000","820481","930601","762488","0.000000","0.000000","0.000000","917374","934634","815644","0.000000","0.000000","0.000000","897383","951073","864109","0.000000","0.000000","0.000000","751381","863440","948288","0.000000","0.000000","0.000000","","","","","","","","","","","","","","","","Start up"
"MA200-0416","19893","57","1","1.10","1.4","2023-05-04T11:05:32","120","2023/05/04","11:05:32","-15.795623660087585","35.00275099975988","0.0","17","30","66","70","784","24012","-6384","17","150","150.17","116.82","33.36","32.09","40.0","16.78","90652","31.38","DUALSPOT-UV-BLUE-GREEN-RED-IR","868343","744464","904667","0.000000","0.000000","0.000000","822756","933435","764837","0.000000","0.000000","0.000000","915289","932646","814012","0.000000","0.000000","0.000000","893042","946604","860104","0.000000","0.000000","0.000000","753607","866124","951248","0.000000","0.000000","0.000000","","","","","","","","","","","","","","","","Start up"
"MA200-0416","19894","57","1","1.10","1.4","2023-05-04T11:06:02","120","2023/05/04","11:06:02","-15.795624136924744","35.00275016645901","0.1","18","30","66","69","742","23946","-6538","17","150","150.40","116.90","33.50","32.09","39.5","16.61","90656","31.44","DUALSPOT-UV-BLUE-GREEN-RED-IR","869757","745862","906445","0.000000","0.000000","0.000000","817953","928112","760551","0.000000","0.000000","0.000000","914302","931771","813243","0.000000","0.000000","0.000000","892603","946198","859785","0.000000","0.000000","0.000000","753160","865673","950756","0.000000","0.000000","0.000000","","","","","","","","","","","","","","","","Start up"
"MA200-0416","19895","57","1","1.10","1.4","2023-05-04T11:06:32","120","2023/05/04","11:06:32","-15.795619368553162","35.00274433288723","0.0","18","30","64","69","744","23996","-6420","17","150","150.15","116.88","33.26","32.10","39.3","16.51","90652","31.50","DUALSPOT-UV-BLUE-GREEN-RED-IR","870230","746467","907248","0.000000","0.000000","0.000000","817759","927979","760480","0.000000","0.000000","0.000000","915150","932732","814162","0.000000","0.000000","0.000000","894308","948063","861499","0.000000","0.000000","0.000000","754109","866801","952026","0.000000","0.000000","0.000000","","","","","","","","","","","","","","","",""
"MA200-0416","19896","57","1","1.10","1.4","2023-05-04T11:07:02","120","2023/05/04","11:07:02","-15.795625865459442","35.00274999975227","0.1","18","30","64","69","764","23856","-6772","17","150","149.70","116.87","32.83","32.11","39.1","16.44","90656","31.50","DUALSPOT-UV-BLUE-GREEN-RED-IR","870723","747059","908046","0.033334","0.008941","0.000000","818579","929062","761392","0.018131","0.003904","0.000000","916360","934040","815325","0.016063","0.004470","0.000000","893799","947621","861103","0.011479","0.002092","0.000000","754677","867554","952850","0.007810","0.001925","0.000000","1675","1599","1675","1150","881","1150","1141","1130","1141","985","639","985","933","819","933",""
"MA200-0416","19897","57","1","1.10","1.4","2023-05-04T11:07:32","120","2023/05/04","11:07:32","-15.79563182592392","35.002744999714196","0.1","18","30","64","69","924","24056","-7632","17","150","149.80","116.93","32.86","32.12","38.9","16.38","90652","31.50","DUALSPOT-UV-BLUE-GREEN-RED-IR","868725","745527","906259","0.066606","0.018617","0.000000","817089","927495","760152","0.037384","0.010311","0.000000","914429","932168","813721","0.029093","0.009298","0.000000","892188","945982","859668","0.021970","0.005859","0.000000","753177","865831","950973","0.013154","0.002369","0.000000","1671","1729","1671","1220","1445","1220","925","1219","925","900","1149","900","638","188","638",""
"MA200-0416","19898","57","1","1.10","1.4","2023-05-04T11:08:02","120","2023/05/04","11:08:02","-15.795630693435669","35.00273733283393","0.0","18","30","64","69","851","23880","-6452","17","150","150.49","117.26","33.23","32.12","38.7","16.30","90652","31.50","DUALSPOT-UV-BLUE-GREEN-RED-IR","869623","746498","907509","0.098719","0.025644","0.000000","818567","929280","761673","0.055086","0.014846","0.000000","914989","932844","814323","0.041389","0.011814","0.000000","894125","948064","861591","0.031679","0.008905","0.000000","753924","866750","951999","0.019775","0.004152","0.000000","1608","1242","1608","1119","1011","1119","870","628","870","830","919","830","788","749","788",""
"MA200-0416","19899","57","1","1.10","1.4","2023-05-04T11:08:32","120","2023/05/04","11:08:32","-15.795672357082367","35.002764999633655","0.2","18","30","64","69","-5723","23242","-6203","17","150","150.30","117.01","33.29","32.13","38.6","16.26","90656","31.56","DUALSPOT-UV-BLUE-GREEN-RED-IR","870581","747461","908782","0.131763","0.035184","0.000000","818544","929349","761775","0.072318","0.022190","0.000000","915427","933322","814816","0.054883","0.017690","0.000000","894389","948387","861921","0.041949","0.014352","0.000000","754552","867549","952874","0.026897","0.003693","0.000000","1658","1683","1658","1091","1635","1091","957","1465","957","880","1641","880","850","-192","850",""
"MA200-0416","19900","57","1","1.10","1.4","2023-05-04T11:09:02","120","2023/05/04","11:09:02","-15.79600614309311","35.00283983303234","3.0","18","30","64","69","-20972","12252","-3264","17","150","149.43","116.59","32.84","32.13","38.5","16.22","90656","31.56","DUALSPOT-UV-BLUE-GREEN-RED-IR","870422","747561","908916","0.167930","0.043355","0.000000","818785","929842","762150","0.093781","0.024717","0.000000","915372","933530","814927","0.072724","0.020080","0.000000","894554","948749","862189","0.054848","0.015318","0.000000","754762","867695","953110","0.033264","0.008289","0.000000","1822","1461","1822","1364","570","1364","1270","604","1270","1109","295","1109","762","1954","762",""
"MA200-0416","19901","57","1","1.10","1.4","2023-05-04T11:09:32","120","2023/05/04","11:09:32","-15.79621547460556","35.00334283313714","2.8","18","30","64","69","-12708","16776","-12100","17","150","149.67","117.01","32.66","32.14","38.4","16.19","90688","31.56","DUALSPOT-UV-BLUE-GREEN-RED-IR","868665","746322","907622","0.211956","0.053417","0.000000","817368","928398","761112","0.119864","0.029586","0.000000","914995","933241","814817","0.092506","0.020623","0.000000","892863","947044","860801","0.070863","0.017536","0.000000","753583","866477","951809","0.041696","0.011432","0.000000","2210","1809","2210","1652","1105","1652","1403","137","1403","1373","681","1373","1006","1344","1006",""
"MA200-0416","19902","57","1","1.10","1.4","2023-05-04T11:10:02","120","2023/05/04","11:10:02","-15.79592502117157","35.00403349939734","3.9","18","30","64","69","-13796","19938","-3846","17","150","149.72","116.94","32.79","32.14","38.1","16.07","90752","31.56","DUALSPOT-UV-BLUE-GREEN-RED-IR","870101","747866","909714","0.286879","0.081327","0.000000","818639","930131","762655","0.171709","0.051010","0.000000","915320","933778","815390","0.135272","0.041121","0.000000","894707","949172","862803","0.106722","0.034022","0.000000","754740","867947","953484","0.069114","0.019158","0.000000","3763","5000","3763","3286","4844","3286","3036","5190","3036","3076","5045","3076","3275","3291","3275",""
"MA200-0416","19903","57","1","1.10","1.4","2023-05-04T11:10:32","120","2023/05/04","11:10:32","-15.794242441654205","35.0041718329303","11.8","18","30","64","69","-15428","18448","-3728","17","150","150.28","117.09","33.20","32.15","38.0","16.04","90860","31.63","DUALSPOT-UV-BLUE-GREEN-RED-IR","869616","747896","909878","0.353826","0.094867","0.000000","818684","930535","763061","0.215160","0.058942","0.000000","914773","933475","815241","0.171089","0.048470","0.000000","894808","949493","863148","0.134527","0.038725","0.000000","754571","867902","953455","0.085714","0.023060","0.000000","3358","2395","3358","2751","1771","2751","2539","1837","2539","2382","1421","2382","1980","1642","1980",""
"MA200-0416","19904","57","1","1.10","1.4","2023-05-04T11:11:02","120","2023/05/04","11:11:02","-15.791631817817688","35.00419433275238","9.1","18","30","64","69","-12364","20892","-2692","17","150","150.43","117.10","33.32","32.15","37.9","15.99","90724","31.63","DUALSPOT-UV-BLUE-GREEN-RED-IR","868055","746780","908659","0.406656","0.110330","0.000000","816657","928383","761350","0.246364","0.069677","0.000000","914997","933867","815582","0.195235","0.056034","0.000000","894259","949024","862756","0.153172","0.045943","0.000000","754650","868063","953653","0.099285","0.024750","0.000000","2649","2725","2649","1975","2388","1975","1711","1884","1711","1597","2173","1597","1618","708","1618",""
"MA200-0416","19905","57","1","1.10","1.4","2023-05-04T11:11:32","120","2023/05/04","11:11:32","-15.789619147777557","35.00463333306834","5.7","18","30","64","69","-13480","20184","-2732","17","150","149.86","116.86","33.00","32.17","37.7","15.93","90616","31.63","DUALSPOT-UV-BLUE-GREEN-RED-IR","862628","742859","904112","0.471597","0.124254","0.000000","819105","931803","764327","0.291824","0.081819","0.000000","915910","935337","817036","0.230700","0.065898","0.000000","896408","951716","865362","0.179082","0.052864","0.000000","750982","864109","949394","0.117467","0.028782","0.000000","3264","2477","3264","2883","2727","2883","2519","2481","2519","2224","2103","2224","2173","1706","2173",""
"MA200-0416","19906","57","1","1.10","1.4","2023-05-04T11:12:02","120","2023/05/04","11:12:02","-15.788684725761414","35.0045209992677","6.0","18","30","64","69","-13231","20256","-3471","17","150","150.23","117.22","33.00","32.17","37.5","15.86","90616","31.69","DUALSPOT-UV-BLUE-GREEN-RED-IR","860494","742715","904689","0.814496","0.213726","0.000000","817643","931726","764736","0.547307","0.148052","0.000000","914421","935140","817258","0.442117","0.120562","0.000000","895612","951955","865910","0.349688","0.097155","0.000000","755182","869640","955721","0.234411","0.059120","0.000000","17181","15923","17181","16156","14877","16156","14973","13751","14973","14601","13464","14601","13936","12841","13936",""
"MA200-0416","19907","57","1","1.10","1.4","2023-05-04T11:12:32","120","2023/05/04","11:12:32","-15.788100838661194","35.001984666567296","6.9","18","30","64","69","-14387","19836","-3820","17","150","150.49","117.20","33.29","32.19","37.4","15.84","90768","31.69","DUALSPOT-UV-BLUE-GREEN-RED-IR","858504","741624","903598","0.910975","0.237247","0.000000","816218","930671","763983","0.614333","0.164335","0.000000","913625","934746","817056","0.498217","0.134438","0.000000","893931","950498","864691","0.392705","0.108564","0.000000","749605","863451","949020","0.263938","0.066823","0.000000","4835","4149","4835","4239","3625","4239","3974","3460","3974","3682","3437","3682","3519","3232","3519",""
"MA200-0416","19908","57","1","1.10","1.4","2023-05-04T11:13:02","120","2023/05/04","11:13:02","-15.787819027900696","35.00079783325782","3.0","18","30","64","69","-9300","22912","-3295","17","150","149.64","116.74","32.91","32.20","37.4","15.84","90728","31.75","DUALSPOT-UV-BLUE-GREEN-RED-IR","861062","744347","907135","1.045579","0.271326","0.000000","817940","933086","766109","0.709575","0.188362","0.000000","910303","931700","814476","0.574190","0.153785","0.000000","889357","945938","860637","0.452590","0.122875","0.000000","751652","865985","951842","0.304824","0.075392","0.000000","6772","6082","6772","6048","5412","6048","5403","4881","5403","5146","4363","5146","4892","3637","4892",""
"MA200-0416","19909","57","1","1.10","1.4","2023-05-04T11:13:32","120","2023/05/04","11:13:32","-15.786723673343658","35.00093716662377","2.0","18","30","64","69","-12232","20716","-4180","17","150","149.90","116.91","32.99","32.23","37.4","15.84","90636","31.81","DUALSPOT-UV-BLUE-GREEN-RED-IR","860829","744337","907211","1.082831","0.280883","0.000000","812285","926780","760955","0.732797","0.193405","0.000000","909395","930907","813816","0.592929","0.156987","0.000000","890584","947343","861921","0.465202","0.124758","0.000000","751790","866205","952096","0.311599","0.075458","0.000000","1871","1701","1871","1472","1133","1472","1330","805","1330","1082","572","1082","809","27","809",""
"MA200-0416","19910","57","1","1.10","1.4","2023-05-04T11:14:02","120","2023/05/04","11:14:02","-15.786540269851685","34.99970406293869","5.7","18","30","64","68","-14008","19944","-2712","17","150","149.99","116.55","33.43","32.24","37.4","15.86","90712","31.88","DUALSPOT-UV-BLUE-GREEN-RED-IR","860099","743928","906774","1.119520","0.290182","0.000000","811848","926410","760725","0.752341","0.198196","0.000000","908914","930519","813516","0.608533","0.160783","0.000000","888292","945009","859809","0.477570","0.127179","0.000000","750930","865248","951044","0.319271","0.078523","0.000000","1848","1633","1848","1243","1062","1243","1111","942","1111","1064","726","1064","919","1280","919",""
"MA200-0416","19911","57","1","1.10","1.4","2023-05-04T11:14:32","120","2023/05/04","11:14:32","-15.786355555057526","34.99844777584076","6.0","18","30","64","69","-10968","21888","-3664","17","150","149.92","117.43","32.50","32.26","37.4","15.87","90688","31.88","DUALSPOT-UV-BLUE-GREEN-RED-IR","863306","746860","910468","1.154878","0.299003","0.000000","814096","929115","762941","0.771922","0.202840","0.000000","910653","932375","815182","0.621921","0.164133","0.000000","891909","948931","863388","0.487232","0.130427","0.000000","752605","867219","953215","0.327571","0.079336","0.000000","1768","1594","1768","1236","1059","1236","946","855","946","825","1002","825","987","349","987",""
"MA200-0416","19912","57","1","1.10","1.4","2023-05-04T11:15:02","120","2023/05/04","11:15:02","-15.786339044570923","34.997296929359436","4.2","18","30","64","69","-13244","20144","-3768","17","150","150.49","117.46","33.03","32.28","37.3","15.84","90604","31.94","DUALSPOT-UV-BLUE-GREEN-RED-IR","863573","747295","911064","1.188361","0.308362","0.000000","814777","930019","763715","0.789755","0.207399","0.000000","910966","932828","815577","0.636381","0.167817","0.000000","892612","949752","864182","0.498706","0.132120","0.000000","752872","867571","953632","0.332708","0.080358","0.000000","1674","1664","1674","1125","1023","1125","1022","926","1022","980","514","980","610","432","610",""
"MA200-0416","19913","57","1","1.10","1.4","2023-05-04T11:15:32","120","2023/05/04","11:15:32","-15.78721821308136","34.99731004238129","5.1","18","30","64","68","-12358","20837","-3183","17","150","150.39","117.04","33.36","32.30","37.1","15.82","90648","31.94","DUALSPOT-UV-BLUE-GREEN-RED-IR","856079","741060","903530","1.226511","0.316780","0.000000","815348","930842","764462","0.812095","0.213468","0.000000","912224","934245","816863","0.651812","0.169915","0.000000","893672","950968","865312","0.509351","0.134897","0.000000","753887","868804","955035","0.340711","0.082598","0.000000","1914","1482","1914","1415","1348","1415","1094","522","1094","912","835","912","955","938","955",""
"MA200-0416","19914","57","1","1.10","1.4","2023-05-04T11:16:02","120","2023/05/04","11:16:02","-15.787164330482483","34.99656695127487","2.1","18","30","64","68","-10784","21676","-4124","17","150","150.43","117.38","33.04","32.32","37.0","15.79","90696","32.00","DUALSPOT-UV-BLUE-GREEN-RED-IR","839213","737575","904365","1.757592","0.461601","0.000000","801040","926562","764516","1.267975","0.333726","0.000000","894195","926012","812904","1.018327","0.268644","0.000000","884395","949772","867059","0.800687","0.212014","0.000000","747541","867355","955778","0.559654","0.141268","0.000000","26574","25743","26574","28791","26980","28791","25923","24806","25923","24900","23415","24900","26056","24804","26056",""
"MA200-0416","19915","57","1","1.10","1.4","2023-05-04T11:16:32","120","2023/05/04","11:16:32","-15.786027193069458","34.99618774652481","4.4","18","30","64","68","-11544","21368","-3180","17","150","150.59","117.33","33.26","32.34","36.9","15.77","90628","32.00","DUALSPOT-UV-BLUE-GREEN-RED-IR","835973","738084","906482","3.935250","1.047445","-0.018991","798740","927154","766076","3.082692","0.821714","-0.024472","894468","929560","817084","2.642912","0.699358","0.000000","872825","940311","859420","2.186727","0.575828","0.000000","745061","866513","955583","1.578338","0.407049","0.000000","109017","103454","101436","114662","108763","106619","114958","107510","114958","118521","109739","118521","121289","111626","121289",""
"MA200-0416","19916","57","1","1.10","1.4","2023-05-04T11:17:02","120","2023/05/04","11:17:02","-15.784516632556915","34.995738446712494","6.0","18","30","64","68","-12304","19808","-3080","17","150","150.21","116.63","33.59","32.38","36.8","15.75","90604","32.06","DUALSPOT-UV-BLUE-GREEN-RED-IR","836301","738633","907279","3.982880","1.059406","-0.053037","793274","921034","761067","3.114783","0.827587","-0.316530","895004","930285","817769","2.667743","0.705570","0.000000","873764","941478","860478","2.207237","0.579899","0.000000","745553","867185","956328","1.592405","0.409940","0.000000","2398","2091","1980","2039","1296","1027","1767","1535","1767","1764","1216","1764","1684","1202","1684",""
"MA200-0416","19917","57","1","1.10","1.4","2023-05-04T11:17:32","120","2023/05/04","11:17:32","-15.78309828042984","34.99552804231644","5.8","18","30","64","68","-11124","21320","-2032","17","150","150.49","117.34","33.15","32.40","36.8","15.74","90568","32.06","DUALSPOT-UV-BLUE-GREEN-RED-IR","836460","738900","907723","4.012214","1.067531","-0.006790","793929","921939","761843","3.131550","0.831466","-0.104373","891021","926249","814220","2.682811","0.708807","0.000000","874675","942549","861475","2.217996","0.581753","0.000000","741391","862374","951060","1.600435","0.411427","0.000000","1468","1439","1429","1059","867","798","1066","810","1066","919","561","919","955","626","955",""
"MA200-0416","19918","57","1","1.10","1.4","2023-05-04T11:18:02","120","2023/05/04","11:18:02","-15.782032132148743","34.9955415725708","2.9","18","30","64","68","-11275","21304","-5145","17","150","150.30","117.12","33.18","32.42","36.7","15.72","90576","32.13","DUALSPOT-UV-BLUE-GREEN-RED-IR","837806","740309","909524","4.048117","1.077636","-0.002203","794053","922228","762136","3.152865","0.837003","-0.040414","891770","927141","815057","2.699310","0.711226","0.000000","875166","943178","862079","2.230775","0.584084","0.000000","741659","862781","951541","1.609855","0.413898","0.000000","1800","1788","1784","1349","1237","1196","1169","605","1169","1094","704","1094","1123","1040","1123",""
"MA200-0416","19919","57","1","1.10","1.4","2023-05-04T11:18:32","120","2023/05/04","11:18:32","-15.781572759151459","34.994215309619904","6.3","18","30","64","68","-10960","21816","-4312","17","150","149.73","116.86","32.88","32.45","36.6","15.73","90584","32.13","DUALSPOT-UV-BLUE-GREEN-RED-IR","829316","733934","902131","4.244397","1.129449","-0.021641","793533","922700","762821","3.305715","0.876014","-0.043740","891863","928184","816236","2.828801","0.744563","0.000000","875416","944241","863283","2.336198","0.610137","0.000000","741964","863624","952676","1.686473","0.433331","0.000000","9865","9256","9035","9696","8796","8471","9200","8418","9200","9051","7950","9051","9159","8257","9159",""
"MA200-0416","19920","57","1","1.10","1.4","2023-05-04T11:19:02","120","2023/05/04","11:19:02","-15.781466722488403","34.99242573976517","6.1","18","30","64","68","-12191","20891","-4737","17","150","150.08","117.42","32.66","32.47","36.8","15.82","90664","32.19","DUALSPOT-UV-BLUE-GREEN-RED-IR","836814","740861","910800","4.302280","1.142025","-0.098652","793209","922626","762836","3.346246","0.882822","-0.348113","891960","928549","816615","2.863991","0.750595","0.000000","876552","945665","864600","2.362275","0.613755","0.000000","742511","864400","953524","1.704427","0.436397","0.000000","2895","2261","2032","2558","1545","1182","2488","1533","2488","2228","1111","2228","2136","1311","2136",""
"MA200-0416","19921","57","1","1.10","1.4","2023-05-04T11:19:32","120","2023/05/04","11:19:32","-15.781230032444","34.991009056568146","4.9","18","30","64","67","-11504","21428","-1088","17","150","150.14","116.98","33.16","32.49","37.0","15.94","90668","32.25","DUALSPOT-UV-BLUE-GREEN-RED-IR","820004","731575","901978","4.869577","1.297805","-0.009198","786423","920464","762785","3.808999","1.008403","-0.016231","884048","925203","815272","3.245091","0.852018","-0.027945","869478","942130","862758","2.669185","0.694758","0.000000","738390","862279","952313","1.925355","0.494827","0.000000","28484","27589","27263","29326","28071","27618","27048","25389","24799","26322","24504","26322","26383","24611","26383",""
"MA200-0416","19922","57","1","1.10","1.4","2023-05-04T11:20:02","120","2023/05/04","11:20:02","-15.779892325401306","34.99084919691086","4.6","18","30","64","68","-12636","21080","-5200","17","150","150.19","117.03","33.16","32.53","37.3","16.07","0","0.00","DUALSPOT-UV-BLUE-GREEN-RED-IR","821023","733671","905121","5.585409","1.492590","-0.010249","787070","922384","764741","4.380184","1.161222","-0.018751","881188","923305","813891","3.750890","0.985485","-0.027415","871573","945380","866038","3.095799","0.806868","-0.035152","739441","864131","954561","2.229324","0.572843","0.000000","35927","34501","33981","36182","34164","33436","35882","33416","32537","36573","33919","32984","36284","32866","36284",""
"MA200-0416","19923","57","1","1.10","1.4","2023-05-04T11:20:32","120","2023/05/04","11:20:32","-15.778573274612427","34.99104219675064","4.8","18","30","64","68","-11408","21032","-5152","17","150","150.11","117.20","32.91","32.56","37.4","16.17","0","0.00","DUALSPOT-UV-BLUE-GREEN-RED-IR","820947","734146","905887","5.676386","1.513328","-0.060862","787348","923161","765469","4.434782","1.174234","-0.058474","884333","926889","817178","3.792304","0.995081","-0.081938","872876","946969","867512","3.123152","0.812196","-0.226269","739359","864206","954667","2.249054","0.576229","0.000000","4559","3700","3388","3453","2930","2742","2933","2420","2238","2341","1624","1371","2351","1436","2351",""
"MA200-0416","19924","57","1","1.10","1.4","2023-05-04T11:21:02","120","2023/05/04","11:21:02","-15.77718198299408","34.99115467071533","6.1","18","30","64","68","-11500","21444","-4476","17","150","150.29","117.34","32.95","32.57","37.5","16.19","90776","32.31","DUALSPOT-UV-BLUE-GREEN-RED-IR","822482","735709","907941","5.720051","1.526754","0.020055","782700","917803","761062","4.460049","1.178646","-0.237147","881022","923564","814236","3.813363","0.999164","-0.189491","865653","939275","860482","3.139597","0.814474","-0.690573","739779","864737","955261","2.260910","0.578887","0.000000","2185","2393","2468","1596","992","775","1489","1028","864","1406","693","443","1411","1127","1411",""
"MA200-0416","19925","57","1","1.10","1.4","2023-05-04T11:21:32","120","2023/05/04","11:21:32","-15.77550208568573","34.99132639169693","5.6","18","30","64","68","-13051","20608","-4028","17","150","149.70","116.59","33.11","32.60","37.5","16.25","90860","32.38","DUALSPOT-UV-BLUE-GREEN-RED-IR","822585","735972","908345","5.752320","1.533361","-0.106764","782943","918254","761475","4.480875","1.183622","-0.061331","881111","923796","814446","3.830392","1.001697","-0.474109","866496","940317","861424","3.152948","0.815481","-33.486954","735625","859998","950048","2.270082","0.579704","0.000000","1625","1172","1007","1324","1114","1038","1212","635","430","1148","305","10","1099","344","1099",""
"MA200-0416","19926","57","1","1.10","1.4","2023-05-04T11:22:02","120","2023/05/04","11:22:02","-15.774400353431702","34.99229037761688","4.1","18","30","64","68","-13028","20384","-5344","17","150","149.76","117.23","32.54","32.63","37.6","16.31","91004","32.38","DUALSPOT-UV-BLUE-GREEN-RED-IR","824235","737605","910435","5.783521","1.542175","0.004102","784048","919721","762706","4.499781","1.186864","-0.239729","882361","925241","815774","3.845256","1.004183","-0.302639","867584","941577","862616","3.164440","0.816852","-1.048206","736205","860705","950868","2.278686","0.582996","0.000000","1563","1591","1601","1195","738","575","1052","634","486","983","422","227","1025","1413","1025",""
"MA200-0416","19927","57","1","1.10","1.4","2023-05-04T11:22:32","120","2023/05/04","11:22:32","-15.773167729377747","34.992870569229126","6.7","18","30","64","68","-11760","20992","-4260","17","150","149.89","117.21","32.67","32.67","37.8","16.40","91088","32.44","DUALSPOT-UV-BLUE-GREEN-RED-IR","817469","731787","903311","5.821146","1.551504","-0.030492","784394","920299","763231","4.521990","1.191257","-0.144014","883625","926648","817012","3.862077","1.007485","-0.172842","869839","944124","864973","3.175056","0.817251","2.221256","737863","862728","953108","2.287984","0.583985","0.000000","1885","1676","1601","1404","996","850","1191","838","714","908","122","-150","1108","422","1108",""
"MA200-0416","19928","57","1","1.10","1.4","2023-05-04T11:23:02","120","2023/05/04","11:23:02","-15.771650671958923","34.992872059345245","6.0","18","30","64","68","-12120","20716","-3275","17","150","150.23","116.83","33.40","32.71","37.8","16.45","91144","32.50","DUALSPOT-UV-BLUE-GREEN-RED-IR","819019","733327","905309","5.852275","1.563688","0.057230","786237","922541","765137","4.541546","1.199262","0.081414","883695","926835","817233","3.876465","1.011562","-0.003157","870390","944799","865645","3.187829","0.823116","0.141049","737721","862570","952929","2.295868","0.586630","0.000000","1565","2142","2353","1240","1776","1968","1022","1013","1010","1096","1761","1993","942","1106","942",""
"MA200-0416","19929","57","1","1.10","1.4","2023-05-04T11:23:32","120","2023/05/04","11:23:32","-15.771288692951202","34.99337923526764","3.8","18","30","64","68","-12136","20576","-4396","17","150","149.64","116.34","33.31","32.74","37.8","16.49","91212","32.56","DUALSPOT-UV-BLUE-GREEN-RED-IR","820042","734649","907137","5.921527","1.581146","-0.032891","786881","923612","766086","4.579467","1.206855","-0.150604","877362","920419","811621","3.905923","1.016855","-0.259600","871731","946459","867175","3.211271","0.825793","-1.321113","738884","864096","954669","2.314275","0.590333","0.000000","3496","3078","2926","2416","1690","1430","2102","1319","1043","2021","806","385","2210","1552","2210",""
"MA200-0416","19930","57","1","1.10","1.4","2023-05-04T11:24:02","120","2023/05/04","11:24:02","-15.771198630332947","34.99433356523514","5.1","18","30","64","67","-8723","22838","-3561","17","150","149.76","116.67","33.10","32.78","38.0","16.59","91136","32.63","DUALSPOT-UV-BLUE-GREEN-RED-IR","820113","735057","907797","5.981723","1.596292","-0.030480","781428","917449","761055","4.614371","1.213722","-0.154353","881093","924575","815312","3.933185","1.022082","-0.198129","865995","940416","861635","3.229689","0.827849","-1.368699","739467","864897","955559","2.328245","0.591703","0.000000","3030","2687","2563","2217","1537","1295","1940","1311","1090","1583","623","292","1672","578","1672",""
"MA200-0416","19931","57","1","1.10","1.4","2023-05-04T11:24:32","120","2023/05/04","11:24:32","-15.771633863449097","34.99496752023697","5.0","18","30","64","67","-9624","22356","-3452","17","150","149.57","117.06","32.50","32.83","38.0","16.63","91096","32.69","DUALSPOT-UV-BLUE-GREEN-RED-IR","817633","735377","909410","6.254399","1.671457","-0.001569","781199","918564","762292","4.732829","1.238679","-0.102480","880982","925453","816293","4.018528","1.036834","-0.257552","866462","941740","863010","3.298664","0.839161","-0.368864","739612","865603","956498","2.378227","0.600724","0.000000","13681","13583","13548","7501","5692","5051","6052","3768","2974","5911","3492","2666","5964","3877","5964",""
"MA200-0416","19932","57","1","1.10","1.4","2023-05-04T11:25:02","120","2023/05/04","11:25:02","-15.772691130638123","34.99565386772156","4.4","18","30","64","68","-8984","22532","-5176","17","150","149.49","116.44","33.05","32.87","38.0","16.66","90984","32.75","DUALSPOT-UV-BLUE-GREEN-RED-IR","810131","729858","903187","6.715317","1.803430","0.001757","781658","919777","763474","4.905665","1.279920","-0.056038","880796","925802","816724","4.143215","1.062679","-0.137439","867336","943144","864378","3.398060","0.855654","-0.367394","735128","860686","951085","2.453251","0.613068","0.000000","23250","23453","23528","11004","9250","8631","8890","6492","5664","8564","5006","3809","9000","5217","9000",""
"MA200-0416","19933","57","1","1.10","1.4","2023-05-04T11:25:32","120","2023/05/04","11:25:32","-15.77331405878067","34.99677836894989","3.7","18","30","64","67","-9020","22092","-5028","17","150","149.49","117.08","32.40","32.91","37.8","16.65","90892","32.81","DUALSPOT-UV-BLUE-GREEN-RED-IR","811962","731567","905359","6.726481","1.806690","0.010387","782722","921139","764587","4.917526","1.281379","-0.614235","878055","923002","814268","4.154485","1.063984","-0.861602","869229","945285","866383","3.405958","0.856888","-0.408403","736270","862092","952690","2.460310","0.615003","0.000000","560","590","602","751","333","186","799","334","174","676","382","283","842","834","842",""
"MA200-0416","19934","57","1","1.10","1.4","2023-05-04T11:26:02","120","2023/05/04","11:26:02","-15.773345351219177","34.99692887067795","0.1","18","30","64","67","-8572","22760","-4532","17","150","149.86","116.97","32.89","32.94","37.8","16.65","90884","32.81","DUALSPOT-UV-BLUE-GREEN-RED-IR","813297","732959","907176","6.761712","1.817709","0.019694","778270","916094","760485","4.945296","1.288681","-0.019464","878061","923163","814446","4.174328","1.067662","-0.202469","861841","937390","859150","3.420943","0.858062","-7.583597","736303","862172","952800","2.472166","0.616716","0.000000","1769","1967","2040","1759","1645","1605","1408","928","763","1285","358","47","1415","727","1415",""
"MA200-0416","19935","57","1","1.10","1.4","2023-05-04T11:26:32","120","2023/05/04","11:26:32","-15.772749125957489","34.99719578027725","3.5","18","30","64","67","-11980","20208","-5884","17","150","149.66","117.13","32.53","32.99","37.7","16.67","90900","32.88","DUALSPOT-UV-BLUE-GREEN-RED-IR","814175","734362","909148","6.832300","1.836080","-0.013793","778296","916659","761094","4.998094","1.302867","-0.009230","879008","924618","815812","4.214961","1.076329","-0.107405","863887","939950","861570","3.452021","0.865024","-0.100831","737181","863458","954332","2.495006","0.622250","0.000000","3539","3316","3234","3341","3232","3194","2880","2211","1982","2662","2146","1974","2724","2376","2724",""
"MA200-0416","19936","57","1","1.10","1.4","2023-05-04T11:27:02","120","2023/05/04","11:27:02","-15.772189378738403","34.9977143406868","2.2","18","30","64","67","-14904","19272","-3996","17","150","149.63","117.14","32.49","33.03","37.7","16.68","90960","32.94","DUALSPOT-UV-BLUE-GREEN-RED-IR","812554","734460","909861","7.086405","1.895610","-0.037952","778339","917809","762316","5.145025","1.335424","-0.072438","878685","925095","816459","4.325253","1.101697","-0.068657","864948","941658","863299","3.530717","0.882124","-0.114881","737682","864427","955488","2.553243","0.634634","0.000000","12740","10762","10040","9298","7429","6773","7816","6482","6026","6739","5280","4794","6944","5324","6944",""
"MA200-0416","19937","57","1","1.10","1.4","2023-05-04T11:27:32","120","2023/05/04","11:27:32","-15.772183299064636","34.99831825494766","1.9","18","30","64","67","-11956","20336","-2548","17","150","150.05","117.20","32.85","33.07","37.7","16.75","91024","33.00","DUALSPOT-UV-BLUE-GREEN-RED-IR","802720","728602","903625","7.648109","2.019941","-0.052328","777643","919053","763845","5.453318","1.402883","-0.076855","877674","925522","817190","4.543216","1.148146","-0.103955","864269","941999","863859","3.679877","0.913560","-0.133885","737357","864704","956006","2.660474","0.659593","0.000000","28150","22229","20104","19500","15223","13741","15440","11739","10487","12768","9600","8554","12781","10613","12781",""
"MA200-0416","19938","57","1","1.10","1.4","2023-05-04T11:28:02","120","2023/05/04","11:28:02","-15.77296257019043","34.99891400337219","5.2","18","30","72","67","-13131","20632","-1676","17","150","149.31","116.88","32.42","33.12","37.8","16.80","91108","33.06","DUALSPOT-UV-BLUE-GREEN-RED-IR","917028","839822","1045096","8.852971","2.345346","-0.004211","770985","917614","764619","6.384433","1.653879","-0.006212","1001605","1062573","940249","5.335230","1.359438","-0.010158","993269","1088001","999510","4.329138","1.082647","-0.020525","842844","992110","1098279","3.140558","0.782741","-0.035503","60547","58947","58370","59056","57387","56803","56257","54102","53365","55730","52319","51182","57378","53057","51622",""
"MA200-0416","19939","57","1","1.10","1.4","2023-05-04T11:28:32","120","2023/05/04","11:28:32","-15.773302018642426","34.999761521816254","1.6","17","30","64","67","-8460","22824","-2688","17","150","149.83","116.98","32.84","33.16","37.7","16.82","91164","33.06","DUALSPOT-UV-BLUE-GREEN-RED-IR","794152","728024","906257","9.030940","2.393085","-0.007151","771091","918375","765469","6.518811","1.691949","0.001856","867009","920338","814603","5.452502","1.390600","-0.014215","852685","934476","858657","4.426244","1.108384","-0.018245","729499","859004","951105","3.214029","0.802060","-0.028748","8935","8537","8393","8515","8592","8619","8322","7876","7724","8327","7861","7705","8773","8216","8031",""
"MA200-0416","19940","57","1","1.10","1.4","2023-05-04T11:29:02","120","2023/05/04","11:29:02","-15.77178031206131","34.999803841114044","6.4","17","30","64","67","-12816","20484","-5248","17","150","149.39","117.10","32.28","33.20","37.7","16.85","91212","33.13","DUALSPOT-UV-BLUE-GREEN-RED-IR","795442","729520","908350","9.099339","2.413223","0.009313","765854","912451","760618","6.566203","1.703523","-0.027734","867772","921447","815634","5.491883","1.399314","-0.065541","854861","937091","861104","4.458033","1.114643","-0.138091","730660","860542","952816","3.235788","0.806718","-0.130866","3430","3664","3748","3000","2657","2537","2791","2241","2052","2723","1945","1685","2595","2016","1823",""
"MA200-0416","19941","57","1","1.10","1.4","2023-05-04T11:29:32","120","2023/05/04","11:29:32","-15.770171880722046","35.00000516666614","7.5","17","30","64","67","-12456","20788","-3996","17","150","149.70","116.71","32.99","33.25","37.6","16.82","91260","33.19","DUALSPOT-UV-BLUE-GREEN-RED-IR","794044","728990","908023","9.244045","2.454244","0.000413","765281","912480","760870","6.675959","1.732753","-0.012704","866759","920931","815407","5.584347","1.424539","-0.008817","852764","935313","859595","4.533105","1.133913","-0.030837","729456","859472","951759","3.292448","0.821795","-0.025774","7282","7303","7310","6971","6568","6426","6577","6347","6269","6453","5860","5662","6782","6383","6251",""
"MA200-0416","19942","57","1","1.10","1.4","2023-05-04T11:30:02","120","2023/05/04","11:30:02","-15.768426895141602","35.00009033332026","6.0","17","30","64","67","-12516","20962","-2970","17","150","149.67","116.96","32.72","33.29","37.3","16.77","91340","33.19","DUALSPOT-UV-BLUE-GREEN-RED-IR","789604","725167","903381","9.295254","2.469846","0.011644","767249","915034","763047","6.709176","1.742010","-0.000787","864697","918918","813615","5.609066","1.428688","-0.206587","856731","939788","863723","4.550914","1.135332","-4.443933","731543","862039","954652","3.308288","0.825873","-0.035948","2571","2800","2883","2105","2097","2094","1754","1052","812","1527","435","71","1892","1741","1690",""
"MA200-0416","19943","57","1","1.10","1.4","2023-05-04T11:30:32","120","2023/05/04","11:30:32","-15.766993880271912","34.99976718425751","5.9","17","30","64","67","-11972","20840","-4508","17","150","150.16","117.30","32.86","33.33","37.1","16.72","91380","33.25","DUALSPOT-UV-BLUE-GREEN-RED-IR","790617","726321","904975","9.341442","2.483644","0.008889","768168","916379","764246","6.738532","1.748382","-0.064771","866089","920589","815151","5.633498","1.434290","-0.057053","857425","940692","864601","4.569772","1.138836","-0.177754","732138","862845","955549","3.322254","0.827272","-1.779881","2312","2466","2522","1855","1437","1291","1729","1415","1308","1612","1070","889","1663","594","240",""
"MA200-0416","19944","57","1","1.10","1.4","2023-05-04T11:31:02","120","2023/05/04","11:31:02","-15.765533566474915","34.99936020374298","5.6","17","30","64","67","-12184","20716","-6228","17","150","149.53","116.71","32.82","33.37","36.9","16.66","91420","33.31","DUALSPOT-UV-BLUE-GREEN-RED-IR","790233","726503","905441","9.439507","2.511171","-0.000239","767978","916599","764569","6.804675","1.766317","-0.007428","865849","920692","815374","5.685365","1.446342","-0.053389","858730","942436","866291","4.609039","1.146984","-0.116247","732547","863541","956408","3.351316","0.834771","-0.036735","4935","4927","4924","4201","4051","3999","3689","3049","2830","3375","2490","2197","3478","3192","3097",""
"MA200-0416","19945","57","1","1.10","1.4","2023-05-04T11:31:32","120","2023/05/04","11:31:32","-15.76404082775116","34.99933421611786","6.2","17","30","64","67","-12192","20416","-6464","17","150","150.16","116.75","33.41","33.42","36.8","16.64","91480","33.31","DUALSPOT-UV-BLUE-GREEN-RED-IR","790479","727567","907167","9.596608","2.552690","-0.012145","767961","917390","765422","6.919706","1.794242","-0.037251","864893","920382","815250","5.780709","1.468443","-0.059152","851640","935211","859764","4.684080","1.163190","-0.103489","732353","863614","956622","3.404571","0.846800","-0.114536","7903","7298","7078","7304","6195","5807","6780","5491","5052","6448","4866","4343","6372","5029","4584",""
"MA200-0416","19946","57","1","1.10","1.4","2023-05-04T11:32:02","120","2023/05/04","11:32:02","-15.762410283088684","34.999794363975525","6.3","17","30","64","67","-12600","20576","-6124","17","150","150.43","116.83","33.60","33.48","36.6","16.63","91552","33.38","DUALSPOT-UV-BLUE-GREEN-RED-IR","790827","728148","907987","9.653621","2.568771","-0.002793","763006","911652","760718","6.956452","1.803749","-0.022563","865138","920844","815685","5.811084","1.474303","-0.135867","851321","935000","859604","4.706309","1.166928","-0.262190","727611","858116","950563","3.421939","0.851249","-0.049786","2866","2811","2791","2331","2097","2015","2158","1447","1206","1909","1116","854","2076","1849","1774",""
"MA200-0416","19947","57","1","1.10","1.4","2023-05-04T11:32:32","120","2023/05/04","11:32:32","-15.76102864742279","35.000476833287394","6.2","17","30","64","67","-12448","20640","-5476","17","150","149.67","116.93","32.74","33.49","36.5","16.61","91624","33.44","DUALSPOT-UV-BLUE-GREEN-RED-IR","790442","728216","908303","9.730021","2.590402","0.001557","762899","911881","761010","7.010299","1.817482","-0.019496","865338","921366","816253","5.854142","1.484311","-0.050310","852793","936892","861396","4.739874","1.173615","-0.131117","728089","858822","951389","3.443462","0.855475","-0.191563","3837","3880","3896","3413","3109","3003","3057","2538","2361","2879","2049","1776","2571","1803","1549",""
"MA200-0416","19948","57","1","1.10","1.4","2023-05-04T11:33:02","120","2023/05/04","11:33:02","-15.759707510471344","35.001127833267674","5.5","17","30","64","66","-12024","20764","-6284","17","150","150.35","117.21","33.14","33.53","36.5","16.61","91688","33.44","DUALSPOT-UV-BLUE-GREEN-RED-IR","789405","727456","907470","9.774588","2.602743","-0.002974","761872","910869","760204","7.038629","1.823175","-0.090978","864498","920634","815613","5.874127","1.488262","-0.114867","851666","935746","860333","4.755107","1.175236","-1.014695","727197","857868","950332","3.454191","0.857245","-0.359669","2233","2187","2170","1791","1273","1092","1415","989","845","1303","490","223","1278","746","570",""
"MA200-0416","19949","57","1","1.10","1.4","2023-05-04T11:33:32","120","2023/05/04","11:33:32","-15.758341431617737","35.001755499863066","5.5","17","30","64","67","-12244","20844","-4880","17","150","149.40","116.50","32.90","33.57","36.4","16.60","91756","33.50","DUALSPOT-UV-BLUE-GREEN-RED-IR","784646","723903","903512","9.928183","2.648374","0.006680","763857","914106","763170","7.157701","1.856689","-0.000618","861962","918638","814087","5.974048","1.515025","-0.012404","853660","938578","863171","4.834897","1.196003","-0.024030","728865","860264","953159","3.516164","0.874624","-0.002650","7743","8147","8293","7576","7552","7543","7120","6754","6629","6871","6332","6156","7431","7379","7362",""
"MA200-0416","19950","57","1","1.10","1.4","2023-05-04T11:34:02","120","2023/05/04","11:34:02","-15.757149994373322","35.00208249944262","2.2","17","30","64","67","-11888","20944","-4196","17","150","150.17","117.12","33.05","33.61","36.3","16.59","91800","33.50","DUALSPOT-UV-BLUE-GREEN-RED-IR","783474","723659","903591","10.089144","2.696498","0.007434","762901","913789","763172","7.282468","1.891618","-0.001500","861258","918600","814301","6.082004","1.543956","-0.011907","854442","940018","864682","4.922773","1.217401","-0.045260","728451","860229","953268","3.580536","0.890316","-0.061849","8072","8551","8726","7897","7834","7811","7652","7267","7135","7527","6495","6155","7677","6631","6285",""
"MA200-0416","19951","57","1","1.10","1.4","2023-05-04T11:34:32","120","2023/05/04","11:34:32","-15.755914688110352","35.002290833042935","5.2","17","30","64","66","-12080","21072","-3944","17","150","150.29","116.95","33.35","33.65","36.2","16.59","91832","33.56","DUALSPOT-UV-BLUE-GREEN-RED-IR","778669","723189","905105","10.785782","2.902767","0.004622","759281","913578","764414","7.853779","2.055864","0.001396","857055","917758","814853","6.573898","1.683569","-0.000959","851083","939485","865311","5.329807","1.331395","-0.004579","726601","860028","953954","3.872827","0.973230","-0.001809","34988","36330","36824","36216","36512","36617","34921","34758","34702","34919","34295","34087","34915","34733","34672",""
"MA200-0416","19952","57","1","1.10","1.4","2023-05-04T11:35:02","120","2023/05/04","11:35:02","-15.75458151102066","35.00245266640559","5.8","17","30","64","66","-11628","20776","-4216","17","150","149.80","116.79","33.00","33.68","36.0","16.56","91848","33.56","DUALSPOT-UV-BLUE-GREEN-RED-IR","779660","724457","906907","10.945869","2.950403","0.006178","759693","914418","765243","7.975558","2.089719","-0.002818","857248","918304","815390","6.681639","1.711977","-0.014806","852314","941065","866783","5.418191","1.353127","-0.038644","727101","860781","954838","3.939161","0.989625","-0.051043","8050","8477","8634","7729","7604","7559","7658","7146","6969","7592","6606","6277","7934","6939","6605",""
"MA200-0416","19953","57","1","1.10","1.4","2023-05-04T11:35:32","120","2023/05/04","11:35:32","-15.75303703546524","35.00274633290246","5.7","17","30","64","66","-12028","20684","-6815","17","150","149.90","117.30","32.59","33.73","35.9","16.56","91876","33.63","DUALSPOT-UV-BLUE-GREEN-RED-IR","779768","724897","907575","11.000388","2.964717","-0.007405","760597","915736","766376","8.009578","2.097934","-0.026923","857118","918332","815447","6.708790","1.716298","-0.200887","852482","941402","867126","5.438074","1.355797","-0.405965","726927","860666","954737","3.953788","0.992720","-0.118230","2729","2579","2524","2149","1868","1768","1921","1100","818","1700","821","530","1741","1326","1187",""
"MA200-0416","19954","57","1","1.10","1.4","2023-05-04T11:36:02","120","2023/05/04","11:36:02","-15.751611828804016","35.00345949968323","6.7","17","30","64","66","-12264","20672","-5800","17","150","149.57","116.47","33.10","33.76","35.8","16.51","91920","33.63","DUALSPOT-UV-BLUE-GREEN-RED-IR","779843","725927","909381","11.183221","3.019411","0.006017","754611","909371","761290","8.132245","2.131641","-0.005767","857482","919445","816664","6.805557","1.742363","-0.011078","845320","934055","860559","5.513304","1.374877","-0.030333","727417","861595","955903","4.000970","1.004543","-0.046857","9220","9706","9885","7807","7549","7458","6898","6538","6414","6480","5783","5551","5659","4990","4765",""
"MA200-0416","19955","57","1","1.10","1.4","2023-05-04T11:36:32","120","2023/05/04","11:36:32","-15.750392854213715","35.00464033288881","5.9","17","30","64","66","-12328","20472","-6432","17","150","149.70","116.98","32.71","33.80","35.7","16.50","92000","33.63","DUALSPOT-UV-BLUE-GREEN-RED-IR","779884","726264","909947","11.259910","3.042139","0.006731","754857","909969","761895","8.188683","2.146928","-0.005417","857180","919358","816677","6.851185","1.753169","-0.037797","845773","934749","861206","5.546521","1.381552","-0.107994","727237","861523","955844","4.026775","1.011077","-0.035819","3850","4080","4166","3576","3464","3424","3238","2742","2572","2848","2047","1781","3081","2790","2692",""
"MA200-0416","19956","57","1","1.10","1.4","2023-05-04T11:37:02","120","2023/05/04","11:37:02","-15.749545216560364","35.00585866579786","5.2","17","30","64","66","-11764","21160","-3868","17","150","149.96","116.23","33.73","33.83","35.6","16.49","92040","33.69","DUALSPOT-UV-BLUE-GREEN-RED-IR","772776","719825","902001","11.297789","3.053178","0.000507","754735","910010","761998","8.213341","2.152168","-0.069360","857679","920060","817294","6.872499","1.757306","-0.116681","847344","936606","862953","5.562047","1.383352","-0.716784","727699","862166","956572","4.041034","1.013722","-0.230134","1914","1922","1925","1572","1151","1001","1522","1018","844","1340","535","268","1713","1095","887",""
"MA200-0416","19957","57","1","1.10","1.4","2023-05-04T11:37:32","120","2023/05/04","11:37:32","-15.74887239933014","35.0068111657165","3.3","17","30","64","66","-10208","22172","-3396","17","150","150.11","116.78","33.33","33.87","35.5","16.46","92008","33.69","DUALSPOT-UV-BLUE-GREEN-RED-IR","773062","720479","903000","11.358973","3.068987","-0.013144","754879","910588","762557","8.258000","2.161996","-0.054450","853665","916069","813884","6.910659","1.765632","-0.066958","847559","937137","863491","5.591455","1.387227","-0.450974","723366","857238","951177","4.063678","1.018299","-0.157003","3077","2785","2677","2835","2185","1955","2712","2073","1854","2526","1166","717","2708","1918","1653",""
"MA200-0416","19958","57","1","1.10","1.4","2023-05-04T11:38:02","120","2023/05/04","11:38:02","-15.748628556728363","35.006935499142855","0.1","17","30","64","66","-10244","21868","-4820","17","150","150.42","117.09","33.34","33.91","35.4","16.46","91992","33.75","DUALSPOT-UV-BLUE-GREEN-RED-IR","771685","719785","902370","11.456695","3.095073","-0.008163","753718","909636","761884","8.325051","2.179199","-0.018586","852298","914996","812992","6.962443","1.776194","-0.088327","845717","935425","861995","5.632910","1.395792","-0.101925","722275","856164","950043","4.095501","1.026234","-0.048483","4902","4596","4483","4245","3825","3676","3671","2630","2273","3552","2577","2256","3796","3325","3167",""
"MA200-0416","19959","57","1","1.10","1.4","2023-05-04T11:38:32","120","2023/05/04","11:38:32","-15.74863737821579","35.006940165534616","0.1","17","30","64","66","-10256","21760","-5468","17","150","149.63","116.55","33.08","33.93","35.3","16.44","91988","33.75","DUALSPOT-UV-BLUE-GREEN-RED-IR","773367","721688","904922","11.545728","3.118656","-0.008742","755514","912167","764080","8.383672","2.192587","-0.042943","853326","916347","814242","7.007623","1.785117","-0.098473","848538","938753","865080","5.667529","1.401717","-0.196998","723263","857451","951535","4.121605","1.031513","-0.151034","4486","4186","4075","3728","2999","2741","3218","2239","1904","2980","1796","1408","3128","2228","1928",""
"MA200-0416","19960","57","1","1.10","1.4","2023-05-04T11:39:02","120","2023/05/04","11:39:02","-15.748636901378632","35.006943999323994","0.0","17","30","64","66","-10312","21540","-5652","17","150","150.24","116.40","33.84","33.96","35.2","16.43","91992","33.81","DUALSPOT-UV-BLUE-GREEN-RED-IR","771611","722141","906573","11.891466","3.222190","0.003330","753983","912478","765107","8.669024","2.275388","-0.000294","851832","916655","815223","7.251304","1.853573","-0.006536","846671","938329","865253","5.867099","1.456320","-0.014479","722608","857804","952354","4.269375","1.071127","-0.027169","17446","17970","18165","18173","18139","18127","17380","16795","16594","17201","16188","15854","17734","16353","15891",""
"MA200-0416","19961","57","1","1.10","1.4","2023-05-04T11:39:32","120","2023/05/04","11:39:32","-15.748633921146393","35.00694283237681","0.1","17","30","64","66","-10272","21756","-4876","17","150","150.35","116.59","33.77","34.00","35.1","16.41","91988","33.81","DUALSPOT-UV-BLUE-GREEN-RED-IR","769515","720602","904898","12.038507","3.266832","0.005155","751644","910067","763215","8.780338","2.305191","-0.013014","851097","916280","814961","7.351702","1.880097","-0.018210","845502","937332","864428","5.951061","1.477903","-0.029576","721875","857124","951702","4.329954","1.087736","-0.017750","7407","7765","7898","7078","6542","6352","7149","6521","6305","7225","6412","6143","7258","6870","6740",""
"MA200-0416","19962","57","1","1.10","1.4","2023-05-04T11:40:02","120","2023/05/04","11:40:02","-15.748628675937653","35.00693866610527","0.0","17","30","64","66","-10152","21740","-5604","17","150","149.73","116.86","32.88","34.03","35.0","16.41","91992","33.81","DUALSPOT-UV-BLUE-GREEN-RED-IR","771747","723129","908261","12.112894","3.287912","0.000813","748197","906209","760066","8.824768","2.313936","-0.077822","852096","917558","816169","7.383031","1.885819","-0.120669","848192","940524","867412","5.974208","1.481229","-0.311522","723226","858837","953626","4.346754","1.091642","-0.069405","3738","3766","3776","2818","1971","1671","2225","1444","1177","1987","1015","694","2008","1659","1542",""
"MA200-0416","19963","57","1","1.10","1.4","2023-05-04T11:40:32","120","2023/05/04","11:40:32","-15.748632490634918","35.00692699942738","0.1","17","30","72","66","-10245","21770","-5479","17","150","149.76","116.95","32.82","34.06","34.9","16.40","91988","33.81","DUALSPOT-UV-BLUE-GREEN-RED-IR","667916","626623","787403","12.289669","3.333303","-0.010746","747670","906266","760293","8.931152","2.339296","-0.028692","851427","917460","816236","7.470108","1.905327","-0.049694","840787","932803","860402","6.038314","1.492643","-0.156342","722926","858770","953644","4.390234","1.100206","-0.150491","8878","8123","7842","6743","5728","5368","6181","4935","4508","5499","3489","2828","5193","3645","3127",""
"MA200-0416","19964","57","1","1.10","1.4","2023-05-04T11:41:02","120","2023/05/04","11:41:02","-15.748644888401031","35.00695283245295","0.1","17","30","64","66","-10929","21462","-3858","17","150","149.87","117.17","32.70","34.08","34.8","16.37","91988","33.88","DUALSPOT-UV-BLUE-GREEN-RED-IR","771612","724268","910331","12.360601","3.354829","0.008668","748753","907898","761707","8.972993","2.349233","-0.028177","851616","917922","816698","7.502687","1.912063","-0.071082","840836","933050","860626","6.062639","1.496929","-0.158210","723123","859154","954108","4.409975","1.104255","-0.124002","3555","3866","3982","2647","2252","2113","2308","1710","1505","2082","1314","1063","2353","1729","1521",""
"MA200-0416","19965","57","1","1.10","1.4","2023-05-04T11:41:32","120","2023/05/04","11:41:32","-15.748636364936829","35.006935332901776","0.0","17","30","64","65","-10464","21580","-5840","17","150","150.28","117.09","33.20","34.11","34.8","16.38","91992","33.94","DUALSPOT-UV-BLUE-GREEN-RED-IR","769068","722559","908536","12.483999","3.391275","0.004334","746934","906304","760574","9.054604","2.370214","-0.015975","850068","916728","815807","7.568551","1.928604","-0.023932","838903","931280","859119","6.112384","1.507551","-0.079754","722056","858118","953056","4.442877","1.112320","-0.049686","6190","6448","6544","5167","4685","4514","4670","4136","3954","4262","3210","2865","3925","3393","3215",""
"MA200-0416","19966","57","1","1.10","1.4","2023-05-04T11:42:02","120","2023/05/04","11:42:02","-15.748613774776459","35.0068869991228","0.0","17","30","64","66","-10124","21792","-5060","17","150","150.13","116.08","34.05","34.16","34.7","16.38","91988","33.94","DUALSPOT-UV-BLUE-GREEN-RED-IR","770174","724778","911980","12.698717","3.457679","0.005477","747789","908446","762761","9.210414","2.415781","-0.000433","850047","917661","816931","7.696152","1.963400","-0.013534","840544","933864","861739","6.211764","1.533658","-0.025899","722589","859213","954437","4.506998","1.127797","-0.068599","10864","11455","11676","9950","9921","9911","9126","8485","8265","8589","7692","7399","7716","6350","5894",""
"MA200-0416","19967","57","1","1.10","1.4","2023-05-04T11:42:32","120","2023/05/04","11:42:32","-15.748625040054321","35.00688099907711","0.0","17","30","64","66","-10204","21848","-5160","17","150","149.94","116.88","33.06","34.18","34.6","16.36","91988","33.94","DUALSPOT-UV-BLUE-GREEN-RED-IR","761601","717703","903608","12.918379","3.523107","0.005259","746852","908197","762827","9.365567","2.458446","-0.004187","847020","915120","814905","7.820946","1.996273","-0.013006","841962","936039","863932","6.307524","1.557636","-0.028505","723332","860455","955956","4.571520","1.144483","-0.028238","11038","11624","11843","9841","9567","9469","8864","8255","8046","8220","7276","6967","7711","7050","6830",""
"MA200-0416","19968","57","1","1.10","1.4","2023-05-04T11:43:02","120","2023/05/04","11:43:02","-15.748620867729187","35.006886166054755","0.1","17","30","64","66","-10004","21972","-5036","17","150","149.64","116.42","33.21","34.21","34.6","16.40","91988","34.00","DUALSPOT-UV-BLUE-GREEN-RED-IR","761800","718244","904439","12.989971","3.544796","0.006036","747233","908977","763572","9.413960","2.471475","-0.008779","845960","914264","814194","7.860482","2.006018","-0.028413","842244","936590","864507","6.339844","1.564884","-0.062585","722761","859911","955388","4.595234","1.149278","-0.138186","3611","3835","3919","3081","2908","2846","2819","2436","2304","2785","2189","1994","2845","2016","1740",""
"MA200-0416","19969","57","1","1.10","1.4","2023-05-04T11:43:32","120","2023/05/04","11:43:32","-15.74861627817154","35.00690016616136","0.0","17","30","64","65","-10104","21848","-4840","17","150","149.96","116.71","33.26","34.24","34.6","16.43","91988","34.00","DUALSPOT-UV-BLUE-GREEN-RED-IR","761661","718758","905431","13.100792","3.576715","0.001117","747022","909308","763994","9.490361","2.489996","-0.026736","846101","914861","814872","7.922907","2.020872","-0.035899","842404","937178","865148","6.386617","1.573908","-0.117391","718753","855422","950491","4.630262","1.156946","-0.096592","5577","5637","5660","4853","4128","3870","4440","3708","3457","4020","2722","2298","4192","3220","2897",""
"MA200-0416","19970","57","1","1.10","1.4","2023-05-04T11:44:02","120","2023/05/04","11:44:02","-15.748621582984924","35.00688716582954","0.0","17","30","64","66","-9929","22004","-5616","17","150","150.16","117.18","32.98","34.27","34.6","16.42","91984","34.06","DUALSPOT-UV-BLUE-GREEN-RED-IR","761928","719266","906261","13.183599","3.600292","0.001207","747263","909863","764532","9.542681","2.504295","-0.004257","846272","915266","815285","7.965547","2.031148","-0.029990","842913","937887","865834","6.419624","1.581079","-0.067554","718820","855615","950725","4.654135","1.162299","-0.079797","4150","4199","4217","3309","3214","3180","3021","2587","2438","2825","2181","1971","2845","2267","2075",""
"MA200-0416","19971","57","1","1.10","1.4","2023-05-04T11:44:32","120","2023/05/04","11:44:32","-15.748624682426453","35.00688899960369","0.0","17","30","64","66","-10066","21933","-5008","17","150","150.09","116.95","33.15","34.30","34.5","16.42","91988","34.06","DUALSPOT-UV-BLUE-GREEN-RED-IR","762759","720592","908218","13.273575","3.628893","0.010785","748026","911250","765863","9.604424","2.521515","-0.002327","846844","916267","816312","8.015883","2.044463","-0.012288","843004","938287","866333","6.457113","1.590520","-0.026899","719443","856523","951828","4.681064","1.169809","-0.004703","4519","5067","5274","3913","3850","3828","3573","3334","3253","3216","2857","2740","3216","3164","3147",""
"MA200-0416","19972","57","1","1.10","1.4","2023-05-04T11:45:02","120","2023/05/04","11:45:02","-15.748623311519623","35.00688516581431","0.0","17","30","64","65","-10112","21860","-4632","17","150","150.62","116.78","33.84","34.33","34.5","16.43","91984","34.06","DUALSPOT-UV-BLUE-GREEN-RED-IR","762350","721042","909277","13.427906","3.677219","0.007445","742212","904918","760806","9.710847","2.553098","0.003273","846807","916902","817109","8.102513","2.068930","-0.004338","843002","938824","866977","6.525046","1.607144","-0.039834","719489","856974","952448","4.731622","1.182527","-0.045078","7762","8388","8624","6755","6919","6977","6158","6003","5949","5836","4928","4632","6047","5250","4984",""
"MA200-0416","19973","57","1","1.10","1.4","2023-05-04T11:45:32","120","2023/05/04","11:45:32","-15.748627543449402","35.00688399979845","0.0","17","30","64","65","-10072","21964","-5024","17","150","149.99","116.93","33.05","34.35","34.4","16.42","91984","34.13","DUALSPOT-UV-BLUE-GREEN-RED-IR","759887","719366","907534","13.585398","3.726564","0.009566","745337","909380","764801","9.831303","2.589397","0.008369","844761","915196","815815","8.205194","2.099990","0.010493","834338","929678","858680","6.608937","1.631182","0.002700","718220","855770","951277","4.792894","1.200413","0.008717","7910","8768","9092","7636","8141","8321","7290","7801","7977","7197","7296","7328","7319","7559","7639",""
"MA200-0416","19974","57","1","1.10","1.4","2023-05-04T11:46:02","120","2023/05/04","11:46:02","-15.748621165752411","35.0068778321147","0.0","17","30","64","65","-9983","22000","-5295","17","150","149.80","116.25","33.55","34.38","34.3","16.37","91984","34.13","DUALSPOT-UV-BLUE-GREEN-RED-IR","761410","721397","910420","13.696392","3.761278","0.007563","741300","904964","761281","9.908169","2.611475","-0.000644","841649","912279","813330","8.268900","2.116155","-0.023410","836381","932321","861263","6.660230","1.645142","-0.012274","718877","856817","952524","4.830618","1.210007","-0.038940","5607","6077","6255","4901","4878","4870","4549","4000","3811","4426","4174","4092","4533","3995","3815",""
"MA200-0416","19975","57","1","1.10","1.4","2023-05-04T11:46:32","120","2023/05/04","11:46:32","-15.74861991405487","35.00688566593453","0.0","17","30","64","65","-10020","21872","-5072","17","150","149.54","116.74","32.80","34.41","34.1","16.32","91988","34.19","DUALSPOT-UV-BLUE-GREEN-RED-IR","753947","715145","902991","13.852255","3.811130","0.011565","741464","905890","762287","10.008361","2.639871","0.001160","841053","912235","813493","8.350742","2.138227","-0.006848","836012","932347","861417","6.723021","1.660681","-0.027998","718754","856952","952792","4.873667","1.221312","-0.019630","7841","8926","9337","6362","6417","6437","5820","5586","5505","5396","4752","4541","5151","4814","4701",""
"MA200-0416","19976","57","1","1.10","1.4","2023-05-04T11:47:02","120","2023/05/04","11:47:02","-15.748629033565521","35.00688949925825","0.0","17","30","64","65","-10072","21896","-4896","17","150","149.61","116.70","32.90","34.42","34.1","16.32","0","0.00","DUALSPOT-UV-BLUE-GREEN-RED-IR","752887","714953","903205","14.026785","3.861370","0.002008","740707","905623","762248","10.115509","2.666605","-0.018305","840453","912103","813514","8.434219","2.157717","-0.035602","836136","932907","862035","6.785581","1.674557","-0.058212","718556","856978","952879","4.915973","1.230922","-0.071176","8783","8968","9038","6806","6023","5742","5938","4917","4567","5378","4231","3855","5064","4080","3751",""
"MA200-0416","19977","57","1","1.10","1.4","2023-05-04T11:47:32","120","2023/05/04","11:47:32","-15.748632490634918","35.00689366599545","0.0","16","30","64","65","-10272","21728","-4156","17","150","150.05","116.97","33.08","34.46","33.9","16.27","0","0.00","DUALSPOT-UV-BLUE-GREEN-RED-IR","752569","715107","903674","14.123829","3.894052","0.014767","740595","905790","762477","10.165335","2.681797","0.009443","840598","912493","813946","8.472622","2.168930","0.004926","836327","933306","862450","6.810286","1.678896","-0.148551","718529","857068","953013","4.933647","1.235375","-0.034531","4873","5803","6157","3157","3404","3493","2725","2814","2844","2119","1316","1053","2110","1880","1803",""
"MA200-0416","19978","57","1","1.10","1.4","2023-05-04T11:48:02","120","2023/05/04","11:48:02","-15.74863338470459","35.006901499349624","0.0","16","30","64","65","-9912","21876","-6060","17","150","150.23","116.95","33.28","34.49","33.9","16.28","91984","34.25","DUALSPOT-UV-BLUE-GREEN-RED-IR","752950","715911","904930","14.210272","3.921424","0.009475","741163","906794","763419","10.213306","2.694749","-0.007324","840939","913112","814555","8.504553","2.176756","-0.026963","836602","933756","862873","6.832489","1.683146","-0.112457","718946","857663","953730","4.949081","1.238239","-0.174999","4341","4830","5017","3040","2885","2829","2266","1952","1843","1904","1281","1077","1843","1202","987",""
"MA200-0416","19979","57","1","1.10","1.4","2023-05-04T11:48:32","120","2023/05/04","11:48:32","-15.748626589775085","35.00690699927509","0.1","16","30","64","65","-10128","21860","-4852","17","150","150.21","117.00","33.21","34.50","33.9","16.31","91984","34.25","DUALSPOT-UV-BLUE-GREEN-RED-IR","751111","714835","903910","14.351570","3.961195","-0.000822","739532","905341","762372","10.296624","2.716076","-0.014963","839047","911490","813217","8.567608","2.190089","-0.060847","834907","932241","861573","6.878325","1.691234","-0.146362","717511","856165","952122","4.980409","1.245356","-0.072850","7093","7033","7010","5279","4760","4574","4474","3333","2941","3930","2443","1958","3740","2993","2744",""
"MA200-0416","19980","57","1","1.10","1.4","2023-05-04T11:49:02","120","2023/05/04","11:49:02","-15.748624920845032","35.00690716551617","0.2","16","30","64","65","-10054","21991","-5145","17","150","149.67","116.02","33.65","34.53","33.9","16.35","91984","34.25","DUALSPOT-UV-BLUE-GREEN-RED-IR","753002","716906","906718","14.412281","3.980987","0.010149","741337","907791","764474","10.331160","2.724807","-0.020425","841185","914032","815530","8.595533","2.196252","-0.055010","837718","935491","864629","6.897135","1.694966","-0.104594","719323","858368","954616","4.992212","1.247411","-0.228420","3073","3454","3600","2206","1923","1822","1998","1520","1356","1626","1112","944","1421","853","663",""
"MA200-0416","19981","57","1","1.10","1.4","2023-05-04T11:49:32","120","2023/05/04","11:49:32","-15.748627245426178","35.006899332627654","0.0","16","30","64","65","-10128","21832","-5188","17","150","150.09","116.63","33.47","34.55","34.0","16.40","91984","34.25","DUALSPOT-UV-BLUE-GREEN-RED-IR","753160","717347","907426","14.467152","3.997514","0.004436","741533","908213","764924","10.362954","2.732837","-0.018767","840863","913841","815432","8.619577","2.202219","-0.025769","837927","935850","864962","6.915223","1.699734","-0.017479","718986","858070","954289","5.004665","1.250725","-0.021420","2763","2900","2952","2020","1778","1691","1711","1480","1400","1555","1429","1388","1491","1383","1347",""
"MA200-0416","19982","57","1","1.10","1.4","2023-05-04T11:50:02","120","2023/05/04","11:50:02","-15.748623192310333","35.0069003328681","0.1","16","30","64","64","-10288","21972","-4712","17","150","149.48","116.93","32.55","34.57","34.0","16.44","91980","34.25","DUALSPOT-UV-BLUE-GREEN-RED-IR","750570","715540","905447","14.575253","4.030527","0.008121","739265","905932","763131","10.429931","2.749740","-0.013917","839389","912644","814445","8.668763","2.213317","-0.039344","836682","934766","864059","6.950091","1.706029","-0.125472","718287","857422","953608","5.029157","1.255870","-0.096591","5429","5957","6158","4246","3849","3707","3492","2830","2604","2991","1940","1598","2925","2208","1969",""
"MA200-0416","19983","57","1","1.10","1.4","2023-05-04T11:50:32","120","2023/05/04","11:50:32","-15.748626589775085","35.00688549922779","0.0","16","30","64","65","-10229","21804","-4787","17","150","149.73","116.67","33.06","34.60","34.1","16.49","91984","34.31","DUALSPOT-UV-BLUE-GREEN-RED-IR","752379","717788","908550","14.688437","4.062236","-0.001083","740191","907529","764608","10.499895","2.768682","-0.006140","840325","913967","815768","8.722908","2.227729","-0.010161","838903","937505","866635","6.987434","1.713979","-0.070295","719251","858729","955171","5.057174","1.264225","0.012883","5698","5633","5608","4445","4247","4176","3853","3619","3539","3211","2412","2153","3354","3530","3588",""
"MA200-0416","19984","57","1","1.10","1.4","2023-05-04T11:51:02","120","2023/05/04","11:51:02","-15.748627245426178","35.006890332791954","0.1","16","30","64","65","-10060","21888","-5116","17","150","149.83","116.67","33.16","34.63","34.1","16.54","91980","34.31","DUALSPOT-UV-BLUE-GREEN-RED-IR","751956","717741","908739","14.766850","4.084526","-0.000000","735324","901861","759955","10.548741","2.781534","-0.010656","840622","914587","816362","8.761413","2.235537","-0.071404","831942","929951","859719","7.016895","1.719976","-0.085942","715304","854131","950079","5.076792","1.268267","-0.114013","3947","3947","3947","3103","2872","2790","2740","1954","1685","2533","1814","1580","2348","1702","1487",""
"MA200-0416","19985","57","1","1.10","1.4","2023-05-04T11:51:32","120","2023/05/04","11:51:32","-15.748630702495575","35.00690233241767","0.1","16","30","64","64","-10016","21932","-5792","17","150","150.62","116.47","34.14","34.65","34.2","16.59","91976","34.38","DUALSPOT-UV-BLUE-GREEN-RED-IR","749911","716297","907152","14.862026","4.113586","0.003660","734121","900890","759273","10.616842","2.798652","-0.022596","839313","913555","815558","8.817423","2.249688","-0.025821","830197","928329","858303","7.060498","1.730311","-0.048103","718364","858017","954495","5.108143","1.275363","-0.085419","4799","4999","5075","4334","3716","3495","3992","3440","3252","3755","3037","2803","3760","2903","2617",""
"MA200-0416","19986","57","1","1.10","1.4","2023-05-04T11:52:02","120","2023/05/04","11:52:02","-15.748638212680817","35.006906832102686","0.1","16","30","64","65","-10808","21488","-4868","17","150","149.53","116.63","32.90","34.67","34.3","16.67","91980","34.38","DUALSPOT-UV-BLUE-GREEN-RED-IR","751160","718414","910360","15.028276","4.167118","0.010894","734653","902449","760874","10.742850","2.836012","0.006038","836479","911240","813736","8.920999","2.278977","0.000373","832484","931494","861462","7.143803","1.752997","-0.006728","715640","855200","951519","5.168474","1.292286","-0.001443","8372","9557","10011","8009","8418","8565","7373","7391","7397","7166","6918","6837","7226","7186","7172",""
"MA200-0416","19987","57","1","1.10","1.4","2023-05-04T11:52:32","120","2023/05/04","11:52:32","-15.748634397983551","35.00689899921417","0.0","16","30","64","65","-10525","21575","-5720","17","150","150.28","116.88","33.41","34.69","34.5","16.77","91980","34.38","DUALSPOT-UV-BLUE-GREEN-RED-IR","743224","711759","902501","15.232424","4.229213","0.005357","734590","903261","761879","10.893528","2.879219","0.000403","839250","915077","817427","9.049196","2.313905","-0.007409","832126","931776","861924","7.246436","1.779581","-0.019593","714877","854667","951136","5.242712","1.312234","-0.016563","10259","10917","11170","9557","9588","9599","9106","8680","8534","8810","7983","7714","8873","8341","8164",""
"MA200-0416","19988","57","1","1.10","1.4","2023-05-04T11:53:02","120","2023/05/04","11:53:02","-15.748636662960052","35.00690699927509","0.0","16","30","64","65","-10960","21516","-4200","17","150","149.90","116.87","33.03","34.71","34.7","16.85","91980","34.44","DUALSPOT-UV-BLUE-GREEN-RED-IR","743847","712906","904249","15.354713","4.266886","0.007213","733908","902903","761728","10.975397","2.903074","0.003678","835847","911698","814589","9.114224","2.331882","-0.003328","832745","932791","862937","7.295884","1.792729","-0.011666","715681","855879","952517","5.278278","1.320592","-0.054937","6146","6698","6911","5193","5354","5411","4619","4518","4483","4245","3993","3912","4251","3534","3295",""
"MA200-0416","19989","57","1","1.10","1.4","2023-05-04T11:53:32","120","2023/05/04","11:53:32","-15.748628675937653","35.0069093327038","0.0","16","30","64","65","-10660","21640","-4372","17","150","150.16","116.91","33.26","34.75","34.8","16.93","91976","34.44","DUALSPOT-UV-BLUE-GREEN-RED-IR","743890","713557","905463","15.454481","4.297615","0.006656","734963","904794","763500","11.043900","2.921550","-0.006865","836125","912464","815406","9.166999","2.346533","-0.003642","832458","932832","863116","7.335482","1.802278","-0.034486","715461","855831","952583","5.304922","1.328182","0.000338","5012","5427","5587","4343","4118","4037","3747","3657","3626","3398","2880","2712","3183","3188","3189",""
"MA200-0416","19990","57","1","1.10","1.4","2023-05-04T11:54:02","120","2023/05/04","11:54:02","-15.748632788658142","35.0068869991228","0.0","16","30","64","64","-10680","21476","-4032","17","150","150.49","114.88","35.61","34.77","34.9","16.98","91976","34.50","DUALSPOT-UV-BLUE-GREEN-RED-IR","741351","711988","903893","15.642891","4.353882","-0.003425","732259","902169","761567","11.171414","2.956569","-0.016450","833872","910657","813991","9.271652","2.374577","-0.024052","830975","931645","862173","7.416135","1.823217","-0.037056","713937","854312","951033","5.361368","1.342739","-0.053942","9633","9279","9143","8228","7289","6951","7563","6537","6184","7043","5898","5525","6864","5709","5324",""
"MA200-0416","19991","57","1","1.10","1.4","2023-05-04T11:54:32","120","2023/05/04","11:54:32","-15.748632371425629","35.006887999363244","0.0","16","30","64","64","-10644","21608","-5688","17","150","149.37","116.55","32.82","34.79","34.9","17.04","91980","34.56","DUALSPOT-UV-BLUE-GREEN-RED-IR","743204","714454","907424","15.786226","4.397566","0.006482","734196","905213","764314","11.265573","2.982061","-0.004921","834659","912007","815310","9.345670","2.393078","-0.019042","833119","934441","864900","7.472385","1.837230","-0.024168","715133","855973","952953","5.397306","1.352796","-0.001555","7223","7817","8046","5988","5757","5674","5272","4679","4475","4842","4283","4101","4307","4280","4271",""
"MA200-0416","19992","57","1","1.10","1.4","2023-05-04T11:55:02","120","2023/05/04","11:55:02","-15.748628675937653","35.00689516635612","0.1","16","30","64","64","-10816","21500","-4566","17","150","149.90","116.51","33.39","34.82","34.9","17.07","91972","34.56","DUALSPOT-UV-BLUE-GREEN-RED-IR","743823","715503","909010","15.880732","4.426714","0.006021","729357","899507","759627","11.322690","2.999628","0.007997","832145","909488","813172","9.388382","2.405357","0.000444","834996","936729","867002","7.501296","1.842063","-0.164374","716666","857905","955132","5.418621","1.357508","-0.080979","4764","5127","5268","3634","3900","3996","3043","3053","3056","2489","1452","1114","2555","1971","1776",""
"MA200-0416","19993","57","1","1.10","1.4","2023-05-04T11:55:32","120","2023/05/04","11:55:32","-15.748630821704865","35.00689566647634","0.0","16","30","64","64","-10720","21412","-4708","17","150","149.84","116.43","33.41","34.84","34.9","17.05","0","0.00","DUALSPOT-UV-BLUE-GREEN-RED-IR","741380","713530","906724","15.960762","4.453109","0.010751","733691","905208","764484","11.366997","3.012186","-0.001498","834079","911823","815360","9.421361","2.413863","-0.016722","832720","934359","864880","7.522390","1.846808","-0.053397","714753","855701","952752","5.432764","1.361013","-0.040970","4037","4640","4873","2821","2786","2773","2351","2113","2031","1817","1424","1296","1696","1465","1387",""
"MA200-0416","19994","57","1","1.10","1.4","2023-05-04T11:56:02","120","2023/05/04","11:56:02","-15.748625576496124","35.00689883250743","0.0","16","30","64","64","-10696","21572","-4688","17","150","149.45","116.51","32.94","34.88","34.9","17.08","0","0.00","DUALSPOT-UV-BLUE-GREEN-RED-IR","743470","715998","910101","16.054827","4.480366","0.002082","729472","900352","760496","11.424758","3.027372","-0.009215","831655","909474","813303","9.465540","2.423972","-0.036399","828225","929537","860486","7.555068","1.854700","-0.031697","716209","857629","954908","5.455965","1.367661","0.003257","4742","4860","4906","3675","3417","3325","3148","2548","2341","2813","2403","2270","2781","2819","2832",""
"MA200-0416","19995","57","1","1.10","1.4","2023-05-04T11:56:32","120","2023/05/04","11:56:32","-15.74862414598465","35.00689999945462","0.0","16","30","64","64","-10716","21588","-4700","17","150","150.41","116.90","33.51","34.90","34.9","17.11","91968","34.69","DUALSPOT-UV-BLUE-GREEN-RED-IR","737599","710700","903601","16.124207","4.502474","0.008316","730880","902419","762370","11.472032","3.039192","-0.018340","832862","911053","814832","9.502990","2.434605","-0.001358","828671","930236","861202","7.582182","1.860779","-0.053512","712894","853723","950617","5.473594","1.370862","-0.174981","3485","3874","4025","2997","2614","2476","2659","2634","2625","2326","1820","1655","2106","1334","1076",""
"MA200-0416","19996","57","1","1.10","1.4","2023-05-04T11:57:02","120","2023/05/04","11:57:02","-15.74862539768219","35.00689566647634","0.0","16","30","64","64","-10475","21647","-6327","17","150","150.56","116.43","34.13","34.92","34.9","17.12","91964","34.69","DUALSPOT-UV-BLUE-GREEN-RED-IR","736064","709568","902352","16.200859","4.526136","0.004236","729232","900693","761021","11.521331","3.052568","-0.009775","831569","909874","813844","9.539528","2.441525","-0.095092","827205","928783","859902","7.610083","1.865351","-0.184620","716051","857707","955093","5.496252","1.375121","-0.166892","3866","4072","4151","3139","2905","2821","2605","1683","1366","2404","1343","999","2718","1743","1417",""
"MA200-0416","19997","57","1","1.10","1.4","2023-05-04T11:57:32","120","2023/05/04","11:57:32","-15.748626053333282","35.00688283191994","0.0","16","30","64","64","-10745","21395","-4562","17","150","149.32","116.06","33.26","34.95","34.8","17.13","91964","34.75","DUALSPOT-UV-BLUE-GREEN-RED-IR","737431","711243","904709","16.269991","4.548239","0.008500","730955","903054","763127","11.562066","3.065508","0.011120","832215","910824","814746","9.570695","2.450066","-0.006527","830943","933147","863932","7.629627","1.869982","-0.039008","712554","853593","950523","5.511019","1.379317","-0.002061","3498","3903","4060","2602","2884","2985","2229","2132","2098","1689","1396","1301","1777","1762","1757",""
"MA200-0416","19998","57","1","1.10","1.4","2023-05-04T11:58:02","120","2023/05/04","11:58:02","-15.748630225658417","35.00688266567886","0.0","16","30","64","64","-10888","21596","-3148","17","150","149.99","116.67","33.32","34.97","34.8","17.12","91968","34.75","DUALSPOT-UV-BLUE-GREEN-RED-IR","738458","712649","906721","16.353039","4.573230","0.004241","731715","904383","764332","11.611784","3.078472","-0.011565","833159","912126","815984","9.608562","2.459777","-0.016561","830881","933265","864122","7.657938","1.875967","-0.068548","713630","855025","952180","5.530529","1.384482","-0.019526","4181","4405","4492","3159","2884","2785","2694","2419","2324","2434","1801","1596","2336","2165","2108",""
"MA200-0416","19999","57","1","1.10","1.4","2023-05-04T11:58:32","120","2023/05/04","11:58:32","-15.748636186122894","35.00689533306286","0.4","16","30","64","64","-10566","21783","-4529","17","150","149.89","116.48","33.40","35.00","34.7","17.12","91964","34.75","DUALSPOT-UV-BLUE-GREEN-RED-IR","735758","710513","904170","16.441177","4.596691","-0.006736","729938","902538","762857","11.665612","3.090810","-0.032192","831963","911116","815181","9.651530","2.468013","-0.083231","829995","932511","863456","7.688924","1.881558","-0.125435","712811","854211","951325","5.553137","1.388517","-0.182648","4444","4125","4001","3425","2738","2490","3062","2047","1698","2668","1679","1358","2711","1687","1346",""
"MA200-0416","20000","57","1","1.10","1.4","2023-05-04T11:59:02","120","2023/05/04","11:59:02","-15.748598456382751","35.00690783234313","0.1","16","30","64","64","-9992","21780","-5480","17","150","149.46","116.42","33.04","35.04","34.7","17.13","91964","34.81","DUALSPOT-UV-BLUE-GREEN-RED-IR","737802","712926","907574","16.533470","4.627296","0.011458","731123","904385","764538","11.717773","3.103994","-0.014945","832626","912123","816122","9.690917","2.477735","-0.021916","832411","935465","866256","7.715975","1.886457","-0.119147","713644","855347","952640","5.572740","1.393614","-0.022608","4656","5440","5744","3321","2957","2826","2808","2442","2316","2331","1487","1214","2352","2154","2089",""
"MA200-0416","20001","57","1","1.10","1.4","2023-05-04T11:59:32","120","2023/05/04","11:59:32","-15.748598992824554","35.006903999019414","0.1","16","30","64","64","-11224","20904","-7079","17","150","150.49","116.39","34.10","35.07","34.6","17.15","91964","34.88","DUALSPOT-UV-BLUE-GREEN-RED-IR","738714","714474","909849","16.658699","4.664753","0.001686","726699","899279","760381","11.783794","3.122352","-0.006325","829654","909203","813637","9.739406","2.490001","-0.023087","832493","935810","866644","7.750962","1.895219","-0.030726","714115","856025","953440","5.595142","1.398767","-0.071822","6319","6451","6502","4205","3990","3913","3458","2986","2823","3015","2577","2435","2688","2110","1918",""
"MA200-0416","20002","57","1","1.10","1.4","2023-05-04T12:00:02","120","2023/05/04","12:00:02","-15.7486971616745","35.00702199945226","1.0","16","30","64","64","-10076","21700","-5820","17","150","150.36","116.55","33.81","35.09","34.6","17.13","91968","34.88","DUALSPOT-UV-BLUE-GREEN-RED-IR","738717","714838","910583","16.749239","4.693693","0.007398","727230","900325","761338","11.836541","3.135728","-0.017456","829447","909257","813743","9.780771","2.499610","-0.037391","826239","928991","860352","7.781753","1.900226","-0.178559","714204","856288","953800","5.615614","1.403428","-0.071669","4562","5027","5208","3355","2932","2780","2946","2359","2157","2650","1485","1109","2453","1925","1749",""
"MA200-0416","20003","57","1","1.10","1.4","2023-05-04T12:00:32","120","2023/05/04","12:00:32","-15.747605681419373","35.00871249847114","11.1","16","30","64","64","-9736","22276","-4820","17","150","149.63","116.03","33.60","35.12","34.5","17.13","91824","34.94","DUALSPOT-UV-BLUE-GREEN-RED-IR","732298","709464","904150","16.899764","4.737644","0.000673","727255","901055","762193","11.942494","3.164493","-0.007784","830367","910832","815355","9.869553","2.523404","-0.011272","827606","931000","862379","7.849277","1.918095","-0.016394","715350","857999","955781","5.666948","1.414780","-0.081134","7619","7682","7707","6769","6346","6193","6352","5879","5716","5838","5335","5172","6180","4719","4233",""
"MA200-0416","20004","57","1","1.10","1.4","2023-05-04T12:01:02","120","2023/05/04","12:01:02","-15.745795488357544","35.01136016473174","11.6","16","30","64","63","-9984","22615","-4534","17","150","149.63","116.03","33.60","35.15","34.3","17.08","91640","35.00","DUALSPOT-UV-BLUE-GREEN-RED-IR","730552","708171","902711","16.990274","4.764536","0.002050","726048","899950","761388","12.003601","3.181766","-0.002799","828812","909466","814234","9.916217","2.533257","-0.057663","826228","929710","861265","7.887330","1.925600","-0.092578","709573","851232","948305","5.693105","1.420888","-0.061077","4581","4700","4747","3904","3810","3777","3338","2434","2124","3290","2240","1901","3149","2539","2336",""
"MA200-0416","20005","57","1","1.10","1.4","2023-05-04T12:01:32","120","2023/05/04","12:01:32","-15.744618713855743","35.012905831448734","1.8","16","30","64","64","-11424","21264","-3964","17","150","150.68","116.97","33.71","35.19","34.0","16.98","91576","35.06","DUALSPOT-UV-BLUE-GREEN-RED-IR","733471","711342","906971","17.066462","4.789160","0.008462","728675","903512","764491","12.051211","3.194988","-0.004329","827228","907962","812937","9.953720","2.543836","-0.002951","829034","933070","864414","7.913937","1.931119","-0.074437","711700","853944","951367","5.711891","1.425816","-0.023816","3825","4290","4471","3017","2907","2867","2661","2605","2585","2282","1642","1436","2243","2041","1974",""
"MA200-0416","20006","57","1","1.10","1.4","2023-05-04T12:02:02","120","2023/05/04","12:02:02","-15.744092345237732","35.0129561657086","2.2","16","30","64","64","-11360","20708","-6800","17","150","150.07","116.23","33.84","35.22","33.9","16.93","91536","35.06","DUALSPOT-UV-BLUE-GREEN-RED-IR","734149","712423","908573","17.133200","4.807899","-0.003040","728200","903305","764383","12.093704","3.204469","-0.038534","831168","912570","817146","9.988333","2.551174","-0.057594","830681","935164","866395","7.939930","1.935417","-0.167978","712227","854683","952246","5.732206","1.429707","-0.146170","3372","3252","3205","2710","2077","1848","2472","1800","1569","2243","1274","961","2441","1606","1328",""
"MA200-0416","20007","57","1","1.10","1.4","2023-05-04T12:02:32","120","2023/05/04","12:02:32","-15.744072794914246","35.01297683082521","0.0","16","30","64","64","-9364","21844","-6500","17","150","149.80","116.06","33.74","35.26","33.9","16.98","91536","35.13","DUALSPOT-UV-BLUE-GREEN-RED-IR","734689","713425","910055","17.229086","4.833288","-0.008215","723650","897978","759975","12.154001","3.218996","-0.024996","826912","908235","813324","10.033954","2.559751","-0.089903","830538","935245","866510","7.974461","1.941949","-0.107545","711687","854179","951724","5.757938","1.436041","-0.044552","4852","4419","4251","3851","3191","2954","3263","2110","1715","2985","1942","1606","3097","2622","2464",""
"MA200-0416","20008","57","1","1.10","1.4","2023-05-04T12:03:02","120","2023/05/04","12:03:02","-15.74406349658966","35.01297749765217","0.1","16","30","64","64","-9360","21836","-7315","17","150","150.16","116.11","34.05","35.30","33.9","17.01","91532","35.13","DUALSPOT-UV-BLUE-GREEN-RED-IR","733731","713166","910126","17.367074","4.877487","0.006546","723703","898698","760799","12.246996","3.244436","-0.008210","827347","909180","814366","10.109670","2.581590","-0.002235","824016","928302","860217","8.032868","1.956350","-0.033200","712139","855009","952761","5.798273","1.446403","-0.034137","6980","7624","7875","5937","5538","5395","5413","5324","5294","5046","4243","3984","4852","4250","4050",""
"MA200-0416","20009","57","1","1.10","1.4","2023-05-04T12:03:32","120","2023/05/04","12:03:32","-15.743777811527252","35.01297683082521","1.4","16","30","64","63","-11380","21412","-3680","17","150","147.77","116.63","31.14","35.33","33.9","17.03","91508","35.13","DUALSPOT-UV-BLUE-GREEN-RED-IR","731334","711525","908424","17.501238","4.917244","0.007564","721764","896850","759412","12.334158","3.268068","0.001657","825523","907696","813196","10.178215","2.599019","-0.006743","828975","934256","865818","8.082968","1.967317","-0.038680","710567","853351","950973","5.830652","1.453150","-0.070921","6756","7498","7787","5540","5625","5656","4879","4646","4566","4309","3533","3283","3878","3026","2743",""
"MA200-0416","20010","57","1","1.10","1.4","2023-05-04T12:04:02","120","2023/05/04","12:04:02","-15.743796169757843","35.01248116418719","2.3","16","30","64","64","-12133","21195","-6929","17","150","149.33","115.91","33.41","35.37","33.9","17.05","91516","35.13","DUALSPOT-UV-BLUE-GREEN-RED-IR","732805","713427","911118","17.608984","4.947975","-0.000851","723444","899359","761660","12.400988","3.286134","-0.007461","826236","908812","814247","10.232145","2.611840","-0.030092","823555","928403","860481","8.121384","1.976388","-0.038674","711708","854912","952784","5.860582","1.460206","-0.054713","5459","5401","5379","4274","4008","3912","3862","3185","2953","3325","2723","2530","3607","2949","2731",""
"MA200-0416","20011","57","1","1.10","1.4","2023-05-04T12:04:32","120","2023/05/04","12:04:32","-15.743947446346283","35.01210733130574","1.6","16","30","64","64","-10896","22484","-4824","17","150","150.09","116.04","34.04","35.41","33.8","17.06","91540","35.13","DUALSPOT-UV-BLUE-GREEN-RED-IR","732241","713436","911426","17.710384","4.978943","0.003048","722919","899104","761591","12.462776","3.303157","-0.007248","829069","912253","817461","10.278316","2.623462","-0.022904","823036","928151","860297","8.156613","1.984328","-0.054137","711051","854258","952113","5.884798","1.466478","-0.031395","5132","5342","5425","3947","3706","3620","3303","2834","2673","3045","2339","2112","2915","2573","2460",""
"MA200-0416","20012","57","1","1.10","1.4","2023-05-04T12:05:02","120","2023/05/04","12:05:02","-15.744184732437134","35.011828664690256","2.4","16","30","64","63","-11628","20736","-6804","17","150","149.80","115.71","34.09","35.43","33.6","17.00","91556","35.13","DUALSPOT-UV-BLUE-GREEN-RED-IR","729113","711270","909147","17.895204","5.035604","0.002993","720819","897136","760120","12.563488","3.331106","-0.006822","823705","906839","812721","10.352624","2.642136","-0.023747","820436","925539","857981","8.210339","1.996481","-0.053884","709462","852560","950285","5.919264","1.474209","-0.078650","9381","9763","9912","6452","6078","5943","5331","4548","4279","4658","3577","3229","4160","3168","2839",""
"MA200-0416","20013","57","1","1.10","1.4","2023-05-04T12:05:32","120","2023/05/04","12:05:32","-15.744467556476593","35.01140766311437","1.1","16","30","64","63","-12224","20796","-3944","17","150","150.24","116.40","33.84","35.45","33.5","16.96","91572","35.13","DUALSPOT-UV-BLUE-GREEN-RED-IR","723549","706231","902912","17.976728","5.061418","0.006142","721877","898781","761640","12.616887","3.345739","-0.006715","824946","908515","814345","10.397596","2.654504","-0.007518","822242","927810","860151","8.241796","2.003170","-0.066782","710453","853913","951848","5.943470","1.480069","-0.048252","4113","4480","4624","3400","3205","3135","3207","3034","2975","2711","1982","1748","2905","2418","2257",""
"MA200-0416","20014","57","1","1.10","1.4","2023-05-04T12:06:02","120","2023/05/04","12:06:02","-15.74468868970871","35.010931665077806","1.3","16","30","64","63","-13856","19688","-5996","17","150","149.61","115.94","33.66","35.49","33.4","16.93","91604","35.13","DUALSPOT-UV-BLUE-GREEN-RED-IR","729130","712090","910639","18.064408","5.089102","0.006008","720572","897523","760645","12.669838","3.359937","-0.009168","824302","908057","813989","10.436237","2.664381","-0.018355","822534","928350","860726","8.272104","2.009923","-0.053612","710352","853960","952013","5.963407","1.485293","-0.025029","4441","4830","4982","3385","3126","3033","2767","2435","2322","2622","2012","1816","2402","2167","2090",""
"MA200-0416","20015","57","1","1.10","1.4","2023-05-04T12:06:32","120","2023/05/04","12:06:32","-15.744806170463562","35.01058016344905","1.9","16","30","64","63","-12200","20220","-5396","17","150","150.68","115.94","34.74","35.50","33.3","16.92","91624","35.13","DUALSPOT-UV-BLUE-GREEN-RED-IR","726856","710017","908120","18.104104","5.102564","0.008566","724362","902414","764864","12.698028","3.369312","0.010248","825782","909870","815694","10.462190","2.670675","-0.032858","826166","932566","864659","8.291452","2.015626","-0.002602","708326","851581","949359","5.979059","1.489039","-0.061209","2011","2276","2380","1802","2000","2072","1858","1504","1382","1674","1647","1638","1885","1506","1380",""
"MA200-0416","20016","57","1","1.10","1.4","2023-05-04T12:07:02","120","2023/05/04","12:07:02","-15.74485319852829","35.01029583159834","1.0","16","30","64","63","-11008","21712","-5288","17","150","149.51","115.99","33.51","35.52","33.2","16.88","0","0.00","DUALSPOT-UV-BLUE-GREEN-RED-IR","727604","711061","909672","18.161146","5.119838","0.003458","719958","897229","760590","12.742207","3.382372","0.002390","826584","910962","816770","10.498631","2.680558","-0.008564","827922","934760","866771","8.320101","2.022916","-0.022522","709250","852827","950782","5.999750","1.493583","-0.078225","2888","3027","3082","2823","2888","2912","2608","2448","2393","2478","2182","2087","2491","1894","1695",""
"MA200-0416","20017","57","1","1.10","1.4","2023-05-04T12:07:32","120","2023/05/04","12:07:32","-15.744923174381256","35.010000999085605","1.3","16","30","64","63","-11788","20660","-5752","17","150","150.49","114.88","35.61","35.52","33.2","16.87","0","0.00","DUALSPOT-UV-BLUE-GREEN-RED-IR","725470","709184","907333","18.207012","5.135425","0.006488","723460","901748","764489","12.774385","3.390085","-0.034968","825292","909747","815661","10.522873","2.685708","-0.069555","825881","932563","864780","8.341033","2.028096","-0.043569","707893","851329","949140","6.016704","1.498715","-0.005412","2345","2570","2659","2076","1605","1435","1751","1200","1011","1827","1459","1340","2061","2012","1996",""
"MA200-0416","20018","57","1","1.10","1.4","2023-05-04T12:08:02","120","2023/05/04","12:08:02","-15.744989454746246","35.00973883178085","1.5","16","30","64","63","-11732","20740","-5968","17","150","150.43","116.19","34.24","35.54","33.2","16.90","91672","35.13","DUALSPOT-UV-BLUE-GREEN-RED-IR","728064","711887","910912","18.243352","5.144668","-0.012902","720199","897856","761221","12.798800","3.395509","-0.039317","823345","907714","813934","10.545332","2.691608","-0.016150","820578","926750","859389","8.356437","2.028477","0.690672","709488","853283","951337","6.027899","1.500135","-0.520081","1837","1585","1487","1557","1174","1036","1604","1430","1371","1330","111","-278","1345","579","325",""
"MA200-0416","20019","57","1","1.10","1.4","2023-05-04T12:08:32","120","2023/05/04","12:08:32","-15.745073199272156","35.009369497187436","1.7","16","30","64","63","-11444","20708","-6404","17","150","150.30","116.55","33.75","35.55","33.2","16.91","91684","35.13","DUALSPOT-UV-BLUE-GREEN-RED-IR","727948","711968","911131","18.276718","5.156154","0.011394","719972","897745","761176","12.823978","3.403108","0.004239","826708","911623","817435","10.566426","2.695590","-0.083059","827903","935135","867172","8.370744","2.031738","-0.046788","709152","852983","951013","6.040416","1.502808","-0.088954","1681","1998","2123","1601","1669","1693","1502","979","800","1231","969","884","1500","1106","975",""
"MA200-0416","20020","57","1","1.10","1.4","2023-05-04T12:09:02","120","2023/05/04","12:09:02","-15.745236814022064","35.00888299848884","2.8","16","30","64","63","-11240","21372","-4984","17","150","150.01","116.54","33.46","35.56","33.2","16.90","91696","35.13","DUALSPOT-UV-BLUE-GREEN-RED-IR","720339","704978","902403","18.350718","5.179348","0.006168","719534","897597","761187","12.872347","3.415899","-0.009360","823637","908503","814787","10.603148","2.706212","0.000929","821822","928480","861094","8.397507","2.038330","-0.027499","710032","854174","952417","6.058321","1.506689","-0.079947","3729","4071","4205","3076","2833","2745","2616","2635","2642","2303","1976","1871","2146","1619","1445",""
"MA200-0416","20021","57","1","1.10","1.4","2023-05-04T12:09:32","120","2023/05/04","12:09:32","-15.745439767837524","35.00818149931729","2.2","16","30","64","63","-11240","21300","-5868","17","150","150.14","115.67","34.48","35.57","33.1","16.87","91712","35.13","DUALSPOT-UV-BLUE-GREEN-RED-IR","720524","705477","903265","18.439456","5.207210","0.003758","719072","897321","761027","12.932371","3.433811","0.000124","822683","907702","814140","10.651846","2.720409","-0.002839","821219","928013","860724","8.434420","2.047837","-0.025932","709136","853214","951415","6.084129","1.514185","-0.005758","4506","4746","4841","3847","3851","3853","3495","3418","3392","3201","2766","2627","3116","3037","3011",""
"MA200-0416","20022","57","1","1.10","1.4","2023-05-04T12:10:02","120","2023/05/04","12:10:02","-15.745624661445618","35.00760516570881","1.3","16","30","64","63","-11644","20596","-7336","17","150","149.99","116.06","33.93","35.57","33.0","16.81","91720","35.13","DUALSPOT-UV-BLUE-GREEN-RED-IR","726690","711736","911396","18.484102","5.219908","-0.002130","719403","897886","761591","12.960397","3.441934","-0.000906","825324","910791","816947","10.673244","2.725136","-0.045746","820187","926959","859755","8.448301","2.050806","-0.065055","708538","852581","950710","6.095279","1.516181","-0.175209","2259","2198","2173","1790","1774","1769","1530","1156","1028","1200","877","774","1342","821","649",""
"MA200-0416","20023","57","1","1.10","1.4","2023-05-04T12:10:32","120","2023/05/04","12:10:32","-15.74569946527481","35.00718716531992","2.4","16","30","64","63","-11232","21192","-5364","17","150","150.43","116.07","34.35","35.58","32.9","16.80","91732","35.13","DUALSPOT-UV-BLUE-GREEN-RED-IR","719680","705069","902941","18.521964","5.232013","0.005434","718073","896366","760361","12.985022","3.448074","-0.021042","822033","907268","813834","10.691185","2.729929","-0.014100","820960","927870","860679","8.460573","2.053148","-0.104367","708891","853053","951246","6.104044","1.518240","-0.061853","1915","2069","2130","1572","1324","1235","1283","1158","1115","1060","684","563","1054","837","765",""
"MA200-0416","20024","57","1","1.10","1.4","2023-05-04T12:11:02","120","2023/05/04","12:11:02","-15.745921671390533","35.00683966604993","2.7","16","30","64","63","-11212","20904","-5116","17","150","149.70","115.87","33.83","35.59","32.9","16.79","91740","35.13","DUALSPOT-UV-BLUE-GREEN-RED-IR","718603","704218","901967","18.561662","5.243803","0.001265","718252","896823","760775","13.008389","3.453331","-0.034918","821669","906971","813582","10.708089","2.733063","-0.089642","820613","927644","860445","8.475646","2.054960","-0.409820","708647","852829","951032","6.113468","1.520526","-0.047513","2012","2047","2060","1495","1152","1028","1211","769","617","1305","537","291","1136","944","880",""
"MA200-0416","20025","57","1","1.10","1.4","2023-05-04T12:11:32","120","2023/05/04","12:11:32","-15.746534049510956","35.00675783259794","2.0","16","30","64","63","-11060","20276","-7704","17","150","149.09","117.50","31.58","35.59","32.9","16.79","91768","35.06","DUALSPOT-UV-BLUE-GREEN-RED-IR","723949","709661","909076","18.606452","5.258108","0.011167","716988","895402","759624","13.035362","3.460836","0.003507","820410","905725","812512","10.729028","2.738464","-0.005356","825359","933112","865553","8.489370","2.058631","-0.000746","707672","851723","949833","6.124777","1.523637","0.004930","2238","2660","2826","1701","1761","1783","1479","1419","1399","1171","1166","1164","1344","1375","1386",""
"MA200-0416","20026","57","1","1.10","1.4","2023-05-04T12:12:02","120","2023/05/04","12:12:02","-15.74715006351471","35.00658799894154","1.8","16","30","64","63","-12520","21404","-4436","17","150","150.17","116.40","33.78","35.60","32.8","16.78","91832","35.06","DUALSPOT-UV-BLUE-GREEN-RED-IR","725114","711029","910995","18.654900","5.273317","0.005492","717918","896727","760816","13.063152","3.467512","-0.023431","821294","906856","813562","10.751159","2.743167","-0.052194","819353","926405","859355","8.503910","2.060443","-0.358424","708336","852590","950809","6.133804","1.525179","-0.197208","2444","2644","2723","1769","1465","1355","1578","1155","1011","1253","538","309","1083","637","490",""
"MA200-0416","20027","57","1","1.10","1.4","2023-05-04T12:12:32","120","2023/05/04","12:12:32","-15.747840762138367","35.00638866564259","3.8","16","30","64","63","-11734","20526","-6065","17","150","150.49","116.19","34.30","35.60","32.8","16.74","91872","35.06","DUALSPOT-UV-BLUE-GREEN-RED-IR","718112","704394","902588","18.701758","5.287752","0.003056","717867","896844","760982","13.092895","3.476816","0.005733","821083","906751","813568","10.774095","2.751273","0.019431","827070","935253","867581","8.519890","2.064460","-0.028594","708158","852467","950689","6.146126","1.527082","-0.282631","2368","2471","2512","1897","2010","2051","1638","1962","2072","1379","1175","1109","1481","774","541",""
"MA200-0416","20028","57","1","1.10","1.4","2023-05-04T12:13:02","120","2023/05/04","12:13:02","-15.748221814632416","35.006349831819534","0.0","17","30","64","63","-10256","22040","-3040","17","150","149.96","116.35","33.61","35.62","32.6","16.67","91904","35.06","DUALSPOT-UV-BLUE-GREEN-RED-IR","723721","710357","910551","18.788680","5.317634","0.011148","717126","896328","760697","13.150396","3.495996","0.013226","824015","910298","816868","10.819418","2.766073","0.013768","825713","933965","866491","8.553447","2.076251","0.025958","707516","851837","950045","6.168947","1.534553","0.024405","4388","5221","5550","3663","4230","4435","3234","3655","3800","2893","3518","3719","2740","3104","3225",""
"MA200-0416","20029","57","1","1.10","1.4","2023-05-04T12:13:32","120","2023/05/04","12:13:32","-15.747678875923157","35.006446165498346","2.2","17","30","64","63","-9908","22160","-4544","17","150","149.43","116.02","33.41","35.62","32.5","16.63","91876","35.13","DUALSPOT-UV-BLUE-GREEN-RED-IR","723119","710279","910747","18.888942","5.348945","0.005576","716437","895900","760465","13.213472","3.514188","0.000155","820123","906328","813401","10.866357","2.777719","-0.021026","819108","926771","859878","8.588190","2.084303","-0.040426","707692","852200","950536","6.192051","1.540602","-0.022215","5075","5504","5673","4030","4036","4038","3358","2893","2734","3004","2418","2230","2781","2529","2445",""
"MA200-0416","20030","57","1","1.10","1.4","2023-05-04T12:14:02","120","2023/05/04","12:14:02","-15.747103154659271","35.006581998895854","2.5","17","30","64","63","-9604","22848","-3568","17","150","150.08","115.96","34.12","35.63","32.6","16.68","91824","35.13","DUALSPOT-UV-BLUE-GREEN-RED-IR","716431","703972","902778","18.953920","5.367658","-0.001599","716266","895920","760546","13.257309","3.524017","-0.036157","820427","906878","813945","10.903622","2.787071","-0.022565","819528","927406","860532","8.614671","2.090633","-0.038193","708264","852998","951426","6.209341","1.545270","-0.019857","3291","3221","3194","2802","2135","1894","2668","2275","2141","2291","1861","1723","2082","1911","1854",""
"MA200-0416","20031","57","1","1.10","1.4","2023-05-04T12:14:32","120","2023/05/04","12:14:32","-15.746163487434387","35.00680000009015","3.8","17","30","64","62","-9754","21887","-4483","17","150","149.99","115.83","34.16","35.63","32.6","16.70","91752","35.13","DUALSPOT-UV-BLUE-GREEN-RED-IR","716716","704450","903503","18.998208","5.380913","0.001070","717125","897160","761686","13.285324","3.532827","0.006244","820129","906711","813849","10.926242","2.793229","-0.010537","819438","927384","860549","8.631244","2.094185","-0.065346","708101","852856","951315","6.219913","1.547742","-0.061092","2245","2279","2292","1793","1912","1955","1621","1496","1453","1435","1043","917","1275","1011","923",""
"MA200-0416","20032","57","1","1.10","1.4","2023-05-04T12:15:02","120","2023/05/04","12:15:02","-15.745988011360168","35.006430165376514","2.8","17","30","64","63","-11480","20320","-9424","17","150","150.58","116.58","34.00","35.64","32.7","16.72","91760","35.13","DUALSPOT-UV-BLUE-GREEN-RED-IR","716040","704026","903108","19.048696","5.396309","0.003134","716707","896801","761432","13.315563","3.540252","-0.020613","823818","910959","817699","10.949785","2.798617","-0.037169","820329","928492","861601","8.645804","2.097345","-0.059095","708193","853033","951562","6.230978","1.550362","-0.053656","2543","2659","2705","1922","1618","1508","1676","1315","1191","1253","932","829","1325","1076","993",""
"MA200-0416","20033","57","1","1.10","1.4","2023-05-04T12:15:32","120","2023/05/04","12:15:32","-15.746326565742493","35.00560799846426","5.3","17","30","64","62","-10252","21456","-7847","17","150","149.39","115.71","33.67","35.65","32.8","16.77","91780","35.13","DUALSPOT-UV-BLUE-GREEN-RED-IR","714110","702336","901057","19.088264","5.409248","0.007714","715232","895170","760087","13.340555","3.547458","-0.000950","819296","906045","813336","10.966773","2.804148","0.012561","818496","926509","859762","8.659266","2.101547","0.010108","707468","852229","950671","6.240253","1.552795","-0.024243","2008","2256","2355","1601","1586","1581","1218","1363","1413","1167","1251","1279","1119","1009","972",""
"MA200-0416","20034","57","1","1.10","1.4","2023-05-04T12:16:02","120","2023/05/04","12:16:02","-15.746531307697296","35.00462033320218","2.2","17","30","64","63","-11248","20420","-6984","17","150","150.03","116.19","33.84","35.66","32.8","16.82","91800","35.13","DUALSPOT-UV-BLUE-GREEN-RED-IR","715686","704061","903422","19.131590","5.422495","0.003397","716504","896923","761642","13.366744","3.554731","-0.005056","820419","907427","814615","10.987318","2.807629","-0.116701","820170","928504","861668","8.673390","2.103925","-0.144911","708443","853466","952074","6.249483","1.554325","-0.215233","2190","2299","2342","1670","1593","1565","1468","854","643","1219","705","540","1109","631","473",""
"MA200-0416","20035","57","1","1.10","1.4","2023-05-04T12:16:32","120","2023/05/04","12:16:32","-15.747082650661469","35.00406783306971","2.6","17","30","64","62","-13504","20568","-6272","17","150","150.16","116.31","33.85","35.66","32.9","16.86","91848","35.13","DUALSPOT-UV-BLUE-GREEN-RED-IR","715429","703964","903315","19.158480","5.431501","0.009076","716346","896813","761583","13.384244","3.559522","-0.006570","820371","907474","814675","11.000438","2.812111","0.017216","819911","928284","861502","8.684325","2.105928","-0.110387","708375","853459","952041","6.258787","1.556638","-0.038414","1357","1562","1643","1115","1049","1025","936","1099","1155","943","593","481","1117","954","900",""
"MA200-0416","20036","57","1","1.10","1.4","2023-05-04T12:17:02","120","2023/05/04","12:17:02","-15.747347831726074","35.00340966624208","2.8","17","30","64","62","-12008","21095","-5450","17","150","150.21","116.29","33.92","35.66","33.0","16.90","91884","35.13","DUALSPOT-UV-BLUE-GREEN-RED-IR","713827","702524","901582","19.187742","5.441950","0.012421","715076","895374","760387","13.403472","3.565031","-0.001857","818722","905780","813223","11.018551","2.817434","0.000892","817177","925281","858709","8.695748","2.107918","-0.130335","706516","851247","949608","6.264654","1.557928","-0.077967","1477","1809","1940","1225","1203","1195","1293","1302","1306","985","588","461","704","531","473",""
"MA200-0416","20037","57","1","1.10","1.4","2023-05-04T12:17:32","120","2023/05/04","12:17:32","-15.747575223445892","35.00280366605148","2.3","17","30","64","62","-11848","20736","-5220","17","150","150.49","116.16","34.33","35.67","33.0","16.93","91968","35.13","DUALSPOT-UV-BLUE-GREEN-RED-IR","714747","703660","903143","19.227742","5.453668","-0.000630","715441","895978","760983","13.427420","3.571283","-0.014048","822752","910353","817359","11.035491","2.820533","-0.094915","818954","927371","860682","8.708176","2.111572","-0.000783","707202","852143","950625","6.271970","1.559338","-0.137282","2022","2005","1998","1528","1350","1285","1210","749","591","1073","1067","1066","879","573","472",""
"MA200-0416","20038","57","1","1.10","1.4","2023-05-04T12:18:02","120","2023/05/04","12:18:02","-15.747081100940704","35.002563333371654","2.5","17","30","64","62","-12192","21650","-1692","17","150","149.45","115.75","33.69","35.67","33.1","16.95","92012","35.06","DUALSPOT-UV-BLUE-GREEN-RED-IR","719901","709382","910859","19.356328","5.488699","-0.005076","714918","895851","761020","13.502242","3.590076","-0.017012","818889","906412","813922","11.084003","2.831673","-0.035709","818704","927348","860739","8.738700","2.120149","-0.005484","707519","852631","951229","6.293369","1.564272","-0.060744","6524","6106","5941","4792","4134","3896","3479","2744","2492","2645","2554","2524","2582","2045","1868",""
"MA200-0416","20039","57","1","1.10","1.4","2023-05-04T12:18:32","120","2023/05/04","12:18:32","-15.746831715106964","35.00250466633588","0.3","17","30","64","61","-8104","22176","-7508","17","150","149.99","116.02","33.97","35.67","33.2","17.03","92024","35.06","DUALSPOT-UV-BLUE-GREEN-RED-IR","715136","706817","908869","19.718192","5.607221","0.007217","712098","893778","759761","13.694624","3.644699","-0.003134","816292","904664","812694","11.225254","2.869343","-0.012111","821825","931733","865060","8.839396","2.143300","-0.044754","705691","850882","949427","6.351370","1.577533","-0.064768","18319","20495","21359","12292","11921","11786","10107","9207","8898","8707","6837","6239","6983","5453","4948",""
"MA200-0416","20040","57","1","1.10","1.4","2023-05-04T12:19:02","120","2023/05/04","12:19:02","-15.747185587882996","35.00256016640924","2.5","17","30","64","62","-9354","21891","-7745","17","150","149.91","116.86","33.05","35.67","33.4","17.08","92004","35.06","DUALSPOT-UV-BLUE-GREEN-RED-IR","715488","708015","910984","19.991260","5.698175","0.009960","712711","895195","761163","13.836488","3.684425","-0.000980","819875","909202","816958","11.334867","2.898126","-0.009376","823477","933988","867274","8.920191","2.162391","-0.031090","706302","851856","950575","6.399761","1.588068","-0.068977","13724","16164","17137","8999","8911","8879","7787","7230","7039","6936","5795","5430","5784","4452","4013",""
"MA200-0416","20041","57","1","1.10","1.4","2023-05-04T12:19:32","120","2023/05/04","12:19:32","-15.747536718845367","35.002925666514784","2.6","17","30","64","62","-7404","23908","-4516","17","150","149.70","115.63","34.06","35.67","33.3","17.06","91948","35.06","DUALSPOT-UV-BLUE-GREEN-RED-IR","713833","706522","909197","20.025374","5.710123","0.010437","711410","893649","759924","13.859190","3.692901","0.019277","819233","908558","816392","11.350519","2.902782","0.001135","822910","933467","866825","8.933450","2.165997","-0.012616","705414","850860","949482","6.407175","1.590169","-0.008325","1732","2060","2190","1455","1844","1986","1123","1134","1138","1150","1062","1033","895","861","850",""
"MA200-0416","20042","57","1","1.10","1.4","2023-05-04T12:20:02","120","2023/05/04","12:20:02","-15.747296392917633","35.00351333315484","2.6","17","30","64","62","-9060","21980","-2512","17","150","149.54","116.09","33.45","35.67","33.2","17.03","91876","35.00","DUALSPOT-UV-BLUE-GREEN-RED-IR","713859","706906","909838","20.087882","5.727583","-0.002225","715927","899691","765137","13.900840","3.703462","-0.014064","819266","908857","816732","11.381853","2.911025","-0.011633","821841","932377","865850","8.951772","2.171302","0.000715","710155","856672","956005","6.420896","1.594068","-0.002880","3162","3065","3027","2659","2340","2224","2240","2045","1978","1583","1591","1593","1651","1628","1621",""
"MA200-0416","20043","57","1","1.10","1.4","2023-05-04T12:20:32","120","2023/05/04","12:20:32","-15.747026562690735","35.004061833024025","2.4","17","30","64","61","-8937","22425","-4300","17","150","150.43","115.83","34.59","35.67","33.3","17.06","91836","35.00","DUALSPOT-UV-BLUE-GREEN-RED-IR","713285","706460","909330","20.122310","5.738338","0.003009","715861","899752","765203","13.923021","3.708458","-0.036214","818946","908563","816510","11.397684","2.914428","-0.052941","821722","932315","865786","8.962687","2.173401","-0.099104","709531","855967","955244","6.427957","1.594745","-1.446942","1745","1826","1858","1419","1070","943","1134","816","707","945","608","500","851","273","82",""
"MA200-0416","20044","57","1","1.10","1.4","2023-05-04T12:21:02","120","2023/05/04","12:21:02","-15.746532142162323","35.004654832184315","3.0","17","30","64","62","-9296","22256","-4600","17","150","150.56","116.15","34.41","35.66","33.3","17.05","91796","35.06","DUALSPOT-UV-BLUE-GREEN-RED-IR","711994","705309","907930","20.145736","5.746856","0.011984","715055","898836","764470","13.940492","3.714250","0.010030","817677","907223","815355","11.410518","2.919138","0.021289","821220","931825","865389","8.973815","2.177269","0.020756","708586","854877","954010","6.435482","1.595489","-1.206678","1184","1454","1561","1115","1248","1296","917","1136","1211","961","1127","1181","904","302","103",""
"MA200-0416","20045","57","1","1.10","1.4","2023-05-04T12:21:32","120","2023/05/04","12:21:32","-15.746211171150208","35.00584933208302","4.8","17","30","64","61","-11437","21812","-3312","17","150","149.70","116.23","33.47","35.66","33.3","17.05","91772","35.06","DUALSPOT-UV-BLUE-GREEN-RED-IR","711520","705445","908486","20.273396","5.788278","0.007436","714354","898342","764194","14.000408","3.730779","-0.004333","817561","907415","815606","11.456645","2.930367","-0.022881","820809","931558","865232","9.006806","2.185309","-0.028244","708734","855199","954425","6.455436","1.600346","-0.040115","6451","7269","7596","3821","3661","3602","3294","2785","2610","2847","2410","2270","2398","2027","1905",""
"MA200-0416","20046","57","1","1.10","1.4","2023-05-04T12:22:02","120","2023/05/04","12:22:02","-15.745926976203918","35.00655133277178","2.4","17","30","64","62","-10000","21860","-1816","17","150","150.27","116.06","34.21","35.66","33.4","17.09","91744","35.06","DUALSPOT-UV-BLUE-GREEN-RED-IR","710776","705442","908837","20.394192","5.822059","-0.003800","714500","899083","764961","14.073147","3.749160","-0.017178","817385","907630","815919","11.505843","2.942479","-0.024743","820856","931893","865566","9.036064","2.191526","-0.064631","708612","855170","954466","6.475485","1.606147","-0.003886","6113","5799","5673","4646","3982","3741","3519","2938","2739","2529","1822","1596","2413","2368","2353",""
"MA200-0416","20047","57","1","1.10","1.4","2023-05-04T12:22:32","120","2023/05/04","12:22:32","-15.745728492736816","35.00670683244243","1.8","17","30","64","62","-10948","20360","-6992","17","150","150.11","116.44","33.67","35.66","33.5","17.15","91724","35.06","DUALSPOT-UV-BLUE-GREEN-RED-IR","710638","705738","909346","20.491704","5.843256","-0.025987","714763","899807","765665","14.133309","3.762024","-0.038993","817277","907806","816109","11.550081","2.952748","-0.031239","820456","931617","865327","9.063181","2.196401","-0.110024","708756","855440","954812","6.492698","1.610245","-0.047363","4918","3697","3209","3830","2831","2469","3154","2531","2317","2336","1452","1169","2065","1699","1579",""
"MA200-0416","20048","57","1","1.10","1.4","2023-05-04T12:23:02","120","2023/05/04","12:23:02","-15.745557487010956","35.00607399828732","3.0","17","30","64","61","-13136","19976","-5272","17","150","149.96","116.23","33.73","35.66","33.6","17.19","91748","35.06","DUALSPOT-UV-BLUE-GREEN-RED-IR","711058","706341","910245","20.532208","5.855835","0.004347","708813","892398","759405","14.158365","3.769092","-0.002797","817848","908544","816807","11.567605","2.956879","-0.029145","822040","933486","867122","9.077389","2.200430","-0.003426","709644","856568","956082","6.501968","1.611804","-0.195317","2046","2190","2247","1598","1553","1537","1251","1016","936","1226","1198","1189","1114","645","490",""
"MA200-0416","20049","57","1","1.10","1.4","2023-05-04T12:23:32","120","2023/05/04","12:23:32","-15.745429813861847","35.00538016529754","2.3","17","30","64","61","-12160","20780","-4724","17","150","150.43","116.15","34.28","35.67","33.6","17.20","91824","35.06","DUALSPOT-UV-BLUE-GREEN-RED-IR","710272","705691","909531","20.567452","5.867588","0.007486","714004","899125","765218","14.182967","3.776317","-0.000467","814364","904781","813464","11.586101","2.961856","-0.011608","822013","933538","867219","9.090417","2.204269","-0.000233","705404","851506","950437","6.508671","1.612826","-0.275830","1782","2014","2106","1570","1562","1559","1322","1205","1165","1125","1123","1123","806","416","288",""
"MA200-0416","20050","57","1","1.10","1.4","2023-05-04T12:24:02","120","2023/05/04","12:24:02","-15.7453533411026","35.0045253331773","3.2","17","30","64","61","-12587","21145","-5554","17","150","150.17","116.59","33.59","35.67","33.7","17.22","91884","35.06","DUALSPOT-UV-BLUE-GREEN-RED-IR","708736","704335","907856","20.596092","5.876253","0.003189","712192","896936","763393","14.200868","3.781938","0.007700","816034","906702","815266","11.602218","2.966695","0.004649","819571","930849","864726","9.099749","2.205587","-0.226156","707781","854426","953702","6.517017","1.615101","-0.011779","1442","1515","1544","1138","1240","1277","1147","1196","1213","802","393","262","1000","946","928",""
"MA200-0416","20051","57","1","1.10","1.4","2023-05-04T12:24:32","120","2023/05/04","12:24:32","-15.744984686374664","35.003788999747485","4.3","17","30","64","61","-11424","21472","-3704","17","150","150.03","116.47","33.56","35.67","33.6","17.18","91924","35.06","DUALSPOT-UV-BLUE-GREEN-RED-IR","710167","706028","910220","20.654176","5.897642","0.013560","714125","899653","765796","14.239002","3.794908","0.013857","816994","907954","816481","11.630142","2.975607","0.010849","821422","933084","866846","9.119560","2.212280","0.020339","708903","855896","955388","6.529144","1.618016","-0.043362","2929","3743","4068","2427","2864","3024","1990","2204","2278","1706","2000","2095","1454","1213","1133",""
"MA200-0416","20052","57","1","1.10","1.4","2023-05-04T12:25:02","120","2023/05/04","12:25:02","-15.744865000247955","35.00318466639146","1.9","17","30","64","61","-10560","21260","-4096","17","150","150.01","116.04","33.96","35.67","33.5","17.14","91932","35.06","DUALSPOT-UV-BLUE-GREEN-RED-IR","709390","705654","910024","20.734846","5.923176","0.004939","708092","892353","759692","14.286310","3.809112","0.002387","816505","907640","816269","11.665774","2.985954","-0.000904","820193","931862","865791","9.146070","2.218825","-0.028474","708173","855091","954543","6.545357","1.623339","0.021315","4083","4415","4548","3022","3100","3128","2549","2529","2522","2291","1933","1818","1951","2189","2268",""
"MA200-0416","20053","57","1","1.10","1.4","2023-05-04T12:25:32","120","2023/05/04","12:25:32","-15.74474549293518","35.002700166311115","1.8","17","30","64","61","-12570","21575","-4658","17","150","150.68","116.28","34.40","35.66","33.5","17.13","91936","35.00","DUALSPOT-UV-BLUE-GREEN-RED-IR","705836","703019","907229","20.894666","5.978325","0.009055","711236","896922","763824","14.371160","3.834903","0.002526","814292","905704","814659","11.725442","3.002792","-0.005617","817448","929051","863297","9.187075","2.230418","-0.006740","706727","853526","952843","6.567423","1.628035","-0.090588","8072","9417","9956","5409","5558","5613","4260","4064","3996","3537","3381","3331","2650","1907","1662",""
"MA200-0416","20054","57","1","1.10","1.4","2023-05-04T12:26:02","120","2023/05/04","12:26:02","-15.74471366405487","35.00264249974862","1.0","17","30","64","61","-9724","21920","-5904","17","150","150.24","116.09","34.14","35.66","33.5","17.15","91940","35.06","DUALSPOT-UV-BLUE-GREEN-RED-IR","706401","703851","908425","20.986416","6.008682","0.007103","711551","897572","764445","14.425854","3.849882","-0.007184","815316","906999","815926","11.767424","3.014904","-0.002235","819767","931839","865940","9.214835","2.237815","-0.015389","708036","855191","954699","6.582908","1.631537","-0.067374","4641","5222","5455","3492","3252","3164","3002","2945","2925","2399","2173","2101","1863","1432","1290",""
"MA200-0416","20055","57","1","1.10","1.4","2023-05-04T12:26:32","120","2023/05/04","12:26:32","-15.744830191135406","35.0029718328733","1.6","17","30","64","61","-10688","21916","-3748","17","150","149.50","116.52","32.98","35.66","33.7","17.21","91924","35.06","DUALSPOT-UV-BLUE-GREEN-RED-IR","706419","704429","909563","21.111516","6.052562","0.011897","712550","899260","766044","14.491380","3.869705","0.005921","814884","906808","815839","11.816393","3.028398","-0.003119","818940","931146","865358","9.247958","2.246195","-0.017627","707693","854882","954403","6.600563","1.635542","-0.054292","6306","7814","8421","4169","4455","4560","3489","3397","3365","2852","2549","2452","2116","1696","1558",""
"MA200-0416","20056","57","1","1.10","1.4","2023-05-04T12:27:02","120","2023/05/04","12:27:02","-15.744896531105042","35.00345166656189","2.1","17","30","64","61","-10584","21240","-6280","17","150","150.70","116.38","34.32","35.66","33.7","17.24","91936","35.06","DUALSPOT-UV-BLUE-GREEN-RED-IR","706442","704728","910136","21.162714","6.068886","0.004821","706472","891742","759722","14.521717","3.878963","0.003121","815027","907154","816209","11.838451","3.034663","-0.004425","819336","931725","865924","9.263428","2.250368","-0.013739","707781","855047","954622","6.611625","1.638497","-0.021716","2584","2793","2877","1932","1999","2024","1573","1515","1495","1333","1219","1183","1327","1202","1161",""
"MA200-0416","20057","57","1","1.10","1.4","2023-05-04T12:27:32","120","2023/05/04","12:27:32","-15.745176911354065","35.00424933247268","2.5","17","30","64","61","-10940","21188","-4224","17","150","149.83","116.15","33.68","35.67","33.8","17.27","91908","35.13","DUALSPOT-UV-BLUE-GREEN-RED-IR","706113","704681","910244","21.229136","6.091192","0.008551","712107","899108","766048","14.558052","3.890699","0.009239","815298","907599","816687","11.865279","3.042226","-0.003264","819554","932072","866301","9.281445","2.255589","-0.000082","708306","855744","955447","6.620659","1.640454","-0.076500","3358","3890","4103","2319","2583","2679","1917","1864","1846","1556","1555","1555","1086","811","721",""
