"Serial number","Datum ID","Session ID","Data format version","Firmware version","App version","Date / time local","Timezone offset (mins)","Date local (yyyy/MM/dd)","Time local (hh:mm:ss)","GPS lat (ddmm.mmmmm)","GPS long (dddmm.mmmmm)","GPS speed (km/h)","GPS sat count","Timebase (s)","Status","Battery remaining (%)","Accel X","Accel Y","Accel Z","Tape position","Flow setpoint (mL/min)","Flow total (mL/min)","Flow1 (mL/min)","Flow2 (mL/min)","Sample temp (C)","Sample RH (%)","Sample dewpoint (C)","Internal pressure (Pa)","Internal temp (C)","Optical config","UV Sen1","UV Sen2","UV Ref","UV ATN1","UV ATN2","UV K","Blue Sen1","Blue Sen2","Blue Ref","Blue ATN1","Blue ATN2","Blue K","Green Sen1","Green Sen2","Green Ref","Green ATN1","Green ATN2","Green K","Red Sen1","Red Sen2","Red Ref","Red ATN1","Red ATN2","Red K","IR Sen1","IR Sen2","IR Ref","IR ATN1","IR ATN2","IR K","UV BC1","UV BC2","UV BCc","Blue BC1","Blue BC2","Blue BCc","Green BC1","Green BC2","Green BCc","Red BC1","Red BC2","Red BCc","IR BC1","IR BC2","IR BCc","Readable status"
"MA200-0420","42566","69","1","1.10","1.6","2023-07-13T08:25:00","120","2023/07/13","08:25:00","-15.785090804100037","35.03722148761153","0.3","12","300","66","86","1288","21731","6554","8","150","149.81","114.80","35.01","20.39","55.4","11.14","90064","19.06","DUALSPOT-UV-BLUE-GREEN-RED-IR","790741","708894","909204","0.000000","0.000000","0.000000","888225","898934","834935","0.000000","0.000000","0.000000","874032","878958","832953","0.000000","0.000000","0.000000","894341","884236","892948","0.000000","0.000000","0.000000","780477","897829","963384","0.000000","0.000000","0.000000","","","","","","","","","","","","","","","","Start up-DualSpot on"
"MA200-0420","42567","69","1","1.10","1.6","2023-07-13T08:30:00","120","2023/07/13","08:30:00","-15.793123066425323","35.03315766528249","4.6","12","300","64","86","1857","-1273","22953","8","150","149.95","114.93","35.02","20.95","59.1","12.67","0","0.00","DUALSPOT-UV-BLUE-GREEN-RED-IR","786717","708314","909983","0.000000","0.000000","0.000000","887326","901243","837610","0.000000","0.000000","0.000000","876381","884053","838218","0.000000","0.000000","0.000000","885482","877636","886826","0.000000","0.000000","0.000000","778842","897747","963578","0.000000","0.000000","0.000000","","","","","","","","","","","","","","","","DualSpot on"
"MA200-0420","42568","69","1","1.10","1.6","2023-07-13T08:35:00","120","2023/07/13","08:35:00","-15.802130997180939","35.012266831472516","8.1","13","300","64","85","-25025","-4041","-4220","8","150","149.56","114.53","35.03","22.22","57.4","13.39","0","0.00","DUALSPOT-UV-BLUE-GREEN-RED-IR","769179","702775","909886","2.263799","0.777526","0.000000","871722","895757","837311","1.752853","0.581079","0.000000","859603","876119","834864","1.543528","0.505137","0.000000","877964","877662","890568","1.288983","0.426273","0.000000","770402","893884","962177","0.959316","0.295395","0.000000","11609","13038","11609","11345","12298","11345","11188","11972","11188","11291","12209","11291","11700","11780","11700","DualSpot on"
"MA200-0420","42569","69","1","1.10","1.6","2023-07-13T08:40:00","120","2023/07/13","08:40:00","-15.795586824417114","35.0027881662827","0.4","12","300","64","85","-16480","10780","-10988","8","150","150.33","115.20","35.14","22.87","56.6","13.81","0","0.00","DUALSPOT-UV-BLUE-GREEN-RED-IR","753029","698264","910308","4.426086","1.465362","0.013634","855634","889732","836001","3.458214","1.096797","-0.003647","845289","870690","833388","3.042525","0.948614","-0.014988","865469","872845","888946","2.540907","0.795535","0.000000","764340","892675","963273","1.859821","0.545217","0.000000","11024","11498","11732","10974","10881","10837","10803","10479","10332","10903","10544","10903","10920","9932","10920","DualSpot on"
"MA200-0420","42570","69","1","1.10","1.6","2023-07-13T08:45:00","120","2023/07/13","08:45:00","0","0","0.0","12","300","64","84","-337","-1850","22595","8","150","150.21","115.20","35.01","22.66","50.6","11.89","0","0.00","DUALSPOT-UV-BLUE-GREEN-RED-IR","742002","693343","907537","5.620693","1.877836","0.030188","850168","887177","835547","4.060656","1.333594","0.074859","840704","868442","832761","3.528827","1.138300","0.083587","861920","871297","888564","2.916638","0.928655","0.000000","763479","893201","964475","2.106754","0.609375","0.000000","6090","6919","7335","3876","5013","5570","3504","4498","4971","3272","3814","3272","2994","2559","2994","DualSpot on"
"MA200-0420","42571","69","1","1.10","1.6","2023-07-13T08:50:00","120","2023/07/13","08:50:00","-15.795641601085663","35.00283166626468","0.4","13","300","64","84","328","-27060","-1512","8","150","149.84","114.56","35.28","22.09","49.0","10.88","90964","20.94","DUALSPOT-UV-BLUE-GREEN-RED-IR","738235","691632","906624","6.035501","2.021804","0.026563","852335","890868","839697","4.310316","1.423275","0.046166","838196","866943","831965","3.733581","1.214909","0.064712","865088","875319","893178","3.072784","0.988786","0.087762","762258","892057","963448","2.161222","0.629743","0.000000","2126","2396","2532","1615","1884","2017","1483","1802","1956","1367","1709","1872","664","806","664","DualSpot on"
"MA200-0420","42572","69","1","1.10","1.6","2023-07-13T08:55:00","120","2023/07/13","08:55:00","-15.79562622308731","35.002649666043","0.1","13","300","64","83","-1068","-26900","-1627","8","150","150.33","114.93","35.40","21.63","48.9","10.43","90972","20.19","DUALSPOT-UV-BLUE-GREEN-RED-IR","733310","689979","905986","6.629060","2.188217","-0.023336","849632","890444","840045","4.664475","1.508057","-0.105220","836963","867603","833110","4.024333","1.280445","-0.161117","856864","868600","886638","3.293590","1.025636","-0.603656","763727","894402","966480","2.282222","0.682747","0.000000","3033","2761","2626","2284","1775","1532","2100","1536","1274","1927","1044","645","1470","2091","1470","DualSpot on"
"MA200-0420","42573","69","1","1.10","1.6","2023-07-13T09:00:00","120","2023/07/13","09:00:00","-15.795631349086761","35.00275533297099","0.2","13","300","64","83","-1032","-26996","-1148","8","150","150.15","114.84","35.31","20.91","49.2","9.86","0","0.00","DUALSPOT-UV-BLUE-GREEN-RED-IR","732838","691361","908989","7.027099","2.317840","0.011557","842169","884012","834678","4.904390","1.590144","0.029188","833326","864942","831154","4.221982","1.351500","0.047226","858962","871648","890185","3.445780","1.073808","0.011945","763355","894170","966489","2.331821","0.711091","0.000000","2035","2156","2215","1548","1723","1807","1428","1670","1784","1329","1368","1386","603","1121","603","DualSpot on"
"MA200-0420","42574","69","1","1.10","1.6","2023-07-13T09:05:00","120","2023/07/13","09:05:00","-15.79564368724823","35.0027353328187","0.0","13","300","64","83","-1116","-26916","-1404","8","150","149.76","114.93","34.83","20.47","50.2","9.76","0","0.00","DUALSPOT-UV-BLUE-GREEN-RED-IR","728391","688396","905916","7.301801","2.416015","0.028948","844780","887762","838741","5.085057","1.654249","0.039742","831107","863482","830218","4.373479","1.406663","0.052380","857079","870381","889239","3.561982","1.113759","0.045950","763405","894346","966908","2.370540","0.734841","0.000000","1403","1655","1780","1165","1364","1460","1094","1315","1419","1014","1150","1212","470","952","470","DualSpot on"
"MA200-0420","42575","69","1","1.10","1.6","2023-07-13T09:10:00","120","2023/07/13","09:10:00","-15.7956303358078","35.00270799943246","0.1","13","300","64","82","-1052","-27524","-396","8","150","149.94","115.21","34.73","19.99","50.3","9.33","90988","18.75","DUALSPOT-UV-BLUE-GREEN-RED-IR","725402","686743","904506","7.562084","2.503368","0.019159","840977","884725","836379","5.256683","1.715970","0.042370","834725","868000","834990","4.516517","1.459986","0.057367","854711","868626","887743","3.669256","1.147329","0.014329","764134","895320","968191","2.407581","0.758468","0.000000","1326","1477","1551","1104","1317","1420","1030","1274","1391","934","969","985","449","950","449","DualSpot on"
"MA200-0420","42576","69","1","1.10","1.6","2023-07-13T09:15:00","120","2023/07/13","09:15:00","-15.795699000358582","35.00264549977146","0.1","13","300","64","81","-1056","-26988","-836","8","150","150.02","114.67","35.35","19.35","50.7","8.87","91000","18.06","DUALSPOT-UV-BLUE-GREEN-RED-IR","726110","688485","907414","7.778074","2.564922","-0.016356","842393","887095","839012","5.397487","1.759457","0.000485","831460","865290","832701","4.635023","1.499229","0.021298","851493","865943","885190","3.759493","1.170833","-0.077375","758084","888279","960770","2.432644","0.778902","0.000000","1106","1022","981","910","911","912","858","921","951","789","667","611","305","807","305","DualSpot on"
"MA200-0420","42577","69","1","1.10","1.6","2023-07-13T09:20:00","120","2023/07/13","09:20:00","-15.795649349689484","35.00264583295211","0.0","13","300","64","81","-1112","-27112","-1084","8","150","149.35","114.93","34.42","18.83","51.8","8.71","90984","17.63","DUALSPOT-UV-BLUE-GREEN-RED-IR","725429","688853","908518","7.993448","2.632595","0.008565","842045","887601","839861","5.540622","1.802563","0.001513","831835","866406","834124","4.755942","1.537436","0.015849","852193","867244","886774","3.853421","1.196256","-0.042043","760883","891659","964605","2.461687","0.797884","0.000000","1100","1154","1181","923","928","931","873","921","944","819","741","705","353","770","353","DualSpot on"
"MA200-0420","42578","69","1","1.10","1.6","2023-07-13T09:25:00","120","2023/07/13","09:25:00","-15.795632362365723","35.00268816598691","0.0","13","300","64","81","-1028","-26816","-1576","8","150","149.95","114.93","35.02","18.51","53.2","8.80","0","0.00","DUALSPOT-UV-BLUE-GREEN-RED-IR","723165","687995","908168","8.267677","2.720296","0.008304","839079","885652","838445","5.725873","1.856195","-0.013944","830754","866237","834355","4.915383","1.585907","-0.000727","851952","867749","887604","3.977413","1.229647","-0.050893","761516","892727","965986","2.522955","0.820764","0.000000","1401","1470","1504","1194","1135","1106","1151","1149","1147","1082","956","900","744","912","744","DualSpot on"
"MA200-0420","42579","69","1","1.10","1.6","2023-07-13T09:30:00","120","2023/07/13","09:30:00","-15.795679867267609","35.00263216649182","0.1","13","300","64","80","-1084","-27080","-1360","8","150","151.58","115.05","36.53","18.30","54.3","8.92","0","0.00","DUALSPOT-UV-BLUE-GREEN-RED-IR","721247","687601","908652","8.587286","2.830600","0.013355","830986","878321","832012","5.924460","1.915163","-0.017909","829656","866091","834611","5.079227","1.633650","-0.027205","851564","868209","888368","4.106819","1.265939","-0.049471","757345","888253","961376","2.593477","0.845431","0.000000","1631","1773","1843","1279","1196","1156","1182","1085","1038","1128","996","937","856","943","856","DualSpot on"
"MA200-0420","42580","69","1","1.10","1.6","2023-07-13T09:35:00","120","2023/07/13","09:35:00","-15.795698285102844","35.00266949948855","0.2","14","300","64","80","-1048","-26868","-1632","8","150","150.15","114.89","35.26","18.12","55.2","8.98","90980","17.13","DUALSPOT-UV-BLUE-GREEN-RED-IR","716574","684273","904985","8.836031","2.913717","0.013242","833240","881696","835570","6.078845","1.959943","-0.014486","826522","863617","832538","5.207600","1.672077","-0.007218","854607","871924","892398","4.206849","1.292862","-0.051306","759850","891473","965030","2.642351","0.861094","0.000000","1271","1384","1440","996","941","915","927","904","894","873","766","718","594","620","594","DualSpot on"
"MA200-0420","42581","69","1","1.10","1.6","2023-07-13T09:40:00","120","2023/07/13","09:40:00","-15.795698583126068","35.0026851661969","0.2","14","300","64","79","-1008","-26896","-1827","8","150","149.71","114.44","35.27","17.93","55.9","8.99","90996","16.88","DUALSPOT-UV-BLUE-GREEN-RED-IR","712809","682237","903298","9.169893","3.025022","0.011865","829793","879340","833897","6.289755","2.024900","-0.000145","823758","861789","831241","5.382545","1.722741","-0.018072","852579","870739","891539","4.342972","1.330520","-0.039835","759166","891163","964910","2.717561","0.884701","0.000000","1713","1853","1922","1366","1365","1364","1269","1192","1156","1193","1071","1017","918","935","918","DualSpot on"
"MA200-0420","42582","69","1","1.10","1.6","2023-07-13T09:45:00","120","2023/07/13","09:45:00","-15.79568499326706","35.002706999657676","0.1","12","300","64","80","-1024","-27000","-1048","8","150","149.60","114.88","34.72","17.78","56.8","9.08","91000","16.75","DUALSPOT-UV-BLUE-GREEN-RED-IR","714577","685627","908994","9.552248","3.155481","0.016905","832932","884319","839214","6.553187","2.101779","-0.008135","821242","860524","830583","5.609936","1.790583","-0.003420","849099","868285","889476","4.523238","1.380782","-0.027734","757603","890007","963937","2.823310","0.914327","0.000000","1954","2207","2331","1699","1641","1613","1643","1622","1612","1574","1452","1398","1285","1192","1285","DualSpot on"
"MA200-0420","42583","69","1","1.10","1.6","2023-07-13T09:50:00","120","2023/07/13","09:50:00","-15.795687675476074","35.00269849947654","0.0","12","300","64","79","-1000","-27040","-1184","8","150","150.41","115.36","35.04","17.68","57.5","9.18","90996","16.69","DUALSPOT-UV-BLUE-GREEN-RED-IR","707904","681514","905118","10.062874","3.330570","0.016039","825718","878698","834726","6.884536","2.201134","-0.002813","821310","862298","832932","5.887569","1.870132","-0.015421","844438","864890","886573","4.742943","1.441552","-0.031098","754769","887513","961626","2.956077","0.952384","0.000000","2599","2934","3100","2129","2101","2088","1998","1884","1831","1910","1739","1665","1607","1517","1607","DualSpot on"
"MA200-0420","42584","69","1","1.10","1.6","2023-07-13T09:55:00","120","2023/07/13","09:55:00","-15.795660555362701","35.002706832950935","0.2","12","300","64","79","-976","-26972","-1316","8","150","149.89","115.44","34.44","17.61","58.3","9.32","0","0.00","DUALSPOT-UV-BLUE-GREEN-RED-IR","703902","679541","903809","10.488380","3.480323","0.020193","829639","884588","841078","7.167124","2.286780","0.003157","818749","861081","832354","6.128328","1.940888","-0.003668","849025","870805","893085","4.936796","1.495634","-0.020821","758283","892429","967233","3.074522","0.983711","-0.065202","2164","2553","2746","1814","1843","1856","1731","1705","1693","1684","1575","1527","1433","1270","1193","DualSpot on"
"MA200-0420","42585","69","1","1.10","1.6","2023-07-13T10:00:00","120","2023/07/13","10:00:00","-15.79566216468811","35.00273549952544","0.2","12","300","64","78","-1150","-26929","-1458","8","150","149.50","114.85","34.65","17.53","58.9","9.39","0","0.00","DUALSPOT-UV-BLUE-GREEN-RED-IR","704655","682113","908655","10.911055","3.628078","0.017606","825389","881663","838903","7.418220","2.360534","-0.005425","815323","858738","830616","6.336449","2.000397","-0.013037","845018","867716","890300","5.097387","1.537858","-0.044236","756132","890530","965414","3.169521","1.008855","-0.069230","2161","2504","2675","1620","1578","1558","1504","1425","1389","1402","1222","1144","1155","1013","947","DualSpot on"
"MA200-0420","42586","69","1","1.10","1.6","2023-07-13T10:05:00","120","2023/07/13","10:05:00","-15.795717358589172","35.00265033310279","0.2","11","300","64","78","-1052","-27008","-1668","8","150","149.95","115.13","34.83","17.46","59.5","9.47","90988","16.50","DUALSPOT-UV-BLUE-GREEN-RED-IR","699263","679386","906765","11.471647","3.824081","0.016515","819883","878016","836355","7.786335","2.470982","-0.001552","816425","861829","834311","6.647533","2.089518","-0.012588","841358","865590","888760","5.349353","1.608355","-0.022484","753881","888905","964054","3.326820","1.050128","-0.072246","2860","3305","3528","2370","2351","2342","2243","2124","2070","2195","2030","1960","1908","1655","1538","DualSpot on"
"MA200-0420","42587","69","1","1.10","1.6","2023-07-13T10:10:00","120","2023/07/13","10:10:00","-15.795731604099274","35.00276316632517","0.1","11","300","64","78","-991","-27141","-1112","8","150","149.95","115.20","34.75","17.40","59.8","9.52","90988","16.44","DUALSPOT-UV-BLUE-GREEN-RED-IR","694722","677362","905897","12.030052","4.028446","0.020194","816821","876960","836409","8.165307","2.594989","0.013558","813419","860568","833999","6.975987","2.194846","0.012107","837567","863285","887075","5.618366","1.688100","-0.004472","752384","888251","963810","3.503818","1.099283","-0.037252","2846","3454","3760","2438","2645","2742","2367","2516","2585","2342","2302","2285","2146","1976","1898","DualSpot on"
"MA200-0420","42588","69","1","1.10","1.6","2023-07-13T10:15:00","120","2023/07/13","10:15:00","-15.795666098594666","35.00273299938999","0.2","11","300","64","77","-1080","-27024","-1408","8","150","149.67","115.50","34.17","17.34","60.3","9.57","0","0.00","DUALSPOT-UV-BLUE-GREEN-RED-IR","692412","678669","910449","12.855087","4.334154","0.021465","808929","872057","833424","8.776393","2.797794","0.017294","807162","857056","832006","7.508261","2.366519","0.015516","838803","867188","892333","6.056964","1.826266","0.014037","753171","890995","967679","3.792175","1.186544","0.008535","4195","5255","5794","3922","4400","4623","3826","4171","4330","3809","4057","4163","3487","3567","3604","DualSpot on"
"MA200-0420","42589","69","1","1.10","1.6","2023-07-13T10:20:00","120","2023/07/13","10:20:00","-15.795787990093231","35.0027053328231","0.1","11","300","64","77","-1040","-26884","-1296","8","150","149.53","114.92","34.61","17.36","61.1","9.78","0","0.00","DUALSPOT-UV-BLUE-GREEN-RED-IR","682105","672840","905929","13.866423","4.701832","0.017212","805884","872792","835819","9.446609","3.005635","0.004422","804241","857400","833742","8.080114","2.536100","-0.002826","830730","861665","887790","6.521594","1.956749","-0.016364","747894","886681","963717","4.091186","1.264552","-0.058666","5168","6239","6789","4323","4451","4511","4131","4067","4038","4056","3782","3665","3634","3148","2931","DualSpot on"
"MA200-0420","42590","69","1","1.10","1.6","2023-07-13T10:25:00","120","2023/07/13","10:25:00","-15.795757114887238","35.00266799982637","0.1","10","300","64","77","-1104","-26956","-1780","8","150","149.71","114.93","34.78","17.43","61.6","9.96","90984","16.63","DUALSPOT-UV-BLUE-GREEN-RED-IR","678990","673188","909147","14.666630","4.999983","0.017715","805299","875005","839214","9.916368","3.150660","0.002910","803953","859437","836667","8.468382","2.649003","-0.007104","831888","864794","891802","6.830208","2.042526","-0.019248","748988","889300","967038","4.288780","1.313824","-0.079211","4089","5035","5524","3029","3091","3120","2804","2695","2645","2693","2474","2380","2401","1979","1792","DualSpot on"
"MA200-0420","42591","69","1","1.10","1.6","2023-07-13T10:30:00","120","2023/07/13","10:30:00","-15.795631051063538","35.002731166314334","0.2","10","300","64","76","-1096","-27096","-928","8","150","149.95","115.09","34.87","17.48","61.7","10.05","90976","16.63","DUALSPOT-UV-BLUE-GREEN-RED-IR","674672","671898","909927","15.397667","5.277241","0.017995","802804","874780","840137","10.340493","3.288877","0.009665","795844","852846","831151","8.818330","2.756333","0.002009","829261","863788","891435","7.106379","2.121216","-0.013033","747314","888484","966610","4.466211","1.360190","-0.055138","3730","4670","5160","2732","2938","3035","2524","2555","2570","2407","2264","2203","2153","1857","1728","DualSpot on"
"MA200-0420","42592","69","1","1.10","1.6","2023-07-13T10:35:00","120","2023/07/13","10:35:00","-15.795664489269257","35.00275449943729","0.1","9","300","64","76","-1136","-26956","-1580","8","150","150.41","115.05","35.36","17.51","61.4","9.99","90972","16.69","DUALSPOT-UV-BLUE-GREEN-RED-IR","668245","667085","904755","15.794424","5.433971","0.019188","796026","868861","835213","10.605400","3.383362","0.017981","795569","853818","832717","9.044956","2.834058","0.015959","829724","865360","893581","7.291867","2.181527","0.010461","747824","889893","968505","4.595735","1.399105","-0.007272","2025","2603","2906","1706","1980","2109","1635","1824","1911","1617","1711","1751","1572","1537","1521","DualSpot on"
"MA200-0420","42593","69","1","1.10","1.6","2023-07-13T10:40:00","120","2023/07/13","10:40:00","-15.795706629753113","35.002706666244194","0.1","9","300","64","75","-996","-26819","-1168","8","150","149.41","115.42","33.99","17.53","61.4","10.03","90972","16.69","DUALSPOT-UV-BLUE-GREEN-RED-IR","664389","665894","905506","16.448683","5.691650","0.020696","792280","867689","835585","11.116632","3.561473","0.019096","791980","852579","832825","9.502616","2.989352","0.019137","826226","864000","893343","7.681599","2.308013","0.016590","745420","888730","968033","4.868261","1.481277","0.006843","3329","4453","5047","3283","3885","4168","3292","3793","4023","3387","3733","3882","3298","3377","3412","DualSpot on"
"MA200-0420","42594","69","1","1.10","1.6","2023-07-13T10:45:00","120","2023/07/13","10:45:00","-15.795741856098175","35.00271699973382","0.2","9","300","64","74","-1128","-27044","-1112","8","150","150.21","115.08","35.12","17.60","61.2","10.04","90960","16.81","DUALSPOT-UV-BLUE-GREEN-RED-IR","662991","666420","907912","16.930808","5.879703","0.017642","791524","868656","837437","11.439122","3.671718","0.013136","786949","848660","829757","9.778904","3.079003","0.008632","820552","859385","889210","7.911527","2.380202","0.004984","741810","885423","964856","5.026661","1.525057","-0.031189","2460","3144","3508","2077","2326","2444","1993","2119","2176","2004","2061","2086","1922","1741","1662","DualSpot on"
"MA200-0420","42595","69","1","1.10","1.6","2023-07-13T10:50:00","120","2023/07/13","10:50:00","-15.795709192752838","35.002767166588455","0.3","10","300","64","74","-1020","-26952","-1440","8","150","149.61","115.16","34.45","17.55","61.0","9.95","90944","16.69","DUALSPOT-UV-BLUE-GREEN-RED-IR","659599","663928","905285","17.156164","5.965324","0.017057","789292","867033","836288","11.583383","3.721815","0.016526","788875","851460","832802","9.901615","3.120244","0.015404","816838","856054","886030","8.007913","2.409229","0.001153","743947","888373","968248","5.089517","1.544142","0.004089","1149","1459","1624","928","1077","1148","884","993","1043","839","845","847","762","773","778","DualSpot on"
"MA200-0420","42596","69","1","1.10","1.6","2023-07-13T10:55:00","120","2023/07/13","10:55:00","-15.795741975307465","35.00270416610874","0.0","11","300","64","73","-1168","-26812","-1703","8","150","149.76","115.05","34.71","17.55","61.3","10.03","90944","16.69","DUALSPOT-UV-BLUE-GREEN-RED-IR","658093","663703","905960","17.455188","6.075382","0.014452","788210","866984","836751","11.777433","3.782731","0.004781","788293","851806","833545","10.062524","3.167796","-0.003058","816163","856157","886451","8.136444","2.446434","-0.007565","739220","883254","962873","5.170151","1.563894","-0.071406","1526","1862","2041","1250","1301","1325","1161","1137","1126","1120","1075","1055","979","794","715","DualSpot on"
"MA200-0420","42597","69","1","1.10","1.6","2023-07-13T11:00:00","120","2023/07/13","11:00:00","-15.795726835727692","35.002753999549896","0.2","13","300","64","73","-1062","-27070","-1458","8","150","149.63","115.01","34.62","17.56","61.3","10.02","90920","16.75","DUALSPOT-UV-BLUE-GREEN-RED-IR","656654","663660","907154","17.805520","6.209051","0.016354","786688","866697","837167","12.019220","3.865230","0.013683","787217","851836","834163","10.272082","3.236628","0.011438","816316","857330","888134","8.309496","2.500804","0.007089","738787","883458","963439","5.288635","1.598792","-0.006017","1789","2267","2524","1558","1766","1865","1512","1650","1714","1509","1575","1604","1439","1408","1394","DualSpot on"
"MA200-0420","42598","69","1","1.10","1.6","2023-07-13T11:05:00","120","2023/07/13","11:05:00","-15.79570198059082","35.002758499700576","0.2","13","300","64","72","-1045","-26958","-929","8","150","149.65","115.39","34.26","17.65","61.3","10.12","90912","16.81","DUALSPOT-UV-BLUE-GREEN-RED-IR","657382","665610","910901","18.106034","6.327879","0.018651","789139","870563","841428","12.211501","3.927338","0.009386","783550","848820","831647","10.434906","3.288937","0.010242","818040","859912","891197","8.442441","2.541588","0.005364","740680","886325","966799","5.378715","1.623873","-0.018211","1529","2037","2309","1235","1343","1395","1171","1267","1311","1155","1194","1210","1090","1022","993","DualSpot on"
"MA200-0420","42599","69","1","1.10","1.6","2023-07-13T11:10:00","120","2023/07/13","11:10:00","-15.795605480670929","35.00267033302225","0.1","13","300","64","72","-1076","-27024","-1208","8","150","148.10","114.61","33.49","17.68","61.0","10.07","90908","16.81","DUALSPOT-UV-BLUE-GREEN-RED-IR","653362","663013","908656","18.476498","6.474483","0.019101","785711","867970","839567","12.427740","4.004520","0.019819","780695","846723","830071","10.611693","3.348577","0.017355","814536","857048","888616","8.585121","2.588655","0.018150","738386","884156","964720","5.474737","1.651183","-0.007257","1898","2571","2934","1398","1708","1855","1280","1478","1569","1248","1409","1479","1170","1139","1125","DualSpot on"
"MA200-0420","42600","69","1","1.10","1.6","2023-07-13T11:15:00","120","2023/07/13","11:15:00","-15.79562908411026","35.00273516634479","0.1","12","300","64","72","-1028","-27040","-1284","8","150","149.59","114.59","34.99","17.68","60.8","10.01","90908","16.75","DUALSPOT-UV-BLUE-GREEN-RED-IR","651888","663131","910228","18.870796","6.628254","0.015861","784684","868119","840366","12.653984","4.086387","0.016959","780459","847500","831368","10.799650","3.412634","0.013433","815047","858449","890485","8.730374","2.634891","0.006559","738537","884960","965833","5.568849","1.679360","-0.005165","2021","2581","2884","1463","1734","1863","1361","1519","1592","1271","1325","1348","1147","1124","1115","DualSpot on"
"MA200-0420","42601","69","1","1.10","1.6","2023-07-13T11:20:00","120","2023/07/13","11:20:00","-15.7954723238945","35.00266783311963","0.5","12","300","64","71","-1108","-27000","-1436","8","150","150.01","114.88","35.13","17.61","60.5","9.87","90908","16.63","DUALSPOT-UV-BLUE-GREEN-RED-IR","646680","659105","905811","19.185998","6.750900","0.015427","778830","862654","835630","12.835467","4.149246","0.012772","780687","848596","832855","10.946636","3.463298","0.014333","810041","853867","886073","8.845870","2.672748","0.010565","739458","886521","967727","5.641329","1.700802","-0.008655","1611","2050","2289","1171","1326","1400","1062","1197","1259","1008","1081","1112","881","852","840","DualSpot on"
"MA200-0420","42602","69","1","1.10","1.6","2023-07-13T11:25:00","120","2023/07/13","11:25:00","-15.795688509941101","35.00285066640936","0.0","11","300","64","71","-1176","-26952","-1328","8","150","149.44","114.77","34.67","17.52","60.8","9.85","90896","16.63","DUALSPOT-UV-BLUE-GREEN-RED-IR","642980","657230","904748","19.641842","6.920162","0.013311","775602","860758","834583","13.126558","4.242432","0.006187","778222","847337","832265","11.193440","3.539306","0.002486","807225","852080","884763","9.045331","2.731907","-0.002940","738132","885708","967229","5.769577","1.737675","-0.012826","2332","2867","3158","1880","1992","2046","1785","1820","1836","1743","1712","1698","1561","1485","1453","DualSpot on"
"MA200-0420","42603","69","1","1.10","1.6","2023-07-13T11:30:00","120","2023/07/13","11:30:00","-15.795613169670105","35.00275899958797","0.2","11","300","64","70","-980","-27072","-1020","8","150","149.60","115.13","34.47","17.68","61.4","10.17","90892","17.00","DUALSPOT-UV-BLUE-GREEN-RED-IR","641256","657558","907060","20.166878","7.124286","0.015658","775293","862438","837131","13.473329","4.354549","0.007831","777175","847943","833628","11.490901","3.628939","0.000806","807334","853680","887040","9.292064","2.803524","-0.004928","733513","881316","962882","5.945587","1.784095","-0.034510","2678","3478","3914","2232","2411","2496","2145","2158","2165","2150","2084","2055","2135","1881","1772","DualSpot on"
"MA200-0420","42604","69","1","1.10","1.6","2023-07-13T11:35:00","120","2023/07/13","11:35:00","-15.795624911785126","35.002773999702185","0.1","11","300","64","69","-1108","-26900","-1835","8","150","149.52","114.71","34.82","17.81","61.0","10.19","90892","17.06","DUALSPOT-UV-BLUE-GREEN-RED-IR","638251","656508","907547","20.689072","7.335853","0.016508","774206","863163","838875","13.818966","4.478133","0.015082","775067","847280","833802","11.785337","3.730410","0.014028","805736","853394","887459","9.537939","2.885506","0.012973","731817","880349","962316","6.120323","1.836089","-0.004733","2673","3569","4060","2233","2631","2821","2131","2419","2553","2150","2362","2454","2128","2086","2068","DualSpot on"
"MA200-0420","42605","69","1","1.10","1.6","2023-07-13T11:40:00","120","2023/07/13","11:40:00","-15.795564830303192","35.00269866618328","0.2","11","300","64","69","-1108","-26996","-1308","8","150","149.35","114.90","34.45","17.92","61.0","10.29","90888","17.19","DUALSPOT-UV-BLUE-GREEN-RED-IR","630065","651080","902716","21.434186","7.630962","0.015511","766344","856777","833868","14.231587","4.616606","0.010531","770344","844093","831599","12.124190","3.838605","0.007139","806646","855968","890877","9.803362","2.965383","0.000517","732767","882668","965335","6.298836","1.883988","-0.028043","3809","5030","5706","2662","2979","3131","2448","2607","2680","2317","2325","2329","2170","1942","1844","DualSpot on"
"MA200-0420","42606","69","1","1.10","1.6","2023-07-13T11:45:00","120","2023/07/13","11:45:00","-15.79567164182663","35.00269899936393","0.2","11","300","64","68","-1092","-27012","-1304","8","150","149.84","114.97","34.86","18.21","61.6","10.70","90884","17.75","DUALSPOT-UV-BLUE-GREEN-RED-IR","627578","651455","906005","22.209588","7.940307","0.014832","765813","858749","836907","14.676736","4.757011","0.003819","768516","844229","832619","12.491530","3.947478","-0.002738","806404","857491","893195","10.100355","3.048889","-0.011523","732066","883211","966394","6.507738","1.933933","-0.066182","3961","5211","5907","2870","2985","3040","2652","2592","2564","2591","2403","2321","2538","2001","1774","DualSpot on"
"MA200-0420","42607","69","1","1.10","1.6","2023-07-13T11:50:00","120","2023/07/13","11:50:00","-15.795648634433746","35.002733499743044","0.1","11","300","64","68","-980","-27175","-1168","8","150","150.08","115.42","34.66","18.59","61.3","11.00","0","0.00","DUALSPOT-UV-BLUE-GREEN-RED-IR","623544","648714","903801","22.605206","8.114769","0.018680","762882","856803","835774","14.923867","4.847241","0.016231","765372","841934","830958","12.697577","4.015440","0.009906","802668","854493","890591","10.270600","3.105885","0.013766","728235","879496","962693","6.643747","1.969730","-0.032058","2013","2956","3484","1587","1929","2094","1482","1627","1695","1479","1649","1723","1646","1442","1357","DualSpot on"
"MA200-0420","42608","69","1","1.10","1.6","2023-07-13T11:55:00","120","2023/07/13","11:55:00","-15.795667707920074","35.002811999525875","0.1","11","300","64","67","-1133","-27029","-1341","8","150","149.57","114.53","35.05","18.88","59.9","10.92","0","0.00","DUALSPOT-UV-BLUE-GREEN-RED-IR","620028","646898","903318","23.123264","8.343429","0.017686","760073","855147","835212","15.225315","4.970980","0.022090","767287","845329","835080","12.946332","4.111767","0.021626","799816","852529","889203","10.472236","3.182209","0.024245","725712","877398","960849","6.800281","2.015789","-0.008518","2656","3832","4495","1951","2617","2940","1803","2281","2504","1766","2184","2367","1909","1835","1804","DualSpot on"
"MA200-0420","42609","69","1","1.10","1.6","2023-07-13T12:00:00","120","2023/07/13","12:00:00","-15.795608818531036","35.00285533303395","0.2","11","300","64","67","-1012","-27283","-616","8","150","149.85","114.83","35.02","18.99","59.0","10.79","90860","18.31","DUALSPOT-UV-BLUE-GREEN-RED-IR","618111","646896","905145","23.631856","8.546082","0.013729","759435","856335","837357","15.562286","5.089522","0.011937","761481","840552","831121","13.232601","4.207540","0.009413","799767","853862","891259","10.706539","3.256837","0.005606","730039","883707","968189","6.968536","2.062481","-0.021037","2601","3399","3850","2175","2509","2671","2069","2270","2364","2047","2138","2177","2046","1862","1785","DualSpot on"
"MA200-0420","42610","69","1","1.10","1.6","2023-07-13T12:05:00","120","2023/07/13","12:05:00","-15.795776784420013","35.00261466647498","0.1","10","300","64","67","-1137","-27179","-1450","8","150","149.89","114.89","35.00","18.97","58.2","10.56","90852","18.13","DUALSPOT-UV-BLUE-GREEN-RED-IR","618343","649000","909883","24.113544","8.742474","0.014382","759505","858081","840027","15.872732","5.203235","0.014583","762231","842836","834182","13.497055","4.301286","0.014354","794459","849369","887233","10.920717","3.329031","0.012168","726629","880483","965077","7.115354","2.106857","-0.001573","2462","3296","3770","2003","2408","2606","1911","2223","2370","1870","2069","2156","1785","1771","1765","DualSpot on"
"MA200-0420","42611","69","1","1.10","1.6","2023-07-13T12:10:00","120","2023/07/13","12:10:00","-15.795657992362976","35.00276649952866","0.0","11","300","64","66","-1057","-27176","-1423","8","150","150.28","114.97","35.31","19.02","58.3","10.65","90852","18.31","DUALSPOT-UV-BLUE-GREEN-RED-IR","608769","642825","905104","25.138824","9.170490","0.014371","750333","851917","836342","16.647102","5.485910","0.013187","753747","837187","830585","14.183521","4.540151","0.011534","792533","850668","890352","11.509221","3.526558","0.010259","725140","881277","967198","7.535978","2.235577","-0.000679","5238","7119","8200","4993","5934","6397","4957","5616","5926","5135","5612","5823","5110","5092","5084","DualSpot on"
"MA200-0420","42612","69","1","1.10","1.6","2023-07-13T12:15:00","120","2023/07/13","12:15:00","-15.795700013637543","35.0027213327121","0.0","12","300","64","66","-984","-27184","-912","8","150","149.90","115.05","34.85","19.07","58.0","10.60","90852","18.25","DUALSPOT-UV-BLUE-GREEN-RED-IR","605655","641583","905637","25.719666","9.426350","0.016235","748509","851723","837339","17.009546","5.626035","0.017177","756221","841527","835803","14.485203","4.651242","0.016640","789973","849235","889584","11.751998","3.610433","0.014346","723239","879950","966188","7.699936","2.284350","-0.003413","2965","4312","5091","2335","2980","3299","2177","2646","2868","2117","2414","2546","1990","1955","1939","DualSpot on"
"MA200-0420","42613","69","1","1.10","1.6","2023-07-13T12:20:00","120","2023/07/13","12:20:00","-15.79573529958725","35.002713666297495","0.2","12","300","64","65","-1160","-26728","-1819","8","150","149.87","115.01","34.87","18.96","57.6","10.42","90848","18.06","DUALSPOT-UV-BLUE-GREEN-RED-IR","603412","641445","907753","26.313176","9.672447","0.013970","747281","852408","839153","17.386974","5.763298","0.013219","750373","836736","831978","14.796425","4.760349","0.012656","790436","851158","892342","11.997409","3.690843","0.008700","719412","876233","962546","7.850878","2.330394","0.001100","3031","4145","4793","2432","2918","3159","2246","2597","2764","2140","2313","2390","1833","1844","1849","DualSpot on"
"MA200-0420","42614","69","1","1.10","1.6","2023-07-13T12:25:00","120","2023/07/13","12:25:00","-15.795626878738403","35.00280466605909","0.0","12","300","64","65","-1000","-27103","-1232","8","150","149.77","115.01","34.76","19.00","58.1","10.57","90836","18.31","DUALSPOT-UV-BLUE-GREEN-RED-IR","596076","636624","904016","27.138192","10.022316","0.014365","741040","848090","836497","17.910990","5.953896","0.013034","749910","838570","835041","15.229692","4.910565","0.011706","784593","846784","888722","12.338017","3.802450","0.008778","720620","879014","966220","8.062174","2.391346","-0.008615","4213","5911","6905","3377","4064","4406","3127","3587","3806","2971","3220","3332","2566","2449","2399","DualSpot on"
"MA200-0420","42615","69","1","1.10","1.6","2023-07-13T12:30:00","120","2023/07/13","12:30:00","-15.795703291893005","35.002713333116844","0.1","12","300","64","64","-1140","-27272","-1484","8","150","149.63","114.85","34.78","19.12","57.9","10.63","0","0.00","DUALSPOT-UV-BLUE-GREEN-RED-IR","596438","638849","909110","27.631566","10.234287","0.014458","742120","851206","840657","18.257568","6.081987","0.013613","746296","836141","833502","15.525403","5.015302","0.012910","781145","844436","886983","12.582652","3.883928","0.010036","717799","876633","964079","8.231764","2.442397","-0.001021","2523","3580","4201","2237","2730","2976","2137","2500","2673","2137","2350","2445","2062","2050","2045","DualSpot on"
"MA200-0420","42616","69","1","1.10","1.6","2023-07-13T12:35:00","120","2023/07/13","12:35:00","-15.795647978782654","35.002735832938924","0.0","12","300","64","64","-1045","-27245","-1012","8","150","149.41","114.82","34.59","19.37","58.3","10.97","0","0.00","DUALSPOT-UV-BLUE-GREEN-RED-IR","590398","634333","904826","28.185520","10.470596","0.014133","736837","847097","837664","18.619132","6.208366","0.010414","746026","837573","835720","15.829256","5.112880","0.005616","781669","846412","889711","12.825177","3.959833","0.004162","717904","877826","965802","8.398647","2.484935","-0.033282","2833","4012","4709","2334","2708","2895","2197","2342","2411","2119","2201","2238","2030","1718","1586","DualSpot on"
"MA200-0420","42617","69","1","1.10","1.6","2023-07-13T12:40:00","120","2023/07/13","12:40:00","-15.795595705509186","35.00282216607593","0.1","12","300","64","64","-1044","-27047","-1156","8","150","149.95","114.73","35.22","19.56","57.4","10.90","90824","18.94","DUALSPOT-UV-BLUE-GREEN-RED-IR","586888","632369","904025","28.683316","10.690437","0.014346","733059","844495","836206","18.959774","6.343687","0.016164","742350","834910","834009","16.118740","5.222553","0.015959","778246","844000","887944","13.062125","4.043495","0.013676","714851","875141","963359","8.570518","2.538238","0.001676","2548","3666","4330","2201","2848","3173","2094","2585","2820","2072","2383","2522","2092","2114","2123","DualSpot on"
"MA200-0420","42618","69","1","1.10","1.6","2023-07-13T12:45:00","120","2023/07/13","12:45:00","-15.79548466205597","35.002894333098084","0.0","12","300","64","63","-1072","-27072","-1256","8","150","149.59","114.67","34.92","19.75","57.0","10.99","0","0.00","DUALSPOT-UV-BLUE-GREEN-RED-IR","583842","630826","903734","29.187068","10.908722","0.013813","731100","843979","836685","19.290408","6.464529","0.012000","740472","834316","834179","16.397528","5.317164","0.008835","776766","843692","888241","13.286975","4.118631","0.009309","713568","874521","963106","8.724739","2.581827","-0.013017","2580","3671","4323","2137","2565","2781","2018","2249","2360","1967","2158","2244","1878","1743","1687","DualSpot on"
"MA200-0420","42619","69","1","1.10","1.6","2023-07-13T12:50:00","120","2023/07/13","12:50:00","-15.795585334300995","35.00281299953349","0.2","11","300","64","63","-1052","-27003","-1572","8","150","149.77","114.86","34.92","19.92","56.4","10.99","0","0.00","DUALSPOT-UV-BLUE-GREEN-RED-IR","584957","633010","907933","29.457790","11.028919","0.014394","732210","846281","839658","19.491314","6.543797","0.015886","736565","830826","831213","16.571682","5.382602","0.015633","778626","846478","891646","13.431227","4.170565","0.015707","714447","876299","965334","8.833332","2.610585","-0.025336","1384","2022","2403","1296","1683","1878","1258","1556","1699","1260","1492","1596","1320","1150","1079","DualSpot on"
"MA200-0420","42620","69","1","1.10","1.6","2023-07-13T12:55:00","120","2023/07/13","12:55:00","-15.795615792274475","35.00280383275822","0.3","11","300","64","62","-915","-27276","-876","8","150","150.22","115.22","35.00","19.95","55.5","10.77","90796","19.19","DUALSPOT-UV-BLUE-GREEN-RED-IR","582011","630598","905347","29.675754","11.122391","0.013382","729164","843609","837575","19.655938","6.612504","0.018338","739025","834331","835179","16.713209","5.437813","0.017740","776157","844393","889871","13.547818","4.213657","0.017667","712801","874767","963883","8.913239","2.635682","0.005168","1111","1568","1843","1059","1455","1656","1019","1309","1449","1015","1235","1334","968","1001","1015","DualSpot on"
"MA200-0420","42621","69","1","1.10","1.6","2023-07-13T13:00:00","120","2023/07/13","13:00:00","-15.795670211315155","35.00283833313733","0.0","11","300","64","62","-1060","-27075","-1516","8","150","150.21","114.68","35.52","19.95","55.2","10.69","90792","19.19","DUALSPOT-UV-BLUE-GREEN-RED-IR","580941","630630","906600","29.994660","11.254230","0.011631","728686","844273","838917","19.880934","6.693018","0.009544","737453","833595","835017","16.903742","5.503503","0.008496","774390","843351","889216","13.700769","4.263127","0.004405","711596","873892","963190","9.011864","2.663006","-0.019545","1633","2180","2508","1454","1680","1794","1379","1535","1610","1338","1397","1423","1201","1074","1021","DualSpot on"
"MA200-0420","42622","69","1","1.10","1.6","2023-07-13T13:05:00","120","2023/07/13","13:05:00","-15.795628547668457","35.00279949954711","0.1","11","300","64","61","-1192","-26828","-1520","8","150","149.65","114.37","35.28","20.11","55.6","10.93","90780","19.56","DUALSPOT-UV-BLUE-GREEN-RED-IR","579902","630583","907652","30.285748","11.378189","0.012501","728218","844809","839997","20.073312","6.759870","0.007977","732199","828575","830449","17.066638","5.556857","0.004914","774268","843975","890225","13.829649","4.302914","0.000075","711383","874223","963780","9.101526","2.687015","-0.025325","1494","2063","2405","1247","1404","1484","1182","1255","1290","1130","1131","1131","1095","950","890","DualSpot on"
"MA200-0420","42623","69","1","1.10","1.6","2023-07-13T13:10:00","120","2023/07/13","13:10:00","-15.795623660087585","35.00282483268529","0.0","10","300","64","60","-1104","-27119","-1216","8","150","150.21","114.52","35.69","20.26","55.1","10.95","0","0.00","DUALSPOT-UV-BLUE-GREEN-RED-IR","575890","627286","904089","30.592396","11.511070","0.012583","724049","841020","836899","20.281476","6.838363","0.011858","733410","830866","833254","17.241690","5.617484","0.008215","769492","839556","885961","13.971355","4.350327","0.006907","712835","876640","966706","9.202515","2.713592","-0.030769","1572","2186","2557","1347","1630","1774","1269","1410","1478","1241","1332","1374","1231","1040","960","DualSpot on"
"MA200-0420","42624","69","1","1.10","1.6","2023-07-13T13:15:00","120","2023/07/13","13:15:00","-15.79570746421814","35.00278216623701","0.1","10","300","64","60","-1208","-26832","-2011","8","150","149.67","114.63","35.04","20.29","54.9","10.93","0","0.00","DUALSPOT-UV-BLUE-GREEN-RED-IR","577800","630356","909553","30.863746","11.622299","0.011459","721267","838813","835264","20.472666","6.908542","0.011368","731058","829069","831924","17.403660","5.675074","0.011210","774027","845223","892353","14.101848","4.394352","0.009295","710825","874717","964830","9.288948","2.737705","-0.015196","1390","1864","2151","1236","1484","1611","1173","1364","1457","1142","1260","1314","1053","961","923","DualSpot on"
"MA200-0420","42625","69","1","1.10","1.6","2023-07-13T13:20:00","120","2023/07/13","13:20:00","-15.795742690563202","35.00273216608912","0.2","10","300","64","60","-1008","-27066","-1337","8","150","149.89","114.49","35.39","20.21","54.6","10.76","90776","19.38","DUALSPOT-UV-BLUE-GREEN-RED-IR","573514","626416","904676","31.071972","11.714222","0.013108","720713","838924","835946","20.629026","6.975466","0.017816","731900","830681","833976","17.537826","5.730506","0.019004","769367","840697","887920","14.209801","4.436306","0.019155","712095","876661","967221","9.359877","2.762848","0.018410","1068","1525","1802","1012","1401","1600","972","1300","1459","945","1189","1299","865","992","1045","DualSpot on"
"MA200-0420","42626","69","1","1.10","1.6","2023-07-13T13:25:00","120","2023/07/13","13:25:00","-15.79559063911438","35.00285499962047","0.1","10","300","64","60","-1068","-27063","-1372","8","150","149.69","114.57","35.12","20.14","54.6","10.69","90772","19.31","DUALSPOT-UV-BLUE-GREEN-RED-IR","575729","629552","909974","31.274734","11.800156","0.012171","719235","837982","835484","20.779610","7.031811","0.012039","729589","828743","832469","17.667618","5.777839","0.012451","772740","844949","892752","14.313103","4.471805","0.010464","709982","874460","964967","9.423496","2.782406","0.000451","1039","1437","1678","974","1189","1299","940","1119","1205","904","1014","1063","775","778","779","DualSpot on"
"MA200-0420","42627","69","1","1.10","1.6","2023-07-13T13:30:00","120","2023/07/13","13:30:00","-15.795656323432922","35.00275566638447","0.3","12","300","64","59","-1037","-27062","-1312","8","150","149.47","114.86","34.61","20.11","54.8","10.72","90760","19.38","DUALSPOT-UV-BLUE-GREEN-RED-IR","573792","628292","909021","31.505294","11.894676","0.011642","717370","836719","834760","20.955036","7.098174","0.013300","728207","827987","832159","17.821830","5.833736","0.013005","772078","844957","893140","14.441758","4.516437","0.012496","709986","874963","965805","9.510117","2.811350","0.014087","1179","1604","1862","1132","1421","1569","1114","1340","1451","1123","1293","1371","1053","1168","1216","DualSpot on"
"MA200-0420","42628","69","1","1.10","1.6","2023-07-13T13:35:00","120","2023/07/13","13:35:00","-15.795832097530365","35.002717833034694","0.1","12","300","64","59","-1092","-27036","-1464","8","150","150.64","114.86","35.79","20.17","54.9","10.82","90768","19.44","DUALSPOT-UV-BLUE-GREEN-RED-IR","570031","625268","905819","31.806922","12.022320","0.011489","718245","839067","837907","21.204364","7.189644","0.009981","728782","829848","834671","18.043620","5.912791","0.009776","767052","840480","888988","14.630133","4.580947","0.008618","706599","871589","962462","9.641256","2.851624","-0.002158","1542","2094","2430","1609","1894","2041","1603","1833","1946","1645","1808","1882","1594","1572","1562","DualSpot on"
"MA200-0420","42629","69","1","1.10","1.6","2023-07-13T13:40:00","120","2023/07/13","13:40:00","-15.795643031597137","35.002784999785945","0.1","12","300","64","58","-1122","-26891","-1471","8","150","149.90","114.90","35.00","20.07","54.4","10.58","90760","19.13","DUALSPOT-UV-BLUE-GREEN-RED-IR","569289","625235","906607","32.026462","12.116348","0.012334","718163","839884","839294","21.380164","7.261902","0.016179","728445","830257","835591","18.200042","5.974426","0.016704","766320","840345","889243","14.756566","4.626739","0.014624","706256","871645","962813","9.725224","2.879679","0.012428","1122","1577","1855","1134","1530","1734","1130","1461","1624","1104","1312","1407","1020","1119","1161","DualSpot on"
"MA200-0420","42630","69","1","1.10","1.6","2023-07-13T13:45:00","120","2023/07/13","13:45:00","-15.795650362968445","35.002801166148856","0.2","12","300","64","58","-1040","-26947","-1952","8","150","149.52","114.59","34.93","20.06","54.5","10.61","90744","19.31","DUALSPOT-UV-BLUE-GREEN-RED-IR","569953","626511","908993","32.173980","12.177380","0.011344","719296","841850","841605","21.499576","7.304293","0.009281","724464","826223","831831","18.302248","6.009512","0.008642","768191","842896","892235","14.843282","4.655414","0.007410","707673","873723","965227","9.779139","2.896680","0.004775","756","1026","1190","772","899","965","740","833","879","759","823","853","657","679","689","DualSpot on"
"MA200-0420","42631","69","1","1.10","1.6","2023-07-13T13:50:00","120","2023/07/13","13:50:00","-15.795604348182678","35.00278399977833","0.1","12","300","64","58","-1056","-27072","-1603","8","150","149.93","114.61","35.32","20.19","54.6","10.74","90744","19.44","DUALSPOT-UV-BLUE-GREEN-RED-IR","567254","624399","906940","32.418042","12.284676","0.012561","715919","838890","839288","21.694438","7.379286","0.012623","722138","824514","830634","18.475544","6.072143","0.011079","765916","841189","890867","14.988714","4.705242","0.009348","705770","872025","963687","9.886515","2.930007","0.001018","1250","1784","2109","1260","1574","1735","1255","1472","1578","1273","1415","1480","1308","1318","1322","DualSpot on"
"MA200-0420","42632","69","1","1.10","1.6","2023-07-13T13:55:00","120","2023/07/13","13:55:00","-15.795571863651276","35.002791666425765","0.1","13","300","64","57","-1087","-27125","-1504","8","150","150.15","115.05","35.10","20.25","54.4","10.75","0","0.00","DUALSPOT-UV-BLUE-GREEN-RED-IR","566063","623958","907213","32.661034","12.384895","0.011076","715048","838919","839956","21.892762","7.451526","0.010377","720651","823764","830387","18.652752","6.134778","0.010243","764103","840056","890069","15.137499","4.755272","0.008563","704358","870924","962795","9.993084","2.961774","-0.003372","1240","1677","1943","1277","1525","1653","1278","1481","1580","1297","1430","1490","1294","1264","1251","DualSpot on"
"MA200-0420","42633","69","1","1.10","1.6","2023-07-13T14:00:00","120","2023/07/13","14:00:00","-15.795712769031525","35.002733666449785","0.2","13","300","64","56","-1054","-26954","-1158","8","150","149.73","114.87","34.86","20.25","53.9","10.60","0","0.00","DUALSPOT-UV-BLUE-GREEN-RED-IR","563414","621548","904286","32.804204","12.450687","0.013813","712142","836029","837454","22.006410","7.499564","0.016963","722589","826459","833436","18.754034","6.174488","0.016165","761020","837055","887187","15.219902","4.785728","0.015838","706735","874240","966619","10.052763","2.980689","0.005883","732","1108","1338","733","1021","1170","732","945","1050","719","876","948","725","757","771","DualSpot on"
"MA200-0420","42634","69","1","1.10","1.6","2023-07-13T14:05:00","120","2023/07/13","14:05:00","-15.795764923095703","35.00275049987249","0.4","13","300","64","56","-1216","-27040","-1560","8","150","149.95","114.93","35.02","20.15","53.6","10.43","0","0.00","DUALSPOT-UV-BLUE-GREEN-RED-IR","564738","623429","907503","32.921288","12.501991","0.012570","713600","838178","839979","22.103012","7.545129","0.020543","719527","823321","830624","18.838048","6.214539","0.024267","763622","840254","890828","15.288342","4.817571","0.028438","703994","871046","963273","10.093435","2.998535","0.038133","598","860","1020","623","964","1141","606","949","1118","597","912","1057","494","711","803","DualSpot on"
"MA200-0420","42635","69","1","1.10","1.6","2023-07-13T14:10:00","120","2023/07/13","14:10:00","-15.795586943626404","35.002753499662504","0.2","13","300","64","56","-1096","-27019","-1796","8","150","149.71","114.86","34.85","20.12","53.9","10.48","0","0.00","DUALSPOT-UV-BLUE-GREEN-RED-IR","564053","623771","909210","33.234806","12.636539","0.012055","707567","832314","834888","22.344600","7.638974","0.013362","719186","824041","831995","19.047946","6.293871","0.014087","763733","841332","892574","15.464346","4.881302","0.014242","704459","872251","964988","10.208395","3.037949","0.015287","1603","2267","2674","1559","1996","2223","1517","1889","2073","1537","1834","1971","1398","1579","1656","DualSpot on"
"MA200-0420","42636","69","1","1.10","1.6","2023-07-13T14:15:00","120","2023/07/13","14:15:00","-15.795621573925018","35.00280683278106","0.2","13","300","64","55","-1151","-26982","-1805","8","150","149.89","114.57","35.31","20.28","54.0","10.67","90712","19.63","DUALSPOT-UV-BLUE-GREEN-RED-IR","562503","622985","909111","33.498696","12.750504","0.011734","706270","831875","835093","22.551268","7.713999","0.009434","717357","822929","831404","19.233064","6.357669","0.007799","761627","839876","891479","15.619519","4.932520","0.006010","702903","871055","963991","10.324379","3.071174","-0.010818","1352","1895","2229","1337","1574","1698","1341","1499","1578","1358","1455","1499","1414","1314","1272","DualSpot on"
"MA200-0420","42637","69","1","1.10","1.6","2023-07-13T14:20:00","120","2023/07/13","14:20:00","-15.795677840709686","35.002776166191325","0.3","13","300","64","55","-963","-27100","-1296","8","150","149.84","114.71","35.13","20.35","53.6","10.61","90716","19.56","DUALSPOT-UV-BLUE-GREEN-RED-IR","562439","623798","911215","33.742108","12.853924","0.011407","706292","832964","836796","22.751832","7.790505","0.011951","717026","823504","832499","19.411732","6.421145","0.009945","755069","833464","885139","15.769358","4.982512","0.007334","703028","871913","965244","10.435154","3.104203","-0.003743","1246","1729","2026","1296","1614","1780","1293","1500","1602","1310","1427","1481","1349","1313","1298","DualSpot on"
"MA200-0420","42638","69","1","1.10","1.6","2023-07-13T14:25:00","120","2023/07/13","14:25:00","-15.795604467391968","35.00281283282675","0.3","13","300","64","55","-1166","-27083","-1208","8","150","150.15","115.09","35.06","20.37","53.4","10.59","0","0.00","DUALSPOT-UV-BLUE-GREEN-RED-IR","560524","622363","909810","33.931100","12.928730","0.009607","704236","831300","835593","22.899456","7.842241","0.008132","715695","822661","832020","19.539946","6.464803","0.007661","760873","840499","892883","15.877081","5.016684","0.003591","702318","871509","965017","10.510605","3.123341","-0.029728","964","1253","1431","950","1093","1168","924","1033","1087","939","977","995","915","762","697","DualSpot on"
"MA200-0420","42639","69","1","1.10","1.6","2023-07-13T14:30:00","120","2023/07/13","14:30:00","-15.795614838600159","35.00280666630715","0.2","12","300","64","54","-1075","-27091","-1579","8","150","150.21","114.80","35.42","20.40","53.6","10.67","0","0.00","DUALSPOT-UV-BLUE-GREEN-RED-IR","555945","617819","903713","34.082216","12.991104","0.010363","704478","832242","836858","23.017468","7.885612","0.009791","715551","823042","832728","19.643612","6.500074","0.006781","753868","833252","885410","15.962870","5.044193","0.003413","702245","871762","965466","10.566978","3.141226","0.003672","773","1034","1195","762","907","983","749","826","864","749","779","792","685","705","713","DualSpot on"
"MA200-0420","42640","69","1","1.10","1.6","2023-07-13T14:35:00","120","2023/07/13","14:35:00","-15.795626878738403","35.00274449959397","0.1","13","300","64","54","-1144","-27032","-1652","8","150","149.87","115.05","34.83","20.43","53.9","10.76","90716","19.63","DUALSPOT-UV-BLUE-GREEN-RED-IR","555377","618145","905203","34.343704","13.100758","0.011175","704019","832785","838064","23.223544","7.962298","0.011137","715116","823520","833753","19.825352","6.565476","0.011102","753350","833513","886180","16.113478","5.096331","0.010770","701882","871943","965967","10.672688","3.173405","0.000738","1335","1849","2166","1327","1632","1791","1311","1559","1681","1313","1501","1589","1283","1290","1293","DualSpot on"
"MA200-0420","42641","69","1","1.10","1.6","2023-07-13T14:40:00","120","2023/07/13","14:40:00","-15.79563969373703","35.002769832732156","0.0","13","300","64","54","-1140","-26952","-1540","8","150","149.44","114.57","34.86","20.47","53.6","10.73","0","0.00","DUALSPOT-UV-BLUE-GREEN-RED-IR","553593","616987","904482","34.585492","13.209312","0.012571","702265","831613","837528","23.411492","8.038971","0.014589","713528","822510","833278","19.993732","6.632091","0.015500","752570","833356","886488","16.254368","5.148801","0.015182","701085","871561","965881","10.774223","3.205569","0.005117","1239","1828","2192","1216","1630","1846","1220","1586","1768","1233","1509","1637","1237","1288","1310","DualSpot on"
"MA200-0420","42642","69","1","1.10","1.6","2023-07-13T14:45:00","120","2023/07/13","14:45:00","-15.795645713806152","35.002787666162476","0.2","13","300","64","53","-1066","-27083","-1179","8","150","149.50","115.09","34.41","20.31","52.9","10.39","0","0.00","DUALSPOT-UV-BLUE-GREEN-RED-IR","553185","617301","905854","34.808752","13.308601","0.012669","701918","832108","838680","23.596998","8.116892","0.016170","709022","818132","829395","20.160114","6.699332","0.017108","753961","835638","889374","16.394238","5.201438","0.016755","701872","873063","967838","10.868942","3.240185","0.022125","1139","1694","2038","1194","1678","1932","1200","1622","1832","1219","1534","1681","1149","1405","1513","DualSpot on"
"MA200-0420","42643","69","1","1.10","1.6","2023-07-13T14:50:00","120","2023/07/13","14:50:00","-15.795795679092407","35.0027366662398","0.1","13","300","64","53","-1116","-27141","-1225","8","150","149.62","114.86","34.76","20.25","53.4","10.47","90708","19.50","DUALSPOT-UV-BLUE-GREEN-RED-IR","551801","616456","905318","35.008244","13.391727","0.010831","700544","831261","838259","23.744546","8.170347","0.009741","712009","822280","833941","20.286124","6.743353","0.009269","751831","833853","887810","16.498018","5.238454","0.012582","700798","872094","966970","10.932991","3.260685","0.006957","1020","1404","1643","952","1140","1238","910","1051","1121","906","1068","1143","778","823","843","DualSpot on"
"MA200-0420","42644","69","1","1.10","1.6","2023-07-13T14:55:00","120","2023/07/13","14:55:00","-15.795760989189148","35.002738166134804","0.0","13","300","64","52","-996","-27091","-1500","8","150","150.64","114.48","36.16","20.30","53.3","10.48","90712","19.44","DUALSPOT-UV-BLUE-GREEN-RED-IR","551198","616830","907242","35.321408","13.535324","0.011965","700478","832205","839950","23.954302","8.255986","0.012880","712310","823513","835814","20.468226","6.814467","0.012775","752268","835115","889610","16.643866","5.290324","0.009356","701159","873157","968485","11.034527","3.294845","0.007686","1606","2332","2782","1358","1755","1964","1320","1632","1788","1278","1438","1513","1239","1319","1353","DualSpot on"
"MA200-0420","42645","69","1","1.10","1.6","2023-07-13T15:00:00","120","2023/07/13","15:00:00","-15.795748114585876","35.00273449975066","0.1","14","300","64","52","-1150","-26991","-1441","8","150","149.60","114.84","34.76","20.35","52.8","10.40","90704","19.56","DUALSPOT-UV-BLUE-GREEN-RED-IR","551818","618353","910411","35.557056","13.638401","0.011792","696330","828165","836442","24.132746","8.325720","0.012748","708064","819383","832128","20.624144","6.873053","0.012886","753816","837523","892603","16.775766","5.337001","0.011845","697791","869505","964686","11.126678","3.323646","0.003984","1205","1741","2075","1151","1487","1663","1127","1399","1535","1152","1347","1438","1120","1157","1172","DualSpot on"
"MA200-0420","42646","69","1","1.10","1.6","2023-07-13T15:05:00","120","2023/07/13","15:05:00","-15.795617878437042","35.002756499452516","0.1","14","300","64","51","-1116","-27032","-1344","8","150","149.82","114.81","35.01","20.54","53.2","10.67","0","0.00","DUALSPOT-UV-BLUE-GREEN-RED-IR","548100","615067","906574","35.814368","13.752232","0.011797","697641","830716","839563","24.311752","8.388310","0.007522","708826","821156","834310","20.779484","6.923849","0.004707","749315","833262","888412","16.902740","5.377218","0.003173","698645","871168","966818","11.223824","3.349733","-0.018277","1316","1909","2279","1155","1325","1414","1123","1204","1245","1109","1152","1172","1182","1040","980","DualSpot on"
"MA200-0420","42647","69","1","1.10","1.6","2023-07-13T15:10:00","120","2023/07/13","15:10:00","-15.795792520046234","35.002713666297495","0.0","14","300","64","51","-1024","-27036","-1012","8","150","149.74","114.26","35.48","20.79","52.9","10.84","0","0.00","DUALSPOT-UV-BLUE-GREEN-RED-IR","547463","614998","907233","36.000536","13.836708","0.011900","697288","830971","840297","24.452514","8.445106","0.012837","708105","820947","834460","20.901216","6.968249","0.009935","748849","833309","888775","17.008202","5.415912","0.012375","697796","870666","966485","11.313454","3.375902","-0.008215","957","1398","1674","913","1186","1331","884","1039","1116","926","1094","1172","1095","1030","1002","DualSpot on"
"MA200-0420","42648","69","1","1.10","1.6","2023-07-13T15:15:00","120","2023/07/13","15:15:00","-15.795623540878296","35.002780499868095","0.1","13","300","64","50","-1196","-26960","-1603","8","150","150.08","114.38","35.71","20.79","52.3","10.67","90700","19.94","DUALSPOT-UV-BLUE-GREEN-RED-IR","547500","615686","908973","36.188676","13.919643","0.011083","691763","825097","834793","24.587020","8.499147","0.012400","704279","817063","830913","21.017134","7.013456","0.012953","749524","834541","890368","17.100476","5.447703","0.007718","694046","866380","961923","11.377289","3.392805","-0.024262","966","1364","1613","871","1122","1254","841","1051","1156","809","893","932","779","661","611","DualSpot on"
"MA200-0420","42649","69","1","1.10","1.6","2023-07-13T15:20:00","120","2023/07/13","15:20:00","-15.795640528202057","35.0027498328127","0.1","13","300","64","50","-1084","-27016","-1344","8","150","149.91","114.65","35.26","20.66","51.2","10.23","0","0.00","DUALSPOT-UV-BLUE-GREEN-RED-IR","547517","616195","910334","36.331576","13.980827","0.010715","692417","826344","836499","24.699998","8.550563","0.017135","704455","817711","831931","21.115394","7.056985","0.018856","750183","835665","891887","17.178586","5.480597","0.020469","694475","867189","962975","11.426319","3.410131","0.015335","732","1019","1198","730","1081","1266","711","1024","1182","683","935","1054","597","686","724","DualSpot on"
"MA200-0420","42650","69","1","1.10","1.6","2023-07-13T15:25:00","120","2023/07/13","15:25:00","-15.795705258846283","35.00268383300863","0.1","13","300","64","49","-1070","-27191","-1379","8","150","149.89","114.73","35.16","20.63","51.5","10.29","0","0.00","DUALSPOT-UV-BLUE-GREEN-RED-IR","545814","615049","909459","36.550800","14.073414","0.010421","690167","824544","835181","24.866076","8.612123","0.009768","702888","816684","831300","21.260064","7.108057","0.008749","748712","834662","891199","17.296410","5.522425","0.010923","693682","866628","962578","11.497868","3.434372","0.011390","1122","1546","1812","1073","1298","1417","1046","1206","1286","1030","1193","1270","871","963","1002","DualSpot on"
"MA200-0420","42651","69","1","1.10","1.6","2023-07-13T15:30:00","120","2023/07/13","15:30:00","-15.795658886432648","35.002769666258246","0.1","12","300","64","49","-1012","-26958","-1387","8","150","150.54","114.26","36.28","20.71","51.6","10.38","90700","19.88","DUALSPOT-UV-BLUE-GREEN-RED-IR","542464","612749","907845","36.975700","14.265808","0.011076","692558","829010","840774","25.180722","8.736554","0.010848","703795","819160","834704","21.533248","7.211431","0.010390","745106","831877","888928","17.522988","5.602360","0.008008","695610","869986","966814","11.655949","3.485255","0.001643","2184","3114","3699","2041","2542","2808","1985","2365","2557","1989","2210","2314","1932","1959","1970","DualSpot on"
"MA200-0420","42652","69","1","1.10","1.6","2023-07-13T15:35:00","120","2023/07/13","15:35:00","-15.795675218105316","35.00277449958958","0.0","12","300","64","48","-987","-27033","-1125","8","150","149.63","114.38","35.25","20.58","51.1","10.10","0","0.00","DUALSPOT-UV-BLUE-GREEN-RED-IR","537685","609607","906053","37.672804","14.588131","0.011930","687799","825514","838831","25.644242","8.928293","0.013424","700707","817475","834243","21.921252","7.365180","0.013724","741674","829596","887484","17.827192","5.714874","0.012761","693756","868716","965984","11.837997","3.545430","0.007923","3579","5370","6502","3004","4032","4581","2816","3621","4028","2668","3202","3454","2223","2384","2453","DualSpot on"
"MA200-0420","42653","69","1","1.10","1.6","2023-07-13T15:40:00","120","2023/07/13","15:40:00","-15.795690953731537","35.002742499578744","0.1","13","300","64","48","-1170","-27179","-1233","8","150","149.47","114.43","35.04","20.47","51.3","10.08","0","0.00","DUALSPOT-UV-BLUE-GREEN-RED-IR","536677","610066","908694","38.139092","14.792774","0.010864","687368","826622","841012","25.962006","9.050572","0.010883","696024","813380","830920","22.190376","7.464986","0.010870","743286","832601","891377","18.041230","5.788750","0.008735","690564","865483","962778","11.965103","3.585111","0.002254","2393","3430","4086","2058","2586","2869","1952","2364","2573","1876","2115","2227","1551","1581","1594","DualSpot on"
"MA200-0420","42654","69","1","1.10","1.6","2023-07-13T15:45:00","120","2023/07/13","15:45:00","-15.795691847801208","35.00276449974626","0.1","13","300","64","47","-1112","-26972","-1472","8","150","150.56","114.88","35.67","20.46","51.8","10.20","90700","19.50","DUALSPOT-UV-BLUE-GREEN-RED-IR","534487","609242","909512","38.645384","15.020100","0.010913","680442","820049","835458","26.319062","9.191203","0.011093","694491","813168","831667","22.501956","7.582214","0.010750","741616","832081","891617","18.295512","5.878863","0.009412","690015","865764","963595","12.134357","3.640304","0.005504","2588","3742","4476","2304","2922","3254","2251","2728","2970","2220","2534","2682","2058","2161","2205","DualSpot on"
"MA200-0420","42655","69","1","1.10","1.6","2023-07-13T15:50:00","120","2023/07/13","15:50:00","-15.795644402503967","35.00278833298944","0.0","13","300","64","47","-1104","-27047","-1384","8","150","149.63","114.85","34.78","20.47","52.1","10.30","90696","19.63","DUALSPOT-UV-BLUE-GREEN-RED-IR","529855","605144","904869","39.007800","15.189377","0.012061","680944","821850","838074","26.557776","9.283920","0.011408","695028","814833","833991","22.706190","7.658844","0.011678","736826","827602","887338","18.462466","5.937725","0.010563","691420","868214","966656","12.246639","3.675617","0.004272","1853","2859","3500","1540","1976","2210","1476","1829","2009","1458","1698","1811","1365","1418","1441","DualSpot on"
"MA200-0420","42656","69","1","1.10","1.6","2023-07-13T15:55:00","120","2023/07/13","15:55:00","-15.79563182592392","35.00279016653076","0.5","12","300","64","46","-1195","-26991","-1254","8","150","150.21","114.43","35.79","20.50","52.2","10.37","90692","19.69","DUALSPOT-UV-BLUE-GREEN-RED-IR","530530","606621","908021","39.230452","15.290302","0.010809","681881","823826","840636","26.724780","9.350349","0.011031","695013","815570","835208","22.852824","7.711688","0.008176","737484","829016","889231","18.586198","5.980742","0.007600","691483","868830","967604","12.334808","3.701252","-0.009068","1142","1656","1984","1081","1376","1534","1063","1225","1308","1084","1205","1263","1076","1000","968","DualSpot on"
"MA200-0420","42657","69","1","1.10","1.6","2023-07-13T16:00:00","120","2023/07/13","16:00:00","-15.795677840709686","35.00275466614403","0.0","12","300","64","46","-1054","-27120","-1504","8","150","149.69","114.30","35.39","20.57","52.4","10.49","0","0.00","DUALSPOT-UV-BLUE-GREEN-RED-IR","529796","606487","908659","39.440548","15.383545","0.010529","681210","823869","841214","26.894564","9.414144","0.009189","690233","810719","830702","23.003860","7.766600","0.009045","737428","829621","890284","18.713504","6.023815","0.006420","691183","868998","968091","12.429115","3.730276","-0.000715","1079","1547","1846","1101","1336","1462","1097","1288","1385","1117","1220","1270","1152","1145","1142","DualSpot on"
"MA200-0420","42658","69","1","1.10","1.6","2023-07-13T16:05:00","120","2023/07/13","16:05:00","-15.795687675476074","35.00272399955429","0.0","12","300","64","45","-1152","-27036","-1016","8","150","149.56","114.69","34.87","20.54","52.1","10.36","0","0.00","DUALSPOT-UV-BLUE-GREEN-RED-IR","527260","604151","905961","39.625656","15.473003","0.012408","678155","820806","838608","27.035578","9.476994","0.015452","692270","813703","834191","23.127490","7.819698","0.016605","734442","826780","887595","18.816774","6.064884","0.016608","689415","867191","966292","12.500492","3.756110","0.017121","947","1506","1864","911","1336","1565","894","1264","1452","903","1181","1314","869","1034","1106","DualSpot on"
"MA200-0420","42659","69","1","1.10","1.6","2023-07-13T16:10:00","120","2023/07/13","16:10:00","-15.795678496360779","35.00270566623658","0.1","13","300","64","44","-1156","-27160","-1432","8","150","150.08","114.72","35.36","20.47","51.6","10.17","90704","19.56","DUALSPOT-UV-BLUE-GREEN-RED-IR","525903","603108","904985","39.771468","15.538490","0.010775","677212","820203","838393","27.144632","9.521176","0.012017","690929","812583","833352","23.223502","7.857186","0.012367","732958","825515","886488","18.896686","6.093708","0.010618","688525","866350","965580","12.553627","3.773551","0.006754","746","1087","1306","704","926","1045","694","880","974","698","817","874","647","688","706","DualSpot on"
"MA200-0420","42660","69","1","1.10","1.6","2023-07-13T16:15:00","120","2023/07/13","16:15:00","-15.79566866159439","35.002731666201726","0.0","13","300","64","43","-1129","-27075","-1408","8","150","149.89","114.65","35.23","20.47","51.3","10.07","90696","19.56","DUALSPOT-UV-BLUE-GREEN-RED-IR","523425","600775","902080","39.922536","15.606827","0.010936","673869","816707","835222","27.263528","9.571890","0.013723","688618","810416","831480","23.326916","7.898271","0.013154","730280","822921","883950","18.978336","6.124024","0.012388","686914","864645","963825","12.605083","3.790134","0.005165","773","1139","1373","768","1067","1228","748","968","1080","714","863","934","626","657","670","DualSpot on"
"MA200-0420","42661","69","1","1.10","1.6","2023-07-13T16:20:00","120","2023/07/13","16:20:00","-15.795647501945496","35.00274166627787","0.2","13","300","64","43","-1108","-27068","-1664","8","150","150.34","114.38","35.97","20.47","51.6","10.15","90708","19.63","DUALSPOT-UV-BLUE-GREEN-RED-IR","525481","603678","907127","40.091632","15.681030","0.009821","677338","821562","840570","27.385286","9.616628","0.007526","686491","808417","829744","23.430206","7.936241","0.008687","733512","827053","888656","19.063652","6.152492","0.004342","689299","868001","967691","12.658554","3.807144","0.001291","868","1211","1432","789","922","994","749","876","941","748","794","815","653","660","663","DualSpot on"
"MA200-0420","42662","69","1","1.10","1.6","2023-07-13T16:25:00","120","2023/07/13","16:25:00","-15.795635223388672","35.002791999839246","0.1","13","300","64","43","-1055","-27075","-1352","8","150","149.90","114.86","35.04","20.47","51.5","10.13","90708","19.56","DUALSPOT-UV-BLUE-GREEN-RED-IR","524156","603015","907166","40.343356","15.795364","0.011043","675696","820466","840091","27.571192","9.693090","0.012672","689612","812891","834858","23.592526","7.999590","0.012590","732060","826109","888103","19.196716","6.202264","0.013043","688309","867236","967136","12.746677","3.837411","0.011969","1287","1916","2321","1199","1617","1844","1173","1500","1669","1162","1425","1550","1071","1206","1264","DualSpot on"
"MA200-0420","42663","69","1","1.10","1.6","2023-07-13T16:30:00","120","2023/07/13","16:30:00","-15.795602977275848","35.002722832839936","0.3","13","300","64","42","-1096","-27008","-1112","8","150","149.53","114.59","34.94","20.35","51.1","9.89","90712","19.44","DUALSPOT-UV-BLUE-GREEN-RED-IR","522301","602096","907387","40.722868","15.974461","0.011640","668832","813353","833778","27.839868","9.810088","0.014295","684325","807722","830377","23.825062","8.098266","0.015631","732351","827434","890163","19.389536","6.279258","0.016196","683963","862436","962240","12.873940","3.882687","0.014974","1945","3010","3698","1738","2482","2887","1684","2344","2684","1688","2210","2461","1551","1810","1921","DualSpot on"
"MA200-0420","42664","69","1","1.10","1.6","2023-07-13T16:35:00","120","2023/07/13","16:35:00","-15.795622706413269","35.00270499964245","0.1","13","300","64","41","-1044","-27184","-1919","8","150","149.38","114.29","35.10","20.21","50.8","9.67","90712","19.25","DUALSPOT-UV-BLUE-GREEN-RED-IR","522216","602793","909467","40.966192","16.082748","0.010378","674253","820932","842246","28.038608","9.891982","0.012328","684263","808529","831818","24.003844","8.169761","0.013091","733342","829292","892686","19.538402","6.335316","0.012839","684975","864257","964603","12.970413","3.917194","0.014725","1250","1812","2175","1289","1729","1970","1298","1691","1893","1306","1602","1744","1179","1373","1457","DualSpot on"
"MA200-0420","42665","69","1","1.10","1.6","2023-07-13T16:40:00","120","2023/07/13","16:40:00","-15.795640528202057","35.0027004997246","0.1","13","300","64","40","-1072","-26980","-1552","8","150","149.44","114.38","35.06","20.05","50.7","9.51","90716","19.00","DUALSPOT-UV-BLUE-GREEN-RED-IR","518195","599716","906697","41.436488","16.290798","0.010185","669428","816998","839594","28.445502","10.059317","0.012154","680523","805911","830292","24.373862","8.316787","0.012725","728728","825711","889889","19.856890","6.454451","0.012390","682412","862254","963136","13.195015","3.996029","0.013049","2415","3485","4178","2637","3538","4030","2685","3481","3893","2793","3408","3705","2743","3141","3313","DualSpot on"
"MA200-0420","42666","69","1","1.10","1.6","2023-07-13T16:45:00","120","2023/07/13","16:45:00","-15.79567551612854","35.00273083290085","0.1","13","300","64","40","-1004","-26960","-1176","8","150","149.79","114.87","34.92","19.80","50.7","9.27","90724","18.69","DUALSPOT-UV-BLUE-GREEN-RED-IR","517067","599132","906650","41.649088","16.382816","0.009872","667880","815952","839172","28.625306","10.133410","0.012398","679313","805285","830201","24.536026","8.381619","0.013188","727626","825204","889772","19.993814","6.505532","0.012594","682079","862319","963485","13.277031","4.026328","0.017765","1087","1547","1846","1160","1572","1798","1172","1541","1732","1195","1467","1598","997","1211","1305","DualSpot on"
"MA200-0420","42667","69","1","1.10","1.6","2023-07-13T16:50:00","120","2023/07/13","16:50:00","-15.7956041097641","35.002733333269134","0.1","13","300","64","40","-1140","-27112","-1308","8","150","149.69","114.77","34.92","19.60","50.9","9.16","90740","18.50","DUALSPOT-UV-BLUE-GREEN-RED-IR","516660","599430","908016","41.879404","16.484962","0.010270","667452","816366","840224","28.812574","10.209681","0.011939","679430","806212","831705","24.702076","8.448878","0.013556","728087","826438","891583","20.132726","6.556573","0.011692","683289","864261","965975","13.361832","4.058726","0.020100","1178","1718","2068","1209","1619","1843","1201","1599","1805","1214","1466","1588","1032","1296","1411","DualSpot on"
"MA200-0420","42668","69","1","1.10","1.6","2023-07-13T16:55:00","120","2023/07/13","16:55:00","-15.795614302158356","35.00278899958357","0.0","13","300","64","39","-1048","-27084","-1392","8","150","150.08","115.17","34.92","19.46","51.2","9.10","0","0.00","DUALSPOT-UV-BLUE-GREEN-RED-IR","515158","598542","907727","42.141100","16.601524","0.010354","665723","815251","839746","29.014446","10.290331","0.011370","678268","805702","831766","24.880446","8.518705","0.012336","721141","819292","884342","20.280436","6.610676","0.011633","683046","864537","966614","13.458561","4.093226","0.015026","1334","1960","2367","1299","1712","1939","1285","1660","1855","1286","1554","1684","1173","1380","1470","DualSpot on"
"MA200-0420","42669","69","1","1.10","1.6","2023-07-13T17:00:00","120","2023/07/13","17:00:00","-15.795614957809448","35.00272533297539","0.4","13","300","64","38","-1104","-26963","-1308","8","150","149.79","114.65","35.14","19.29","51.3","9.00","0","0.00","DUALSPOT-UV-BLUE-GREEN-RED-IR","514095","598148","908204","42.393816","16.717915","0.010698","659353","808353","833343","29.216582","10.374315","0.012164","677470","805626","832304","25.061770","8.592030","0.013049","721032","819947","885565","20.432730","6.667718","0.012131","679133","860056","961974","13.555199","4.131193","0.021278","1294","1945","2369","1307","1771","2027","1313","1732","1951","1332","1628","1771","1177","1509","1654","DualSpot on"
"MA200-0420","42670","69","1","1.10","1.6","2023-07-13T17:05:00","120","2023/07/13","17:05:00","-15.795630037784576","35.002771499566734","0.1","14","300","64","38","-1032","-26888","-1816","8","150","149.87","115.01","34.87","19.11","51.6","8.90","90736","17.94","DUALSPOT-UV-BLUE-GREEN-RED-IR","510655","595263","905167","42.730544","16.864026","0.009735","660330","811030","837105","29.510570","10.491953","0.011238","673928","802775","830220","25.330772","8.695570","0.011487","722518","822891","889493","20.663806","6.752520","0.011524","680785","863083","965884","13.713470","4.187542","0.014625","1719","2461","2944","1895","2501","2835","1941","2465","2738","2015","2440","2645","1922","2257","2404","DualSpot on"
"MA200-0420","42671","69","1","1.10","1.6","2023-07-13T17:10:00","120","2023/07/13","17:10:00","-15.79561299085617","35.00280849961564","0.2","13","300","64","38","-932","-27263","-851","8","150","149.47","114.59","34.88","18.93","52.0","8.85","90736","17.75","DUALSPOT-UV-BLUE-GREEN-RED-IR","509520","595040","906034","43.051100","17.003804","0.009685","659045","810772","837731","29.785046","10.600060","0.010524","672763","802557","830805","25.580666","8.791826","0.011261","721846","823253","890580","20.879108","6.830197","0.010344","680939","864036","967473","13.856060","4.239584","0.016092","1643","2353","2818","1775","2297","2586","1810","2291","2543","1885","2234","2404","1738","2084","2237","DualSpot on"
"MA200-0420","42672","69","1","1.10","1.6","2023-07-13T17:15:00","120","2023/07/13","17:15:00","-15.795591652393341","35.00284266634844","0.1","14","300","64","37","-1068","-27096","-1735","8","150","149.59","115.05","34.54","18.73","52.5","8.82","90748","17.63","DUALSPOT-UV-BLUE-GREEN-RED-IR","508155","594708","907162","43.442596","17.178794","0.010291","657676","810787","838929","30.132276","10.740743","0.011681","671906","803124","832421","25.899008","8.918058","0.012685","721419","824182","892514","21.155862","6.932315","0.012011","676507","859472","963023","14.045872","4.308163","0.016154","1998","2975","3614","2237","3019","3452","2297","3034","3421","2413","2966","3235","2304","2773","2981","DualSpot on"
"MA200-0420","42673","69","1","1.10","1.6","2023-07-13T17:20:00","120","2023/07/13","17:20:00","-15.795661568641663","35.00277966633439","0.1","14","300","64","36","-1036","-26875","-1876","8","150","149.47","114.97","34.50","18.58","53.0","8.81","90740","17.44","DUALSPOT-UV-BLUE-GREEN-RED-IR","505924","593404","906835","43.842812","17.362598","0.010668","654710","808695","837952","30.467854","10.881475","0.012546","669701","801902","832184","26.201582","9.040294","0.013204","713805","816789","885394","21.417570","7.032599","0.013639","675767","859513","963672","14.226158","4.373501","0.016229","2044","3129","3841","2163","3024","3502","2184","2941","3340","2283","2916","3226","2190","2645","2848","DualSpot on"
"MA200-0420","42674","69","1","1.10","1.6","2023-07-13T17:25:00","120","2023/07/13","17:25:00","-15.795658528804779","35.00276866625063","0.2","14","300","64","35","-1084","-26972","-1700","8","150","149.77","115.50","34.27","18.38","53.4","8.72","90744","17.25","DUALSPOT-UV-BLUE-GREEN-RED-IR","504100","592428","906826","44.207056","17.528358","0.010619","652568","807428","837659","30.765428","11.005894","0.012653","668593","801891","833087","26.473982","9.150355","0.013453","713124","817217","886612","21.649618","7.120944","0.013712","675917","860554","965396","14.380527","4.429397","0.016808","1852","2841","3491","1909","2691","3127","1957","2666","3041","2015","2586","2866","1867","2278","2462","DualSpot on"
"MA200-0420","42675","69","1","1.10","1.6","2023-07-13T17:30:00","120","2023/07/13","17:30:00","-15.79562783241272","35.00279016653076","0.1","14","300","64","35","-1116","-26988","-1436","8","150","149.97","115.16","34.81","18.20","53.8","8.68","90752","17.06","DUALSPOT-UV-BLUE-GREEN-RED-IR","504166","593825","910645","44.612276","17.712536","0.010200","653470","810129","841580","31.091062","11.137763","0.011129","664492","798379","830392","26.762692","9.263391","0.011619","713485","818890","889237","21.894844","7.210116","0.010606","677042","862904","968597","14.544991","4.488163","0.014324","2066","3107","3792","2096","2808","3205","2081","2695","3020","2136","2569","2782","1995","2358","2520","DualSpot on"
"MA200-0420","42676","69","1","1.10","1.6","2023-07-13T17:35:00","120","2023/07/13","17:35:00","-15.795648992061615","35.00276999967173","0.1","13","300","64","35","-940","-27140","-1008","8","150","149.86","114.83","35.03","18.04","54.3","8.67","90752","16.88","DUALSPOT-UV-BLUE-GREEN-RED-IR","498732","588876","904953","45.066744","17.920562","0.010069","647140","803973","836416","31.449952","11.283841","0.010895","663344","798505","831586","27.083868","9.391113","0.011714","713661","820489","891867","22.166342","7.309837","0.010527","673318","859129","964983","14.728821","4.552239","0.011614","2324","3487","4255","2316","3091","3524","2322","3027","3401","2372","2856","3094","2236","2555","2697","DualSpot on"
"MA200-0420","42677","69","1","1.10","1.6","2023-07-13T17:40:00","120","2023/07/13","17:40:00","-15.795673787593842","35.00281366636045","0.1","13","300","64","34","-937","-27212","-675","8","150","150.15","114.88","35.27","17.84","54.9","8.64","90740","16.63","DUALSPOT-UV-BLUE-GREEN-RED-IR","495932","586870","903587","45.482888","18.114124","0.010142","644035","801638","835064","31.775350","11.416984","0.010761","660629","796657","830603","27.375440","9.505689","0.010968","711101","818843","890904","22.415876","7.401771","0.010265","671796","858141","964427","14.892628","4.608450","0.009789","2127","3223","3949","2099","2798","3190","2107","2697","3011","2179","2615","2830","1991","2226","2331","DualSpot on"
"MA200-0420","42678","69","1","1.10","1.6","2023-07-13T17:45:00","120","2023/07/13","17:45:00","-15.795610010623932","35.00280916620977","0.1","13","300","64","34","-1092","-26972","-1603","8","150","149.84","114.86","34.98","17.69","55.3","8.62","0","0.00","DUALSPOT-UV-BLUE-GREEN-RED-IR","495151","587257","906019","45.906896","18.315120","0.010474","643254","802231","836890","32.106746","11.558784","0.012073","660582","798025","833040","27.672408","9.627476","0.012543","705960","814206","886684","22.668262","7.497778","0.011967","668573","854974","961429","15.063694","4.669520","0.013265","2168","3375","4176","2138","3005","3492","2146","2890","3287","2204","2753","3025","2080","2439","2600","DualSpot on"
"MA200-0420","42679","69","1","1.10","1.6","2023-07-13T17:50:00","120","2023/07/13","17:50:00","-15.795563161373138","35.002827999414876","0.3","13","300","64","34","-1204","-26944","-1252","8","150","150.21","115.50","34.71","17.54","55.8","8.60","0","0.00","DUALSPOT-UV-BLUE-GREEN-RED-IR","495435","589007","910662","46.364168","18.529446","0.010406","644174","805148","841208","32.477958","11.711308","0.011233","656796","795017","831017","28.005116","9.758331","0.011482","708062","818134","891891","22.954018","7.602840","0.010911","670421","858401","965975","15.258770","4.738836","0.013712","2325","3626","4493","2382","3257","3751","2391","3130","3524","2482","3036","3311","2359","2789","2983","DualSpot on"
"MA200-0420","42680","69","1","1.10","1.6","2023-07-13T17:55:00","120","2023/07/13","17:55:00","-15.79568749666214","35.00276166643016","0.1","13","300","64","33","-1028","-26944","-1352","8","150","150.27","115.80","34.47","17.43","56.2","8.61","90752","16.25","DUALSPOT-UV-BLUE-GREEN-RED-IR","492273","586387","908292","46.744524","18.716968","0.011180","640694","802132","839152","32.775360","11.840556","0.012774","657695","797354","834380","28.273030","9.871158","0.013768","704197","814783","889041","23.183356","7.693171","0.014065","668044","856182","964049","15.413368","4.796159","0.017057","1929","3195","4041","1903","2779","3275","1920","2717","3144","1986","2629","2948","1864","2323","2530","DualSpot on"
"MA200-0420","42681","69","1","1.10","1.6","2023-07-13T18:00:00","120","2023/07/13","18:00:00","-15.795693218708038","35.00275699957274","0.1","13","300","64","33","-944","-27132","-1416","8","150","150.08","115.21","34.87","17.33","56.6","8.62","90756","16.19","DUALSPOT-UV-BLUE-GREEN-RED-IR","488411","583046","904916","47.157816","18.914742","0.010444","636260","798025","835996","33.097618","11.975254","0.011298","654263","794552","832403","28.560480","9.986658","0.011733","699793","810934","885670","23.431476","7.785903","0.011109","669860","859503","968347","15.589119","4.858001","0.012266","2106","3331","4151","2073","2863","3312","2071","2750","3115","2160","2668","2920","2130","2477","2634","DualSpot on"
"MA200-0420","42682","69","1","1.10","1.6","2023-07-13T18:05:00","120","2023/07/13","18:05:00","-15.795692026615143","35.002825666218996","0.2","13","300","64","33","-1140","-26819","-1424","8","150","150.54","115.17","35.37","17.22","57.1","8.64","90760","16.13","DUALSPOT-UV-BLUE-GREEN-RED-IR","488870","584696","909079","47.524852","19.088414","0.009987","637395","800778","839850","33.379590","12.093503","0.010913","651101","791959","830507","28.814772","10.086842","0.010519","702336","814995","890839","23.648744","7.865612","0.009541","667502","857343","966416","15.739079","4.908165","0.007284","1871","2883","3563","1815","2478","2855","1833","2351","2630","1892","2260","2444","1819","1981","2054","DualSpot on"
"MA200-0420","42683","69","1","1.10","1.6","2023-07-13T18:10:00","120","2023/07/13","18:10:00","-15.795611143112183","35.00276416633278","0.1","13","300","64","32","-1208","-26895","-1475","8","150","150.15","115.29","34.85","17.13","57.4","8.63","90772","16.00","DUALSPOT-UV-BLUE-GREEN-RED-IR","485165","581609","906231","47.969568","19.304444","0.010505","633516","797470","837574","33.715168","12.233725","0.011123","652052","794520","834209","29.111380","10.207674","0.011979","698446","811747","888155","23.900326","7.961516","0.011772","665333","855537","964986","15.913509","4.968101","0.010420","2265","3640","4566","2157","2982","3452","2135","2878","3279","2189","2760","3046","2113","2402","2533","DualSpot on"
"MA200-0420","42684","69","1","1.10","1.6","2023-07-13T18:15:00","120","2023/07/13","18:15:00","-15.795675337314606","35.00275116646662","0.0","14","300","64","32","-1016","-26796","-924","8","150","149.76","114.89","34.87","17.04","57.8","8.65","0","0.00","DUALSPOT-UV-BLUE-GREEN-RED-IR","484428","582059","908853","48.406816","19.515460","0.010271","633268","798642","839911","34.034832","12.367285","0.010923","647833","790703","831152","29.394572","10.319078","0.010662","699551","814264","891673","24.139596","8.048100","0.009277","665956","857232","967377","16.073620","5.022043","0.008588","2235","3554","4445","2062","2839","3283","2046","2652","2980","2089","2491","2692","1946","2161","2258","DualSpot on"
"MA200-0420","42685","69","1","1.10","1.6","2023-07-13T18:20:00","120","2023/07/13","18:20:00","-15.795631349086761","35.00278349989094","0.0","14","300","64","32","-1184","-26952","-1508","8","150","149.71","115.12","34.59","16.91","58.3","8.65","0","0.00","DUALSPOT-UV-BLUE-GREEN-RED-IR","480374","578314","904686","48.792588","19.703308","0.010454","628319","793658","835618","34.306616","12.481105","0.011146","648240","792331","833621","29.630782","10.414089","0.011580","695200","810190","887836","24.336808","8.120191","0.010083","663181","854405","964611","16.204823","5.066137","0.009079","1968","3189","4017","1750","2439","2833","1703","2280","2593","1718","2091","2277","1592","1780","1866","DualSpot on"
"MA200-0420","42686","69","1","1.10","1.6","2023-07-13T18:25:00","120","2023/07/13","18:25:00","-15.795630693435669","35.00276383315213","0.2","14","300","64","31","-1156","-26891","-1960","8","150","149.89","115.20","34.68","16.81","58.7","8.67","0","0.00","DUALSPOT-UV-BLUE-GREEN-RED-IR","479887","578979","907651","49.214084","19.909996","0.010437","628549","795361","838541","34.614604","12.610648","0.011110","643911","788343","830332","29.901718","10.521857","0.011084","695713","812002","890553","24.565860","8.205344","0.010614","663939","856263","967239","16.357746","5.117979","0.009479","2148","3500","4418","1981","2769","3220","1952","2579","2920","1994","2463","2698","1854","2088","2194","DualSpot on"
"MA200-0420","42687","69","1","1.10","1.6","2023-07-13T18:30:00","120","2023/07/13","18:30:00","-15.795619189739227","35.00275866640732","0.3","15","300","64","31","-1080","-26932","-1220","8","150","149.87","114.88","34.99","16.75","58.9","8.67","0","0.00","DUALSPOT-UV-BLUE-GREEN-RED-IR","477180","577328","907495","49.767424","20.181778","0.010197","626059","794112","838670","35.029424","12.787457","0.011022","641727","787401","830572","30.271130","10.670800","0.011010","693989","811547","891126","24.877376","8.323549","0.010841","658782","850820","961792","16.575497","5.192015","0.008734","2829","4561","5743","2676","3745","4360","2669","3533","4004","2720","3389","3725","2647","2955","3096","DualSpot on"
"MA200-0420","42688","69","1","1.10","1.6","2023-07-13T18:35:00","120","2023/07/13","18:35:00","-15.795636892318726","35.00279016653076","0.1","15","300","64","31","-1136","-27019","-1780","8","150","149.63","115.09","34.54","16.69","59.1","8.67","90792","15.56","DUALSPOT-UV-BLUE-GREEN-RED-IR","474237","575175","906180","50.239608","20.411254","0.010162","622857","791636","837286","35.379812","12.934342","0.010876","643360","790858","835238","30.581146","10.795613","0.011297","690412","808699","888886","25.142002","8.421978","0.010527","660860","854530","966560","16.759972","5.254103","0.008968","2409","3902","4923","2257","3152","3668","2236","3000","3416","2306","2859","3137","2239","2511","2635","DualSpot on"
"MA200-0420","42689","69","1","1.10","1.6","2023-07-13T18:40:00","120","2023/07/13","18:40:00","-15.795688509941101","35.00273233279586","0.1","15","300","68","30","-984","-27091","-1224","9","150","149.89","117.38","32.51","16.65","59.4","8.69","90808","15.56","DUALSPOT-UV-BLUE-GREEN-RED-IR","809893","707889","904209","0.000000","0.000000","0.000000","903197","898184","835711","0.000000","0.000000","0.000000","886510","877721","834315","0.000000","0.000000","0.000000","899134","877081","888840","0.000000","0.000000","0.000000","789104","897844","966212","0.000000","0.000000","0.000000","","","","","","","","","","","","","","","","Tape advance-DualSpot on"
"MA200-0420","42690","69","1","1.10","1.6","2023-07-13T18:45:00","120","2023/07/13","18:45:00","-15.795704960823059","35.00269066612236","0.1","14","300","68","30","-920","-27252","-788","9","150","149.65","116.75","32.90","16.58","59.6","8.69","90812","15.50","DUALSPOT-UV-BLUE-GREEN-RED-IR","807468","710348","909577","0.000000","0.000000","0.000000","904961","903003","841259","0.000000","0.000000","0.000000","881334","874955","832540","0.000000","0.000000","0.000000","901549","881213","893708","0.000000","0.000000","0.000000","786745","896304","964921","0.000000","0.000000","0.000000","","","","","","","","","","","","","","","","Tape advance-DualSpot on"
"MA200-0420","42691","69","1","1.10","1.6","2023-07-13T18:50:00","120","2023/07/13","18:50:00","-15.795637369155884","35.00276583293453","0.1","14","300","64","30","-996","-27108","-1496","9","150","149.77","116.78","32.99","16.51","59.9","8.69","90812","15.44","DUALSPOT-UV-BLUE-GREEN-RED-IR","798184","706738","907160","0.891502","0.246856","0.000000","897427","898315","837898","0.436824","0.119453","0.000000","876366","872166","830667","0.337999","0.093102","0.000000","897180","878488","891565","0.244265","0.066055","0.000000","783922","894013","962762","0.134668","0.033089","0.000000","4483","4395","4483","2772","2684","2772","2402","2343","2402","2098","2008","2098","1610","1401","1610","DualSpot on"
"MA200-0420","42692","69","1","1.10","1.6","2023-07-13T18:55:00","120","2023/07/13","18:55:00","-15.795708239078522","35.00273266597651","0.0","14","300","64","29","-1100","-26900","-1611","9","150","149.71","116.71","33.00","16.44","60.2","8.69","90812","15.31","DUALSPOT-UV-BLUE-GREEN-RED-IR","787456","702533","904440","1.944206","0.542898","0.000000","891257","895456","836404","0.945585","0.257027","0.000000","876255","874544","833792","0.729065","0.197226","0.000000","891771","874986","888642","0.521212","0.139176","0.000000","786184","897580","966954","0.283201","0.068540","0.000000","5297","5268","5297","3231","3090","3231","2781","2619","2781","2380","2222","2380","1777","1500","1777","DualSpot on"
"MA200-0420","42693","69","1","1.10","1.6","2023-07-13T19:00:00","120","2023/07/13","19:00:00","-15.795724987983704","35.00268283276819","0.1","14","300","64","29","-1038","-27003","-1276","9","150","149.97","116.42","33.55","16.35","60.5","8.69","90812","15.25","DUALSPOT-UV-BLUE-GREEN-RED-IR","784540","704677","909597","2.880802","0.804832","0.000000","891857","899111","840844","1.408058","0.378847","0.000000","871853","872477","832611","1.088255","0.290566","0.000000","887330","872293","886482","0.779402","0.203543","0.000000","783796","895826","965370","0.422994","0.101152","0.000000","4725","4586","4725","2944","2692","2944","2561","2310","2561","2224","1925","2224","1677","1358","1677","DualSpot on"
"MA200-0420","42694","69","1","1.10","1.6","2023-07-13T19:05:00","120","2023/07/13","19:05:00","-15.795679688453674","35.00275099975988","0.1","13","300","64","29","-1058","-27129","-1737","9","150","149.95","116.90","33.05","16.29","60.8","8.69","90816","15.19","DUALSPOT-UV-BLUE-GREEN-RED-IR","771783","699910","906973","4.233700","1.194986","0.006436","883251","895042","838655","2.115750","0.572556","0.000000","866177","870342","831800","1.644110","0.439596","0.000000","890005","877569","892804","1.185673","0.310654","0.000000","781655","894902","964902","0.643676","0.154877","0.000000","6797","6934","6987","4487","4345","4487","3947","3743","3947","3486","3251","3486","2637","2270","2637","DualSpot on"
"MA200-0420","42695","69","1","1.10","1.6","2023-07-13T19:10:00","120","2023/07/13","19:10:00","-15.795648634433746","35.00276349973865","0.0","13","300","64","28","-940","-27108","-967","9","150","149.47","117.09","32.38","16.22","61.0","8.70","0","0.00","DUALSPOT-UV-BLUE-GREEN-RED-IR","762925","696326","904693","5.135931","1.459232","0.014841","876516","891249","836144","2.580225","0.697487","0.000000","866528","873010","835155","2.008217","0.535887","0.000000","884592","873982","889734","1.450405","0.378007","0.000000","778329","892092","962218","0.790624","0.189497","0.000000","4526","4793","4899","2940","2860","2940","2581","2468","2581","2268","2086","2268","1753","1493","1753","DualSpot on"
"MA200-0420","42696","69","1","1.10","1.6","2023-07-13T19:15:00","120","2023/07/13","19:15:00","-15.795653641223907","35.00273199961521","0.1","13","300","64","28","-1100","-26808","-1727","9","150","149.90","116.37","33.53","16.15","61.3","8.70","0","0.00","DUALSPOT-UV-BLUE-GREEN-RED-IR","759909","698373","910057","6.122972","1.754304","0.008168","877277","895274","841049","3.080475","0.834626","-0.023153","861303","870220","833366","2.398002","0.640815","0.000000","880141","871420","887756","1.733212","0.450507","0.000000","780759","895929","966709","0.946569","0.226817","0.000000","4981","5169","5244","3186","3032","2974","2780","2598","2780","2438","2169","2438","1872","1554","1872","DualSpot on"
"MA200-0420","42697","69","1","1.10","1.6","2023-07-13T19:20:00","120","2023/07/13","19:20:00","-15.79569661617279","35.00271683302708","0.1","13","300","64","28","-1250","-26800","-1845","9","150","149.71","116.82","32.89","16.11","61.7","8.74","90820","15.00","DUALSPOT-UV-BLUE-GREEN-RED-IR","749158","695042","909441","7.466673","2.163601","0.013858","869675","892536","840389","3.859913","1.056551","0.003990","855795","868693","833379","3.030312","0.817305","-0.003912","875480","869856","887381","2.216002","0.582468","0.000000","778777","895586","967037","1.231269","0.298912","0.000000","6755","7309","7535","4946","5002","5023","4493","4455","4441","4146","4025","4146","3404","3062","3404","DualSpot on"
"MA200-0420","42698","69","1","1.10","1.6","2023-07-13T19:25:00","120","2023/07/13","19:25:00","-15.795657813549042","35.002738166134804","0.0","13","300","64","27","-1092","-26846","-1738","9","150","149.89","116.98","32.90","16.06","62.0","8.78","90820","15.00","DUALSPOT-UV-BLUE-GREEN-RED-IR","737358","690323","906878","8.791176","2.566761","0.011826","860478","887834","837680","4.609185","1.263022","-0.006248","848864","865431","831631","3.639811","0.980484","-0.019394","869123","866522","885009","2.681712","0.701625","0.000000","775112","893239","965105","1.509346","0.362995","0.000000","6650","7196","7421","4748","4651","4615","4325","4117","4040","3994","3633","3994","3320","2720","3320","DualSpot on"
"MA200-0420","42699","69","1","1.10","1.6","2023-07-13T19:30:00","120","2023/07/13","19:30:00","-15.795721292495728","35.00274533312768","0.1","13","300","64","27","-1004","-26872","-1432","9","150","149.77","117.12","32.65","16.08","62.2","8.85","90820","15.06","DUALSPOT-UV-BLUE-GREEN-RED-IR","734578","691553","910791","9.595596","2.815845","0.014130","860716","891051","841734","5.068678","1.387232","-0.008573","847690","866671","833594","4.015607","1.078653","-0.023416","869315","868609","887799","2.975307","0.776735","0.000000","770508","889202","961140","1.693849","0.404658","0.000000","4034","4481","4666","2908","2820","2787","2663","2496","2434","2514","2308","2514","2200","1782","2200","DualSpot on"
"MA200-0420","42700","69","1","1.10","1.6","2023-07-13T19:35:00","120","2023/07/13","19:35:00","-15.795657455921173","35.00274133286439","0.4","13","300","64","27","-1024","-26840","-1196","9","150","150.34","116.86","33.48","16.08","62.3","8.88","90824","15.00","DUALSPOT-UV-BLUE-GREEN-RED-IR","728949","689614","910297","10.317308","3.045807","0.013315","850085","882535","834666","5.469042","1.502692","0.001665","844427","865303","833045","4.337990","1.168776","-0.007893","866694","867502","887254","3.220843","0.841672","-0.036036","773822","894053","966737","1.842689","0.440216","0.000000","3627","4034","4205","2539","2556","2563","2290","2234","2214","2107","1946","1888","1779","1483","1779","DualSpot on"
"MA200-0420","42701","69","1","1.10","1.6","2023-07-13T19:40:00","120","2023/07/13","19:40:00","-15.795621156692505","35.00274166627787","0.2","13","300","64","26","-1052","-26940","-1680","9","150","149.82","116.90","32.92","16.10","62.4","8.91","90828","15.06","DUALSPOT-UV-BLUE-GREEN-RED-IR","723373","686854","908231","10.856026","3.217611","0.014603","852780","887258","839836","5.770451","1.587629","0.000180","841856","864218","832538","4.581350","1.234686","-0.012036","863908","865945","886085","3.406483","0.889622","-0.037008","772168","892934","965748","1.956157","0.466849","0.000000","2706","3065","3216","1911","1912","1913","1728","1662","1637","1593","1461","1414","1355","1130","1355","DualSpot on"
"MA200-0420","42702","69","1","1.10","1.6","2023-07-13T19:45:00","120","2023/07/13","19:45:00","-15.795660197734833","35.00269683310762","0.1","13","300","64","27","-1176","-26863","-1520","9","150","150.50","117.04","33.46","16.10","62.5","8.93","90828","15.06","DUALSPOT-UV-BLUE-GREEN-RED-IR","721207","687214","910236","11.378326","3.386650","0.013915","851665","887889","841131","6.054663","1.670295","0.003886","841102","864867","833676","4.807925","1.297343","-0.009737","864554","867700","888304","3.578958","0.935850","-0.025799","772554","894070","967265","2.062334","0.491995","0.000000","2621","2967","3114","1800","1831","1843","1607","1554","1535","1478","1386","1353","1267","1049","1267","DualSpot on"
"MA200-0420","42703","69","1","1.10","1.6","2023-07-13T19:50:00","120","2023/07/13","19:50:00","-15.795603334903717","35.00278016645461","0.2","13","300","64","26","-980","-26936","-1576","9","150","150.41","117.06","33.35","16.11","62.6","8.96","90824","15.06","DUALSPOT-UV-BLUE-GREEN-RED-IR","713064","681575","904116","11.838856","3.538084","0.015238","843570","881087","835317","6.316560","1.747805","0.008087","839877","864919","834249","5.020380","1.358128","0.001184","863420","867559","888546","3.740765","0.980170","-0.014698","772205","894350","967810","2.162279","0.516489","0.000000","2310","2667","2819","1658","1723","1747","1506","1513","1515","1386","1333","1314","1192","1026","1192","DualSpot on"
"MA200-0420","42704","69","1","1.10","1.6","2023-07-13T19:55:00","120","2023/07/13","19:55:00","-15.795634925365448","35.00268616597168","0.3","13","300","64","26","-912","-27204","-1195","9","150","149.34","116.66","32.68","16.11","62.5","8.94","90828","15.06","DUALSPOT-UV-BLUE-GREEN-RED-IR","709724","680530","904183","12.318615","3.700447","0.018607","848186","887544","842199","6.591219","1.835584","0.024776","838270","864545","834465","5.242616","1.427740","0.026639","861137","866287","887722","3.911275","1.033256","0.033600","766918","888901","962173","2.265897","0.545105","0.000000","2415","2918","3133","1745","1991","2085","1581","1768","1838","1466","1629","1688","1240","1223","1240","DualSpot on"
"MA200-0420","42705","69","1","1.10","1.6","2023-07-13T20:00:00","120","2023/07/13","20:00:00","-15.795602679252625","35.00274216639809","0.3","13","300","64","25","-1136","-26944","-1392","9","150","149.34","116.66","32.68","16.12","62.5","8.94","90840","15.06","DUALSPOT-UV-BLUE-GREEN-RED-IR","710753","683497","909430","12.752678","3.840240","0.013827","844634","885418","840771","6.840783","1.908636","0.008565","834737","862159","832645","5.443811","1.485372","0.005512","858391","864469","886214","4.065743","1.075162","-0.011034","769314","892299","966082","2.361269","0.569481","0.000000","2185","2512","2653","1585","1657","1684","1431","1464","1476","1328","1286","1271","1142","1041","1142","DualSpot on"
"MA200-0420","42706","69","1","1.10","1.6","2023-07-13T20:05:00","120","2023/07/13","20:05:00","-15.795618891716003","35.00276833306998","0.2","13","300","64","25","-1088","-27040","-1584","9","150","149.63","117.02","32.60","16.12","62.5","8.95","0","0.00","DUALSPOT-UV-BLUE-GREEN-RED-IR","708787","683360","910352","13.128754","3.962808","0.014897","843430","885524","841427","7.060837","1.972133","0.006675","834685","863225","834063","5.622959","1.535517","0.001126","859110","866078","888183","4.201988","1.111403","-0.015627","769440","893020","967060","2.444458","0.588922","0.000000","1887","2208","2346","1394","1443","1462","1270","1276","1279","1168","1115","1096","993","832","993","DualSpot on"
"MA200-0420","42707","69","1","1.10","1.6","2023-07-13T20:10:00","120","2023/07/13","20:10:00","-15.795626044273376","35.002794333035126","0.2","13","300","64","25","-1032","-26940","-1480","9","150","149.53","116.41","33.12","16.13","62.6","8.97","0","0.00","DUALSPOT-UV-BLUE-GREEN-RED-IR","707367","683398","911388","13.445114","4.068517","0.014881","835825","878705","835429","7.253534","2.028882","0.006408","833850","863333","834562","5.779989","1.579577","-0.003353","858448","866171","888571","4.322526","1.143889","-0.017867","769660","893785","968055","2.518648","0.606699","0.000000","1596","1874","1995","1227","1270","1286","1119","1104","1098","1038","984","964","890","749","890","DualSpot on"
"MA200-0420","42708","69","1","1.10","1.6","2023-07-13T20:15:00","120","2023/07/13","20:15:00","-15.795579135417938","35.00281766639091","0.2","13","300","64","24","-1260","-26819","-1743","9","150","149.47","116.66","32.81","16.13","62.6","8.97","90844","15.06","DUALSPOT-UV-BLUE-GREEN-RED-IR","699681","677596","904693","13.801115","4.186979","0.015088","834738","878938","836195","7.472499","2.094930","0.012255","832357","862898","834559","5.961376","1.633346","0.011623","857498","866052","888799","4.461024","1.184277","0.010723","769288","893932","968420","2.604536","0.628936","0.000000","1792","2120","2263","1391","1492","1531","1290","1360","1386","1191","1235","1250","1028","946","1028","DualSpot on"
"MA200-0420","42709","69","1","1.10","1.6","2023-07-13T20:20:00","120","2023/07/13","20:20:00","-15.795610666275024","35.002812166232616","0.1","13","300","64","24","-1016","-27052","-1320","9","150","149.67","116.87","32.80","16.13","62.6","8.99","90848","15.06","DUALSPOT-UV-BLUE-GREEN-RED-IR","696237","676097","903918","14.208143","4.323984","0.015669","832284","877918","835877","7.729725","2.172834","0.012813","830418","862171","834413","6.172158","1.694494","0.007167","856226","865822","888967","4.624846","1.228683","-0.010582","763384","887728","961935","2.704330","0.652766","0.000000","2045","2453","2631","1631","1760","1811","1497","1547","1566","1406","1358","1340","1192","1014","1192","DualSpot on"
"MA200-0420","42710","69","1","1.10","1.6","2023-07-13T20:25:00","120","2023/07/13","20:25:00","-15.795644700527191","35.002762999618426","0.0","13","300","64","24","-1096","-26956","-1496","9","150","149.38","116.86","32.51","16.13","62.7","9.00","90848","15.06","DUALSPOT-UV-BLUE-GREEN-RED-IR","693662","675621","904724","14.666706","4.479938","0.016537","830434","877683","836393","8.016064","2.262622","0.018766","828674","861779","834615","6.408545","1.766771","0.018761","854577","865232","888855","4.805786","1.281973","0.015402","767381","893108","968018","2.813898","0.681357","0.000000","2304","2817","3042","1816","2047","2138","1679","1845","1908","1553","1644","1677","1309","1228","1309","DualSpot on"
"MA200-0420","42711","69","1","1.10","1.6","2023-07-13T20:30:00","120","2023/07/13","20:30:00","-15.795657992362976","35.00274399970658","0.0","14","300","64","23","-1087","-26966","-1637","9","150","149.52","116.71","32.82","16.11","62.8","9.02","0","0.00","DUALSPOT-UV-BLUE-GREEN-RED-IR","694636","678798","910518","15.161442","4.647291","0.014938","832586","881924","841228","8.329948","2.356875","0.010391","825907","860491","834006","6.668649","1.842075","0.005905","851759","863664","887712","5.006903","1.338418","-0.000507","766076","892388","967572","2.936090","0.712076","0.000000","2489","2995","3218","1993","2129","2182","1850","1905","1926","1728","1725","1724","1462","1307","1462","DualSpot on"
"MA200-0420","42712","69","1","1.10","1.6","2023-07-13T20:35:00","120","2023/07/13","20:35:00","-15.795601546764374","35.00281016621739","0.2","14","300","64","23","-1084","-26847","-1748","9","150","150.01","116.78","33.23","16.07","63.0","9.02","0","0.00","DUALSPOT-UV-BLUE-GREEN-RED-IR","689814","676218","908492","15.638054","4.809189","0.013991","828512","879449","839644","8.633439","2.449828","0.011182","822269","858214","832412","6.920392","1.916164","0.006567","848342","861391","885886","5.202750","1.393103","-0.004999","763846","890605","965890","3.054170","0.741561","-0.063075","2397","2861","3068","1926","2073","2132","1789","1851","1874","1682","1651","1639","1412","1239","1184","DualSpot on"
"MA200-0420","42713","69","1","1.10","1.6","2023-07-13T20:40:00","120","2023/07/13","20:40:00","-15.795613586902618","35.00284366658889","0.1","14","300","64","22","-1120","-27003","-1224","9","150","150.33","117.01","33.32","16.03","63.1","9.00","0","0.00","DUALSPOT-UV-BLUE-GREEN-RED-IR","683960","672898","905682","16.175348","4.989061","0.012516","822988","875730","837007","8.983474","2.556413","0.009822","818005","855555","830578","7.215715","2.003849","0.007717","850982","865516","890715","5.434034","1.458148","-0.003188","761021","888269","963732","3.200189","0.778014","-0.060868","2697","3170","3381","2217","2371","2432","2095","2184","2218","1983","1958","1949","1743","1528","1459","DualSpot on"
"MA200-0420","42714","69","1","1.10","1.6","2023-07-13T20:45:00","120","2023/07/13","20:45:00","-15.795652389526367","35.00282033276744","0.1","13","300","64","22","-1108","-27140","-1504","9","150","149.47","116.70","32.77","15.99","63.1","8.98","0","0.00","DUALSPOT-UV-BLUE-GREEN-RED-IR","679533","671418","905693","16.830126","5.210573","0.013596","819568","874607","836983","9.398200","2.681541","0.010051","815418","854922","830788","7.561366","2.104604","0.006642","848620","864840","890672","5.705943","1.532760","-0.005617","759867","888077","963932","3.371885","0.820317","-0.057284","3295","3970","4273","2634","2830","2909","2459","2552","2589","2337","2284","2264","2055","1803","1722","DualSpot on"
"MA200-0420","42715","69","1","1.10","1.6","2023-07-13T20:50:00","120","2023/07/13","20:50:00","-15.795593500137329","35.002840999746695","0.2","13","300","64","22","-1032","-26988","-1548","9","150","149.50","116.94","32.56","15.96","63.2","8.96","0","0.00","DUALSPOT-UV-BLUE-GREEN-RED-IR","673222","668858","904885","17.668518","5.504045","0.015401","814182","871919","835728","9.910754","2.841997","0.014995","811133","852946","829959","7.987000","2.233559","0.013671","845152","863388","890035","6.042917","1.629582","0.006967","757858","887106","963431","3.583585","0.876371","-0.019308","4210","5294","5785","3249","3653","3816","3021","3288","3392","2890","2983","3018","2528","2405","2365","DualSpot on"
"MA200-0420","42716","69","1","1.10","1.6","2023-07-13T20:55:00","120","2023/07/13","20:55:00","-15.795684397220612","35.002729333005846","0.1","13","300","64","22","-955","-27068","-1352","9","150","149.44","117.02","32.42","15.90","63.3","8.94","0","0.00","DUALSPOT-UV-BLUE-GREEN-RED-IR","672858","671377","910418","18.337388","5.739210","0.015353","816204","876471","841146","10.306918","2.965402","0.014437","812529","856375","834070","8.311310","2.329612","0.010553","841151","860817","888034","6.296829","1.701495","0.004732","760297","890998","968037","3.742723","0.915452","-0.047228","3357","4261","4672","2509","2822","2948","2300","2460","2522","2176","2225","2243","1899","1684","1614","DualSpot on"
"MA200-0420","42717","69","1","1.10","1.6","2023-07-13T21:00:00","120","2023/07/13","21:00:00","-15.79567664861679","35.00276916613802","0.1","13","300","64","21","-995","-26895","-1600","9","150","149.52","116.60","32.93","15.83","63.6","8.94","90872","14.75","DUALSPOT-UV-BLUE-GREEN-RED-IR","665484","666536","905703","18.922326","5.943971","0.013678","808885","870754","836554","10.661712","3.073114","0.008937","807081","852403","830920","8.604344","2.414119","0.003316","842458","863626","891447","6.525136","1.762716","-0.011395","756826","887892","964987","3.881347","0.948768","-0.063292","2946","3652","3975","2255","2424","2493","2086","2130","2147","1964","1865","1828","1660","1413","1333","DualSpot on"
"MA200-0420","42718","69","1","1.10","1.6","2023-07-13T21:05:00","120","2023/07/13","21:05:00","-15.795635044574738","35.002821166068316","0.1","12","300","64","21","-1008","-26980","-1520","9","150","150.08","116.90","33.19","15.77","63.8","8.93","0","0.00","DUALSPOT-UV-BLUE-GREEN-RED-IR","662184","665469","905936","19.442908","6.130632","0.014274","806502","870124","836800","10.987535","3.175849","0.012256","805290","852109","831301","8.874045","2.495295","0.008707","840666","863099","891447","6.737683","1.822892","-0.000562","755948","887777","965172","4.014804","0.981617","-0.053223","2615","3303","3620","2066","2294","2387","1915","2030","2075","1824","1819","1817","1594","1382","1314","DualSpot on"
"MA200-0420","42719","69","1","1.10","1.6","2023-07-13T21:10:00","120","2023/07/13","21:10:00","-15.795678317546844","35.002713666297495","0.1","12","300","64","21","-1064","-27056","-1664","9","150","149.44","116.59","32.85","15.72","64.1","8.94","0","0.00","DUALSPOT-UV-BLUE-GREEN-RED-IR","657632","663041","904265","19.948064","6.310949","0.014073","802503","867770","835416","11.316968","3.278714","0.011680","801894","850176","830101","9.151064","2.579278","0.010451","837492","861178","890034","6.956015","1.884422","0.000036","754116","886502","964110","4.151279","1.016186","-0.037195","2544","3224","3538","2094","2321","2413","1972","2122","2181","1878","1879","1879","1635","1470","1416","DualSpot on"
"MA200-0420","42720","69","1","1.10","1.6","2023-07-13T21:15:00","120","2023/07/13","21:15:00","-15.79570746421814","35.0027679996565","0.1","12","300","64","20","-1108","-27012","-1492","9","150","149.44","115.05","34.39","15.69","64.2","8.94","0","0.00","DUALSPOT-UV-BLUE-GREEN-RED-IR","656835","664977","909107","20.605496","6.551721","0.012045","803379","871169","839814","11.733494","3.413200","0.008652","802327","852681","833435","9.499272","2.686632","0.004412","832430","857654","887111","7.234883","1.967084","-0.001611","751103","884135","961976","4.329578","1.062558","-0.048058","3356","4112","4464","2683","2899","2987","2512","2591","2622","2431","2411","2403","2164","1883","1792","DualSpot on"
"MA200-0420","42721","69","1","1.10","1.6","2023-07-13T21:20:00","120","2023/07/13","21:20:00","-15.795694172382355","35.0027778330259","0.1","12","300","64","20","-1080","-27032","-1456","9","150","149.87","116.91","32.97","15.67","64.4","8.97","0","0.00","DUALSPOT-UV-BLUE-GREEN-RED-IR","654265","664939","910963","21.200474","6.760866","0.012539","801525","871792","841492","12.160947","3.541809","0.007103","800553","853045","834701","9.869140","2.794564","0.004702","831870","858966","889213","7.536607","2.049826","-0.005201","750791","885095","963481","4.528173","1.110768","-0.049896","2989","3726","4071","2710","2892","2966","2626","2718","2754","2589","2518","2491","2373","2042","1935","DualSpot on"
"MA200-0420","42722","69","1","1.10","1.6","2023-07-13T21:25:00","120","2023/07/13","21:25:00","-15.795629501342773","35.00272999983281","0.2","12","300","64","20","-1100","-26928","-1668","9","150","149.72","117.00","32.72","15.67","64.5","8.98","90872","14.63","DUALSPOT-UV-BLUE-GREEN-RED-IR","645831","658428","903660","21.692006","6.942159","0.014724","798748","870768","841410","12.502411","3.651393","0.013809","793750","847513","830026","10.161994","2.884489","0.011864","830623","859140","890009","7.775019","2.118362","0.004780","750335","885584","964423","4.686767","1.152095","-0.021162","2467","3254","3625","2163","2483","2615","2078","2282","2362","2044","2101","2123","1893","1764","1722","DualSpot on"
"MA200-0420","42723","69","1","1.10","1.6","2023-07-13T21:30:00","120","2023/07/13","21:30:00","-15.795794069766998","35.00274449959397","0.1","12","300","64","20","-1156","-27088","-1743","9","150","149.47","116.83","32.64","15.67","64.5","8.99","90876","14.63","DUALSPOT-UV-BLUE-GREEN-RED-IR","648434","662828","911133","22.115464","7.099115","0.014683","790208","863162","834891","12.797455","3.747851","0.015147","796450","851859","834940","10.412777","2.962011","0.012421","828577","858240","889591","7.978479","2.179197","0.011022","748902","884777","963874","4.820095","1.187178","-0.017389","2129","2824","3152","1872","2190","2322","1782","1971","2046","1747","1869","1915","1594","1501","1470","DualSpot on"
"MA200-0420","42724","69","1","1.10","1.6","2023-07-13T21:35:00","120","2023/07/13","21:35:00","-15.795773565769196","35.00266083306633","0.4","12","300","64","19","-1048","-27028","-1743","9","150","149.69","116.63","33.06","15.63","64.9","9.05","90876","14.56","DUALSPOT-UV-BLUE-GREEN-RED-IR","645275","661071","909878","22.468232","7.223827","0.011877","793519","868316","840483","13.046545","3.820723","0.003309","793457","849954","833579","10.627014","3.021997","-0.001656","824889","855522","887183","8.152838","2.224244","-0.017040","746869","883094","962284","4.929775","1.212091","-0.072627","1776","2215","2423","1583","1633","1654","1525","1506","1498","1499","1366","1316","1313","1052","967","DualSpot on"
"MA200-0420","42725","69","1","1.10","1.6","2023-07-13T21:40:00","120","2023/07/13","21:40:00","-15.795724987983704","35.00274316617288","0.0","12","300","64","19","-1068","-26947","-1564","9","150","150.71","116.97","33.73","15.60","65.2","9.08","90880","14.56","DUALSPOT-UV-BLUE-GREEN-RED-IR","642601","659822","909333","22.822532","7.356651","0.013443","790750","866760","839638","13.295701","3.900629","0.010294","792128","849816","833985","10.842164","3.087717","0.007050","823956","855617","887713","8.327157","2.273790","-0.002436","746308","883197","962651","5.042219","1.238737","-0.061394","1779","2312","2566","1579","1755","1829","1527","1617","1653","1495","1473","1465","1342","1103","1025","DualSpot on"
"MA200-0420","42726","69","1","1.10","1.6","2023-07-13T21:45:00","120","2023/07/13","21:45:00","-15.795610308647156","35.002787332981825","0.3","12","300","64","18","-1144","-26932","-1436","9","150","149.40","116.92","32.48","15.59","65.3","9.09","0","0.00","DUALSPOT-UV-BLUE-GREEN-RED-IR","638373","656854","906456","23.167800","7.491291","0.016130","786718","863734","837404","13.540797","3.983891","0.017723","788303","846936","831724","11.052898","3.155166","0.015883","826281","859075","891760","8.498985","2.325451","0.011972","743752","880903","960444","5.156055","1.270653","0.002356","1734","2434","2769","1554","1900","2044","1496","1724","1814","1474","1595","1641","1360","1372","1376","DualSpot on"
"MA200-0420","42727","69","1","1.10","1.6","2023-07-13T21:50:00","120","2023/07/13","21:50:00","-15.795737624168396","35.00275933300145","0.2","12","300","64","18","-1087","-26929","-1508","9","150","149.56","116.86","32.70","15.60","65.4","9.12","0","0.00","DUALSPOT-UV-BLUE-GREEN-RED-IR","637006","656746","907407","23.487572","7.614776","0.015329","785565","863772","838081","13.769758","4.059267","0.014546","787380","847042","832360","11.250443","3.217936","0.014193","819205","852657","885549","8.660944","2.374439","0.011601","748163","886856","967216","5.266321","1.298654","-0.026542","1607","2218","2511","1452","1708","1816","1403","1593","1670","1390","1503","1545","1318","1196","1156","DualSpot on"
"MA200-0420","42728","69","1","1.10","1.6","2023-07-13T21:55:00","120","2023/07/13","21:55:00","-15.795550048351288","35.002747333142906","0.1","12","300","64","18","-1116","-27096","-1340","9","150","149.56","116.71","32.86","15.63","65.5","9.18","0","0.00","DUALSPOT-UV-BLUE-GREEN-RED-IR","632514","653610","904336","23.856822","7.754337","0.014111","780909","860244","835407","14.045946","4.149962","0.013605","788423","849625","835514","11.494219","3.293824","0.011234","821779","856558","890144","8.863363","2.434105","0.006869","745039","884072","964560","5.410213","1.336559","-0.017255","1858","2494","2801","1754","2046","2168","1734","1917","1991","1740","1821","1852","1722","1611","1575","DualSpot on"
"MA200-0420","42729","69","1","1.10","1.6","2023-07-13T22:00:00","120","2023/07/13","22:00:00","-15.795596301555634","35.00279466644861","0.1","12","300","64","18","-1072","-26975","-1212","9","150","149.82","116.90","32.92","15.69","65.6","9.25","0","0.00","DUALSPOT-UV-BLUE-GREEN-RED-IR","631709","653996","905967","24.165474","7.874172","0.014887","780781","861422","837154","14.271095","4.223085","0.012534","782955","844866","831370","11.692270","3.354466","0.009336","821490","857268","891307","9.027865","2.482576","0.006664","744860","884613","965436","5.523811","1.365658","-0.024673","1550","2138","2422","1427","1646","1738","1406","1529","1578","1411","1477","1502","1357","1234","1194","DualSpot on"
"MA200-0420","42730","69","1","1.10","1.6","2023-07-13T22:05:00","120","2023/07/13","22:05:00","-15.79569697380066","35.00272633275017","0.0","11","300","64","18","-1036","-27116","-1528","9","150","149.50","116.63","32.87","15.73","65.6","9.31","90872","14.75","DUALSPOT-UV-BLUE-GREEN-RED-IR","631912","655250","908652","24.429626","7.978218","0.015193","780951","862713","838951","14.461392","4.287124","0.014944","783333","846233","833131","11.856503","3.407240","0.013855","816204","852530","886745","9.164104","2.523310","0.008444","745972","886557","967813","5.617742","1.389782","-0.023821","1330","1859","2115","1209","1444","1543","1169","1332","1398","1171","1243","1270","1125","1025","992","DualSpot on"
"MA200-0420","42731","69","1","1.10","1.6","2023-07-13T22:10:00","120","2023/07/13","22:10:00","-15.79566216468811","35.00275883311406","0.1","11","300","64","17","-1208","-27000","-1208","9","150","149.71","117.01","32.70","15.77","65.6","9.34","90864","14.81","DUALSPOT-UV-BLUE-GREEN-RED-IR","631114","655475","909910","24.689816","8.080860","0.015375","781285","864149","840884","14.650513","4.351712","0.016386","782426","846205","833522","12.020296","3.461790","0.017651","815792","852936","887533","9.299765","2.566193","0.016491","740819","881042","961994","5.709724","1.413937","-0.015254","1306","1843","2105","1198","1464","1576","1162","1385","1475","1163","1315","1373","1098","1031","1010","DualSpot on"
