"Serial number","Datum ID","Session ID","Data format version","Firmware version","App version","Date / time local","Timezone offset (mins)","Date local (yyyy/MM/dd)","Time local (hh:mm:ss)","GPS lat (ddmm.mmmmm)","GPS long (dddmm.mmmmm)","GPS speed (km/h)","GPS sat count","Timebase (s)","Status","Battery remaining (%)","Accel X","Accel Y","Accel Z","Tape position","Flow setpoint (mL/min)","Flow total (mL/min)","Flow1 (mL/min)","Flow2 (mL/min)","Sample temp (C)","Sample RH (%)","Sample dewpoint (C)","Internal pressure (Pa)","Internal temp (C)","Optical config","UV Sen1","UV Sen2","UV Ref","UV ATN1","UV ATN2","UV K","Blue Sen1","Blue Sen2","Blue Ref","Blue ATN1","Blue ATN2","Blue K","Green Sen1","Green Sen2","Green Ref","Green ATN1","Green ATN2","Green K","Red Sen1","Red Sen2","Red Ref","Red ATN1","Red ATN2","Red K","IR Sen1","IR Sen2","IR Ref","IR ATN1","IR ATN2","IR K","UV BC1","UV BC2","UV BCc","Blue BC1","Blue BC2","Blue BCc","Green BC1","Green BC2","Green BCc","Red BC1","Red BC2","Red BCc","IR BC1","IR BC2","IR BCc","Readable status"
"MA200-0416","60536","125","1","1.10","1.6","2023-08-26T23:40:00","120","2023/08/26","23:40:00","0","0","0.0","3","300","66","18","-1000","24784","-624","12","150","150.08","115.96","34.12","21.05","43.9","8.30","89372","21.50","DUALSPOT-UV-BLUE-GREEN-RED-IR","791326","697632","906766","0.000000","0.000000","0.000000","748654","863764","761356","0.000000","0.000000","0.000000","856153","886176","828520","0.000000","0.000000","0.000000","827731","888005","858619","0.000000","0.000000","0.000000","711499","828601","953318","0.000000","0.000000","0.000000","","","","","","","","","","","","","","","","Start up-DualSpot on"
"MA200-0416","60537","125","1","1.10","1.6","2023-08-26T23:45:00","120","2023/08/26","23:45:00","-15.7871373295784","35.03527748957276","0.2","10","300","66","24","-900","24472","-632","12","150","150.04","117.34","32.70","22.47","44.0","9.59","89372","23.94","DUALSPOT-UV-BLUE-GREEN-RED-IR","786385","698212","910299","0.000000","0.000000","0.000000","745432","864271","763191","0.000000","0.000000","0.000000","838663","871610","815957","0.000000","0.000000","0.000000","828005","891191","862371","0.000000","0.000000","0.000000","707988","826261","951295","0.000000","0.000000","0.000000","","","","","","","","","","","","","","","","Start up-DualSpot on"
"MA200-0416","60538","125","1","1.10","1.6","2023-08-26T23:50:00","120","2023/08/26","23:50:00","-15.787070631980896","35.0353286601603","0.1","11","300","64","25","-936","24432","-460","12","150","149.33","117.74","31.59","23.65","42.5","10.14","89388","25.13","DUALSPOT-UV-BLUE-GREEN-RED-IR","773751","691835","904618","0.000000","0.000000","0.000000","735713","857176","758231","0.000000","0.000000","0.000000","832351","868598","814021","0.000000","0.000000","0.000000","822913","888673","860417","0.000000","0.000000","0.000000","708110","828311","954254","0.000000","0.000000","0.000000","","","","","","","","","","","","","","","","DualSpot on"
"MA200-0416","60539","125","1","1.10","1.6","2023-08-26T23:55:00","120","2023/08/26","23:55:00","-15.787054657936096","35.03531316295266","0.2","10","300","64","26","-871","24444","-636","12","150","150.28","118.04","32.24","24.62","40.9","10.46","89396","26.00","DUALSPOT-UV-BLUE-GREEN-RED-IR","768821","692077","907615","0.971820","0.293329","0.000000","737299","863187","764825","0.651706","0.170498","0.000000","828827","868429","814817","0.520634","0.114202","0.000000","821865","890471","862733","0.393200","0.063163","0.000000","702935","824122","950097","0.295345","0.069491","0.000000","4835","5344","4835","4092","3920","4092","3661","2940","3661","3341","1965","3341","3495","3011","3495","DualSpot on"
"MA200-0416","60540","125","1","1.10","1.6","2023-08-27T00:00:00","120","2023/08/27","00:00:00","-15.787120699882507","35.03527182340622","0.3","10","300","64","26","-855","24496","-788","12","150","149.96","118.26","31.70","25.40","39.5","10.63","89376","26.69","DUALSPOT-UV-BLUE-GREEN-RED-IR","758747","687505","904254","1.921627","0.589138","0.000000","729670","858281","761834","1.297545","0.346416","0.000000","823244","866014","813554","1.038861","0.238084","0.000000","821683","893152","865966","0.789396","0.137132","0.000000","703398","826485","953530","0.591541","0.142739","0.000000","4717","5480","4717","4048","4113","4048","3638","3244","3638","3361","2340","3361","3498","3227","3498","DualSpot on"
"MA200-0416","60541","125","1","1.10","1.6","2023-08-27T00:05:00","120","2023/08/27","00:05:00","-15.787190198898315","35.03526682406664","0.4","10","300","64","27","-1012","24404","-840","12","150","150.29","118.54","31.76","26.06","38.3","10.74","89388","27.19","DUALSPOT-UV-BLUE-GREEN-RED-IR","753767","687328","906696","2.852703","0.885667","0.000000","726456","858416","763320","1.936484","0.527912","0.000000","821206","867235","815770","1.559436","0.370216","0.000000","812641","886083","859823","1.186135","0.220674","0.000000","702123","826750","954570","0.880743","0.215865","0.000000","4613","5484","4613","3995","4236","3995","3646","3454","3646","3357","2639","3357","3408","3216","3408","DualSpot on"
"MA200-0416","60542","125","1","1.10","1.6","2023-08-27T00:10:00","120","2023/08/27","00:10:00","-15.787252187728882","35.0351906567812","0.2","10","300","64","29","-916","24308","-152","12","150","149.45","119.13","30.31","26.52","37.3","10.76","89388","27.50","DUALSPOT-UV-BLUE-GREEN-RED-IR","746087","684560","905806","3.772405","1.187107","0.078458","720924","855746","762401","2.578347","0.717186","0.000000","814051","862943","812878","2.083033","0.511628","0.000000","808863","884661","859283","1.588557","0.316047","0.000000","695738","820944","948557","1.162406","0.291068","0.000000","4534","5840","6440","3994","4628","3994","3648","3873","3648","3388","3156","3388","3302","3465","3302","DualSpot on"
"MA200-0416","60543","125","1","1.10","1.6","2023-08-27T00:15:00","120","2023/08/27","00:15:00","-15.787223279476166","35.03525949269533","0.1","10","300","64","31","-848","24484","-340","12","150","150.03","119.73","30.30","26.87","36.4","10.72","89384","27.81","DUALSPOT-UV-BLUE-GREEN-RED-IR","740018","684893","910163","5.060844","1.613098","0.061312","716472","856139","765026","3.536925","1.015657","0.069059","812182","865920","817657","2.885977","0.750500","0.000000","806931","886652","862788","2.227665","0.494223","0.000000","697011","825130","954649","1.614809","0.420475","0.000000","6320","8257","9164","5935","7302","7853","5567","6545","5567","5355","5899","5355","5278","5966","5278","DualSpot on"
"MA200-0416","60544","125","1","1.10","1.6","2023-08-27T00:20:00","120","2023/08/27","00:20:00","-15.78715032339096","35.0352768227458","0.1","11","300","64","33","-903","24384","-1176","12","150","149.90","119.41","30.49","27.14","35.8","10.70","89392","28.00","DUALSPOT-UV-BLUE-GREEN-RED-IR","726787","677817","904287","6.228885","2.012790","0.053718","710610","854124","765394","4.408434","1.296883","0.061746","801548","858808","812753","3.617025","0.976014","0.061371","802869","885869","863427","2.812770","0.662010","0.000000","693561","823360","953742","2.022359","0.540215","0.000000","5745","7700","8634","5410","6838","7434","5082","6141","6532","4915","5521","4915","4767","5486","4767","DualSpot on"
"MA200-0416","60545","125","1","1.10","1.6","2023-08-27T00:25:00","120","2023/08/27","00:25:00","-15.7871652841568","35.03529915958643","0.0","11","300","64","35","-840","24500","-916","12","150","150.23","119.53","30.70","27.31","35.4","10.67","89384","28.06","DUALSPOT-UV-BLUE-GREEN-RED-IR","722332","677811","907359","7.182590","2.349733","0.049887","703366","849376","762843","5.099878","1.523989","0.055810","797980","858411","813858","4.192114","1.157105","0.056782","801613","887333","865987","3.266068","0.796765","0.052807","692092","823409","954629","2.326782","0.629372","0.000000","4686","6447","7303","4288","5484","5994","3994","4897","5242","3804","4404","4597","3557","4057","3557","DualSpot on"
"MA200-0416","60546","125","1","1.10","1.6","2023-08-27T00:30:00","120","2023/08/27","00:30:00","-15.787211656570435","35.035299491137266","0.1","11","300","64","37","-876","24296","-704","12","150","150.28","119.54","30.74","27.43","35.2","10.68","89380","28.13","DUALSPOT-UV-BLUE-GREEN-RED-IR","711466","671843","902548","8.170730","2.702461","0.044928","699340","848567","764018","5.832474","1.769310","0.051879","794360","858068","815153","4.807721","1.355207","0.053941","793211","880991","861103","3.755161","0.946623","0.054297","686174","818259","949573","2.658378","0.728001","0.000000","4855","6739","7671","4543","5916","6514","4275","5350","5772","4104","4891","5156","3874","4482","3874","DualSpot on"
"MA200-0416","60547","125","1","1.10","1.6","2023-08-27T00:35:00","120","2023/08/27","00:35:00","-15.787216007709503","35.03527398779988","0.1","11","300","64","39","-967","24484","-540","12","150","149.49","119.63","29.86","27.51","35.1","10.72","89376","28.13","DUALSPOT-UV-BLUE-GREEN-RED-IR","707776","671993","905593","9.024160","3.016212","0.046037","692830","844192","761691","6.465030","1.986646","0.054493","791463","857981","816491","5.335193","1.528894","0.057973","792399","882616","863822","4.175041","1.077640","0.060434","685248","818723","950924","2.932815","0.811762","0.000000","4190","6172","7167","3919","5396","6051","3660","4830","5299","3521","4402","4709","3204","3919","3204","DualSpot on"
"MA200-0416","60548","125","1","1.10","1.6","2023-08-27T00:40:00","120","2023/08/27","00:40:00","-15.787120699882507","35.035272657871246","0.2","11","300","64","40","-833","24600","-1091","12","150","149.76","119.93","29.83","27.59","35.1","10.81","89376","28.25","DUALSPOT-UV-BLUE-GREEN-RED-IR","703243","671141","907273","9.852711","3.327690","0.044220","689253","843178","762431","7.075544","2.199506","0.052043","783975","852731","812854","5.846080","1.699888","0.056039","784765","876556","858990","4.579233","1.205247","0.058439","683790","818553","951498","3.203479","0.895186","0.077774","4057","6132","7190","3773","5289","5973","3536","4758","5259","3381","4291","4616","3152","3906","4198","DualSpot on"
"MA200-0416","60549","125","1","1.10","1.6","2023-08-27T00:45:00","120","2023/08/27","00:45:00","-15.787201881408691","35.03526949137449","0.2","12","300","64","42","-942","24488","-976","12","150","149.86","121.34","28.52","27.70","35.2","10.93","89364","28.31","DUALSPOT-UV-BLUE-GREEN-RED-IR","695538","667319","904943","10.696640","3.644844","0.044494","687928","844951","765709","7.701031","2.419585","0.054550","782080","853688","815179","6.371282","1.874894","0.058342","785093","879454","862969","4.997354","1.338321","0.065207","683807","820106","954173","3.481598","0.979920","0.083817","4085","6531","7795","3821","5720","6589","3593","5094","5719","3457","4680","5128","3201","4150","4521","DualSpot on"
"MA200-0416","60550","125","1","1.10","1.6","2023-08-27T00:50:00","120","2023/08/27","00:50:00","-15.787109434604645","35.035308826714754","0.0","12","300","64","42","-768","24544","-1032","12","150","149.71","121.64","28.06","27.78","35.1","10.97","89356","28.38","DUALSPOT-UV-BLUE-GREEN-RED-IR","689806","665331","905243","11.556387","3.975629","0.043649","678796","837165","760430","8.338986","2.648133","0.053668","778548","852787","815848","6.905452","2.059752","0.060253","782737","879314","864044","5.426548","1.478713","0.067228","681876","819424","954179","3.764911","1.067416","0.085243","4151","6923","8376","3887","6037","7037","3645","5468","6243","3539","5018","5572","3253","4355","4791","DualSpot on"
"MA200-0416","60551","125","1","1.10","1.6","2023-08-27T00:55:00","120","2023/08/27","00:55:00","-15.787232637405396","35.035249657928944","0.1","12","300","64","24","-808","24424","-684","12","150","149.37","120.01","29.36","27.32","35.2","10.58","89336","26.13","DUALSPOT-UV-BLUE-GREEN-RED-IR","680408","659714","900673","12.425322","4.318475","0.038974","676457","837748","762754","8.991185","2.889985","0.048022","771749","848354","813195","7.452965","2.254963","0.053132","780688","879572","865627","5.868083","1.630282","0.061039","677315","815541","950554","4.054386","1.163184","0.081539","4252","6858","8246","4028","6106","7090","3787","5519","6271","3691","5179","5751","3369","4556","5033","DualSpot on"
"MA200-0416","60552","125","1","1.10","1.6","2023-08-27T01:00:00","120","2023/08/27","01:00:00","-15.78711211681366","35.0353076569736","0.1","12","300","64","23","-859","24512","-648","12","150","150.06","121.34","28.72","26.42","35.7","10.00","89332","24.75","DUALSPOT-UV-BLUE-GREEN-RED-IR","681103","663922","909808","13.327217","4.685484","0.039457","673570","837667","764810","9.686083","3.166252","0.051866","768947","848256","815066","8.044280","2.494192","0.063010","774506","875043","862912","6.348625","1.829195","0.080743","676682","816263","952409","4.344776","1.268572","0.098872","4365","7505","9207","4245","7130","8531","4045","6915","8204","3973","6948","8152","3343","5125","5860","DualSpot on"
"MA200-0416","60553","125","1","1.10","1.6","2023-08-27T01:05:00","120","2023/08/27","01:05:00","-15.787157118320465","35.035297993570566","0.2","11","300","64","23","-1002","24444","-688","12","150","150.26","121.31","28.95","25.57","36.5","9.58","89308","23.88","DUALSPOT-UV-BLUE-GREEN-RED-IR","673218","659825","907573","14.246592","5.062814","0.037024","667862","834091","763726","10.399608","3.456235","0.049310","763374","845088","814100","8.656452","2.746814","0.059654","774202","877229","866886","6.846939","2.041536","0.077125","676606","817687","955079","4.634239","1.372974","0.090786","4451","7654","9420","4360","7424","8950","4189","7243","8663","4121","7357","8732","3333","5037","5754","DualSpot on"
"MA200-0416","60554","125","1","1.10","1.6","2023-08-27T01:10:00","120","2023/08/27","01:10:00","-15.787136137485504","35.035315990448","0.0","10","300","64","22","-732","24696","-444","12","150","149.70","117.74","31.96","24.86","37.6","9.40","0","0.00","DUALSPOT-UV-BLUE-GREEN-RED-IR","665545","655765","905448","15.157339","5.443599","0.030182","662117","830374","762579","11.109025","3.746509","0.039039","757265","841326","812484","9.264346","2.999538","0.047513","769468","874335","865882","7.344546","2.253306","0.061317","673454","815381","953385","4.925941","1.479755","0.067526","4543","6998","8374","4466","6733","7887","4286","6565","7656","4240","6648","7714","3460","4667","5185","DualSpot on"
"MA200-0416","60555","125","1","1.10","1.6","2023-08-27T01:15:00","120","2023/08/27","01:15:00","-15.78708529472351","35.03530365601182","0.1","10","300","64","22","-928","24556","-716","12","150","149.73","117.84","31.89","24.25","38.6","9.26","0","0.00","DUALSPOT-UV-BLUE-GREEN-RED-IR","661008","654574","907138","16.031582","5.814750","0.029409","659282","830145","764492","11.790576","4.027354","0.037523","756555","843459","816544","9.851927","3.242624","0.044726","761155","867327","860679","7.829554","2.455383","0.056200","670900","813808","952533","5.215408","1.584137","0.061944","4357","6835","8245","4287","6527","7689","4139","6327","7401","4129","6356","7374","3431","4571","5069","DualSpot on"
"MA200-0416","60556","125","1","1.10","1.6","2023-08-27T01:20:00","120","2023/08/27","01:20:00","-15.787152171134949","35.03530365601182","0.1","10","300","64","21","-973","24607","-680","12","150","150.23","117.94","32.29","23.73","39.7","9.19","89312","22.25","DUALSPOT-UV-BLUE-GREEN-RED-IR","653298","650092","904179","16.878354","6.175361","0.027669","653016","825461","762261","12.455391","4.301500","0.035013","749323","838232","813376","10.427295","3.477651","0.040734","762282","871074","866095","8.309140","2.652543","0.051062","670408","814788","954702","5.511528","1.685154","0.047484","4217","6560","7912","4178","6294","7410","4050","6043","7040","4079","6126","7086","3507","4370","4750","DualSpot on"
"MA200-0416","60557","125","1","1.10","1.6","2023-08-27T01:25:00","120","2023/08/27","01:25:00","-15.787156105041504","35.03531365841627","0.1","10","300","64","20","-996","24544","-532","12","150","150.43","117.98","32.45","23.30","40.5","9.13","0","0.00","DUALSPOT-UV-BLUE-GREEN-RED-IR","652621","652381","910491","17.677964","6.519512","0.026719","648926","823372","762326","13.091520","4.562288","0.032816","747259","838649","815637","10.977563","3.701633","0.038266","758777","869475","866108","8.768979","2.838552","0.046809","666519","811617","951885","5.800777","1.783306","0.043520","3980","6230","7544","3997","5958","7007","3872","5731","6677","3910","5751","6632","3424","4225","4581","DualSpot on"
"MA200-0416","60558","125","1","1.10","1.6","2023-08-27T01:30:00","120","2023/08/27","01:30:00","-15.787051022052765","35.03530699014664","0.0","10","300","64","20","-1048","24532","-464","12","150","149.57","118.14","31.43","22.90","41.2","9.01","0","0.00","DUALSPOT-UV-BLUE-GREEN-RED-IR","643625","646284","905124","18.476986","6.866485","0.027147","645922","822639","763639","13.722347","4.824150","0.033784","742103","835581","814450","11.526636","3.924137","0.038382","751624","863620","861869","9.226853","3.022480","0.046748","663869","809905","950836","6.091060","1.883054","0.048744","3972","6484","7970","3958","6177","7379","3858","5878","6920","3888","5871","6837","3432","4433","4881","DualSpot on"
"MA200-0416","60559","125","1","1.10","1.6","2023-08-27T01:35:00","120","2023/08/27","01:35:00","-15.787125825881958","35.03527482226491","0.1","11","300","64","19","-926","24584","-438","12","150","149.51","118.26","31.25","22.55","41.9","8.96","89284","21.13","DUALSPOT-UV-BLUE-GREEN-RED-IR","641268","646793","909021","19.270764","7.214615","0.026636","640192","818301","761599","14.349850","5.084800","0.032736","737343","832910","813643","12.072493","4.146629","0.037481","750488","864667","864494","9.683062","3.205233","0.044972","664712","812546","954857","6.386440","1.982675","0.044802","3942","6543","8100","3933","6183","7418","3832","5911","6999","3870","5867","6855","3489","4453","4887","DualSpot on"
"MA200-0416","60560","125","1","1.10","1.6","2023-08-27T01:40:00","120","2023/08/27","01:40:00","-15.787190318107605","35.03528782352805","0.2","11","300","64","18","-1100","24544","-744","12","150","149.83","118.22","31.61","22.27","42.9","9.04","0","0.00","DUALSPOT-UV-BLUE-GREEN-RED-IR","635455","643507","907374","20.003216","7.543808","0.026106","639933","820783","765796","14.939611","5.330729","0.031137","734200","831936","814392","12.591631","4.357380","0.035108","746201","862048","863352","10.122796","3.378103","0.040868","663058","812095","955253","6.677192","2.078304","0.037488","3639","6116","7616","3698","5767","6915","3645","5534","6534","3731","5486","6365","3435","4225","4582","DualSpot on"
"MA200-0416","60561","125","1","1.10","1.6","2023-08-27T01:45:00","120","2023/08/27","01:45:00","-15.787178874015808","35.035260155797005","0.3","11","300","64","17","-961","24757","-615","12","150","149.96","118.22","31.74","22.07","43.5","9.09","0","0.00","DUALSPOT-UV-BLUE-GREEN-RED-IR","629784","640254","905683","20.711274","7.864937","0.025409","635150","817365","764431","15.512783","5.572634","0.030396","731046","830859","815004","13.094753","4.560840","0.033377","742804","860370","863101","10.549955","3.544715","0.038419","658320","807860","951141","6.969570","2.174034","0.034681","3517","5941","7425","3594","5649","6801","3533","5321","6276","3625","5265","6095","3454","4212","4556","DualSpot on"
"MA200-0416","60562","125","1","1.10","1.6","2023-08-27T01:50:00","120","2023/08/27","01:50:00","-15.787188231945038","35.03526348993182","0.4","11","300","64","17","-1076","24632","-580","12","150","150.56","118.97","31.58","21.92","44.3","9.22","0","0.00","DUALSPOT-UV-BLUE-GREEN-RED-IR","624143","636880","903686","21.394676","8.176944","0.025152","630776","814338","763412","16.069399","5.805916","0.029582","727522","829282","815065","13.589972","4.759324","0.032349","738455","857548","861629","10.971891","3.704814","0.035843","656128","806764","950789","7.261574","2.268556","0.033308","3373","5802","7304","3468","5475","6610","3455","5217","6166","3558","5085","5864","3428","4180","4522","DualSpot on"
"MA200-0416","60563","125","1","1.10","1.6","2023-08-27T01:55:00","120","2023/08/27","01:55:00","-15.787117004394531","35.03526582196355","1.1","11","300","64","16","-1069","24619","-615","12","150","150.69","119.05","31.64","21.84","45.1","9.40","0","0.00","DUALSPOT-UV-BLUE-GREEN-RED-IR","622387","637245","906862","22.026634","8.469555","0.024822","625234","809638","760672","16.595457","6.027144","0.028788","723047","826519","813849","14.055213","4.944009","0.030765","737933","859132","864505","11.371807","3.854265","0.033474","656084","808301","953467","7.548885","2.359743","0.029197","3117","5432","6878","3275","5183","6272","3244","4846","5716","3370","4739","5441","3371","4026","4324","DualSpot on"
"MA200-0416","60564","125","1","1.10","1.6","2023-08-27T02:00:00","120","2023/08/27","02:00:00","-15.787187814712524","35.03522649034858","0.1","12","300","64","16","-963","24640","-616","12","150","149.96","118.77","31.19","21.83","45.4","9.51","89304","20.63","DUALSPOT-UV-BLUE-GREEN-RED-IR","621098","637960","910457","22.628948","8.749496","0.024598","624196","810657","763198","17.091694","6.234646","0.028236","721035","826445","815195","14.497598","5.118525","0.030150","737504","860641","867276","11.752203","3.994942","0.032524","652606","805542","951068","7.825454","2.448736","0.031571","2978","5272","6718","3097","4932","5986","3092","4645","5493","3213","4525","5201","3252","3986","4320","DualSpot on"
"MA200-0416","60565","125","1","1.10","1.6","2023-08-27T02:05:00","120","2023/08/27","02:05:00","-15.787095963954926","35.035261664539576","0.0","12","300","64","15","-851","25020","-740","12","150","150.28","119.04","31.24","21.85","45.8","9.66","89308","20.69","DUALSPOT-UV-BLUE-GREEN-RED-IR","612550","631035","902817","23.175938","9.001896","0.023885","620806","808370","762496","17.545900","6.423836","0.027408","717749","824674","814744","14.901426","5.275083","0.028515","729766","853493","861142","12.101631","4.121623","0.030286","650810","804732","950850","8.080047","2.528076","0.026535","2698","4745","6045","2828","4489","5448","2816","4160","4897","2944","4068","4648","2987","3547","3802","DualSpot on"
"MA200-0416","60566","125","1","1.10","1.6","2023-08-27T02:10:00","120","2023/08/27","02:10:00","-15.787060141563416","35.035288993269205","0.0","12","300","64","14","-1188","24288","-280","12","150","149.70","118.66","31.04","21.90","46.0","9.74","89312","20.75","DUALSPOT-UV-BLUE-GREEN-RED-IR","612991","633202","908085","23.685268","9.241463","0.023930","621492","811254","766570","17.968418","6.602109","0.027384","717155","825897","817179","15.278936","5.424154","0.028880","731002","856722","865397","12.422577","4.237374","0.029373","651254","806586","953757","8.318077","2.605224","0.031024","2521","4532","5819","2639","4257","5196","2641","3986","4727","2713","3741","4272","2802","3471","3777","DualSpot on"
"MA200-0416","60567","125","1","1.10","1.6","2023-08-27T02:15:00","120","2023/08/27","02:15:00","-15.78715854883194","35.03524699062109","0.1","12","300","64","13","-1188","24523","-211","12","150","149.99","118.64","31.34","21.96","46.1","9.85","0","0.00","DUALSPOT-UV-BLUE-GREEN-RED-IR","610920","632622","909212","24.145740","9.456135","0.023066","615718","805505","762356","18.351402","6.762248","0.026154","711175","820648","813058","15.620012","5.559099","0.027906","724129","850254","859797","12.715891","4.344928","0.029166","650393","806704","954609","8.536987","2.674955","0.027011","2279","4023","5145","2393","3787","4601","2386","3574","4230","2480","3442","3942","2577","3107","3350","DualSpot on"
"MA200-0416","60568","125","1","1.10","1.6","2023-08-27T02:20:00","120","2023/08/27","02:20:00","-15.787149429321289","35.03525782376528","0.1","12","300","64","13","-548","25092","-1448","12","150","150.33","118.96","31.37","22.02","46.1","9.87","0","0.00","DUALSPOT-UV-BLUE-GREEN-RED-IR","605361","628357","904911","24.585128","9.660854","0.022704","615079","806374","764339","18.714786","6.916803","0.026341","709938","820854","814304","15.942727","5.687475","0.027695","723535","851012","861452","12.993883","4.447180","0.028870","649728","807022","955596","8.742580","2.741274","0.028073","2169","3833","4910","2264","3652","4466","2252","3397","4032","2344","3270","3752","2414","2953","3199","DualSpot on"
"MA200-0416","60569","125","1","1.10","1.6","2023-08-27T02:25:00","120","2023/08/27","02:25:00","-15.787155449390411","35.03527515754104","0.1","12","300","64","11","-1132","24396","-2952","12","150","150.63","118.79","31.84","22.02","45.5","9.68","89336","20.88","DUALSPOT-UV-BLUE-GREEN-RED-IR","606046","630885","910905","25.129192","9.913467","0.021786","611305","803413","762985","19.150212","7.102966","0.025390","706779","819054","813797","16.322905","5.841631","0.027208","720935","849674","861142","13.312925","4.568166","0.029083","647695","805711","954818","8.971737","2.819717","0.032096","2690","4660","5944","2717","4334","5288","2657","4020","4779","2694","3812","4396","2694","3442","3784","DualSpot on"
"MA200-0416","60570","125","1","1.10","1.6","2023-08-27T02:30:00","120","2023/08/27","02:30:00","-15.787177503108978","35.035235825926065","0.1","12","300","64","10","-1440","24036","-652","12","150","149.39","118.97","30.41","21.88","44.9","9.37","0","0.00","DUALSPOT-UV-BLUE-GREEN-RED-IR","601093","628038","909637","25.812306","10.228439","0.022123","608026","801534","762960","19.686284","7.334590","0.026610","703412","817352","813661","16.788532","6.035334","0.029475","717045","847076","859833","13.701719","4.722834","0.033508","645859","804819","954623","9.239269","2.914901","0.039402","3372","6083","7862","3340","5646","7015","3249","5287","6432","3278","5102","6061","3141","4372","4939","DualSpot on"
"MA200-0416","60571","125","1","1.10","1.6","2023-08-27T02:35:00","120","2023/08/27","02:35:00","-15.787057101726532","35.035253655165434","0.0","12","300","64","10","-946","24919","-934","12","150","149.39","118.58","30.81","21.69","44.7","9.15","0","0.00","DUALSPOT-UV-BLUE-GREEN-RED-IR","597463","626639","910584","26.521992","10.556637","0.021279","605036","800120","763440","20.244586","7.575083","0.025313","701930","817972","815955","17.276688","6.237436","0.027870","715513","847325","861487","14.110600","4.885813","0.031864","642138","801610","951763","9.520798","3.011894","0.033908","3515","6256","8069","3490","5786","7159","3417","5445","6591","3459","5307","6285","3316","4397","4897","DualSpot on"
"MA200-0416","60572","125","1","1.10","1.6","2023-08-27T02:40:00","120","2023/08/27","02:40:00","-15.78712522983551","35.035267159342766","0.3","10","300","64","9","-976","24644","-360","12","150","149.90","119.57","30.33","21.50","45.0","9.05","89352","20.25","DUALSPOT-UV-BLUE-GREEN-RED-IR","589184","620216","904117","27.205998","10.878956","0.021628","601893","798393","763652","20.788498","7.814937","0.026075","695908","813172","812788","17.750432","6.439072","0.029044","713510","846933","862503","14.509186","5.050601","0.033874","641649","802429","953650","9.790852","3.107845","0.037791","3360","6242","8163","3372","5863","7363","3289","5520","6790","3344","5451","6576","3155","4419","5008","DualSpot on"
"MA200-0416","60573","125","1","1.10","1.6","2023-08-27T02:45:00","120","2023/08/27","02:45:00","-15.787101924419403","35.035292495042086","0.1","11","300","64","7","-1008","24572","-592","12","150","149.70","119.33","30.37","21.32","45.4","9.02","89356","20.00","DUALSPOT-UV-BLUE-GREEN-RED-IR","588985","622085","909695","27.851868","11.187771","0.021363","598457","796121","763197","21.303966","8.043545","0.025539","692808","811605","812810","18.201618","6.633284","0.028629","708924","843434","860294","14.892235","5.206650","0.032247","639542","801179","953058","10.056259","3.202001","0.036433","3179","5973","7849","3202","5580","7023","3139","5309","6554","3220","5155","6196","3106","4331","4903","DualSpot on"
"MA200-0416","60574","125","1","1.10","1.6","2023-08-27T02:50:00","120","2023/08/27","02:50:00","-15.787101328372955","35.03526999056339","0.0","11","300","64","7","-536","24732","-2860","12","150","149.57","119.01","30.55","21.18","45.8","9.03","89364","19.94","DUALSPOT-UV-BLUE-GREEN-RED-IR","582364","616983","904777","28.445076","11.474129","0.020955","596820","796005","764757","21.784820","8.259881","0.025153","692067","812717","815418","18.626914","6.815770","0.027611","708339","844506","862667","15.254354","5.355112","0.031413","636227","798305","950484","10.307663","3.289419","0.033217","2927","5505","7247","2995","5249","6625","2966","4958","6108","3052","4875","5861","2950","3997","4487","DualSpot on"
"MA200-0416","60575","125","1","1.10","1.6","2023-08-27T02:55:00","120","2023/08/27","02:55:00","-15.78713047504425","35.03525149449706","0.1","12","300","64","6","-936","24808","104","12","150","150.23","119.45","30.78","21.08","46.4","9.14","89372","19.81","DUALSPOT-UV-BLUE-GREEN-RED-IR","583675","619999","911602","28.968586","11.732994","0.020956","594175","794448","764738","22.217982","8.454234","0.024522","689673","811737","815759","19.013690","6.981050","0.026821","705458","842723","862028","15.586458","5.491492","0.030689","635211","798270","951218","10.545845","3.373792","0.033697","2574","4940","6551","2688","4681","5905","2688","4458","5485","2789","4445","5346","2785","3829","4321","DualSpot on"
"MA200-0416","60576","125","1","1.10","1.6","2023-08-27T03:00:00","120","2023/08/27","03:00:00","-15.787131011486053","35.03524849191308","0.2","12","300","64","5","-1484","23653","7","12","150","149.54","119.02","30.52","21.04","47.2","9.34","89376","19.81","DUALSPOT-UV-BLUE-GREEN-RED-IR","580112","617578","910070","29.414570","11.955379","0.020878","591220","792100","763804","22.602572","8.627510","0.024353","686768","809887","815055","19.358016","7.127562","0.026380","703763","842245","862526","15.889433","5.611586","0.028802","633758","797620","951155","10.769962","3.449232","0.029255","2200","4279","5703","2395","4208","5328","2401","3985","4908","2553","3947","4708","2630","3452","3840","DualSpot on"
"MA200-0416","60577","125","1","1.10","1.6","2023-08-27T03:05:00","120","2023/08/27","03:05:00","-15.787129819393158","35.035258658230305","0.3","12","300","64","4","-1012","24712","-304","12","150","149.53","119.84","29.69","21.06","47.7","9.54","89384","19.88","DUALSPOT-UV-BLUE-GREEN-RED-IR","575323","613596","906010","29.804592","12.158119","0.021799","590885","793135","765977","22.941178","8.783502","0.025373","685216","809497","815775","19.668304","7.260448","0.027251","702339","841909","863153","16.164083","5.720581","0.029837","632821","797551","951770","10.981636","3.519310","0.030149","1911","4011","5457","2094","3895","5012","2149","3716","4632","2299","3683","4441","2467","3297","3688","DualSpot on"
"MA200-0416","60578","125","1","1.10","1.6","2023-08-27T03:10:00","120","2023/08/27","03:10:00","-15.787089765071869","35.03527398779988","0.2","12","300","64","3","-1100","24557","-511","12","150","149.45","119.17","30.27","21.09","48.0","9.64","89372","19.94","DUALSPOT-UV-BLUE-GREEN-RED-IR","573178","612409","905957","30.165398","12.345325","0.021160","588977","791891","765892","23.253228","8.928282","0.024638","679918","804539","811776","19.953170","7.384333","0.026591","701888","842641","864788","16.418335","5.821351","0.028301","632073","797663","952508","11.178074","3.586139","0.029800","1778","3632","4916","1941","3545","4545","1984","3397","4227","2140","3339","3998","2302","3083","3452","DualSpot on"
"MA200-0416","60579","125","1","1.10","1.6","2023-08-27T03:15:00","120","2023/08/27","03:15:00","-15.787107586860657","35.03528482839465","0.2","12","300","64","2","-1215","24407","-546","12","150","150.03","119.49","30.54","21.11","47.9","9.64","89376","19.94","DUALSPOT-UV-BLUE-GREEN-RED-IR","571971","612151","907229","30.515156","12.524693","0.020667","584242","786773","761990","23.553274","9.067506","0.024205","678398","803997","812183","20.227298","7.502038","0.025682","700141","841791","864727","16.657455","5.915585","0.027415","631453","797846","953371","11.363453","3.650146","0.029996","1719","3449","4654","1861","3379","4330","1904","3200","3963","2007","3095","3695","2167","2927","3287","DualSpot on"
"MA200-0416","60580","125","1","1.10","1.6","2023-08-27T03:20:00","120","2023/08/27","03:20:00","-15.78720074892044","35.03528815880418","0.0","13","300","64","0","-1128","24448","-512","12","150","149.45","119.65","29.80","21.05","47.4","9.42","89384","19.81","DUALSPOT-UV-BLUE-GREEN-RED-IR","568349","609457","904901","30.896172","12.714390","0.020370","584811","788907","765191","23.871520","9.213919","0.024291","679634","806745","815995","20.512416","7.626670","0.026615","696241","838323","862041","16.903654","6.017398","0.029956","631917","799348","955745","11.543575","3.714420","0.033751","1870","3739","5046","1971","3642","4693","1978","3472","4357","2064","3428","4181","2102","3013","3445","DualSpot on"
"MA200-0416","60581","125","1","1.10","1.6","2023-08-27T03:25:00","120","2023/08/27","03:25:00","-15.787083327770233","35.03526299446821","0.4","13","300","64","0","-876","24628","-1256","12","150","149.61","119.33","30.28","20.96","47.3","9.33","89396","19.75","DUALSPOT-UV-BLUE-GREEN-RED-IR","568802","611075","909053","31.274228","12.903160","0.019898","581413","785699","763187","24.194540","9.362037","0.023490","676809","804672","814915","20.798768","7.753146","0.026035","697606","841159","865870","17.152546","6.121964","0.029435","630272","798177","954989","11.723862","3.780349","0.033640","1860","3661","4926","2006","3626","4648","1992","3468","4345","2092","3464","4226","2110","3041","3485","DualSpot on"
"MA200-0416","60582","125","1","1.10","1.6","2023-08-27T03:30:00","120","2023/08/27","03:30:00","-15.787079095840454","35.03527499362826","0.0","12","300","64","23","-1008","24620","-360","12","150","150.36","120.06","30.31","20.95","47.6","9.39","89400","20.13","DUALSPOT-UV-BLUE-GREEN-RED-IR","567021","610198","909357","31.624332","13.084381","0.020294","579623","784510","763117","24.490724","9.501571","0.023926","675031","803755","814997","21.070378","7.875190","0.026323","691462","834886","860234","17.388506","6.220843","0.029145","626323","794061","950627","11.895206","3.841899","0.032324","1712","3512","4781","1828","3412","4417","1878","3343","4217","1971","3273","3998","1993","2836","3239","DualSpot on"
"MA200-0416","60583","125","1","1.10","1.6","2023-08-27T03:35:00","120","2023/08/27","03:35:00","-15.787113964557648","35.03522565588355","0.1","12","300","64","29","-861","24715","-930","12","150","150.01","119.75","30.25","21.83","46.4","9.81","89424","22.94","DUALSPOT-UV-BLUE-GREEN-RED-IR","563997","608048","907700","31.973972","13.256584","0.019347","576863","782014","761604","24.776526","9.623391","0.021354","673901","803645","815619","21.321492","7.971597","0.021270","693851","839015","865092","17.601880","6.292060","0.018932","626046","794630","951820","12.058868","3.890592","0.017229","1714","3343","4496","1769","2984","3757","1740","2645","3185","1787","2361","2681","1909","2248","2409","DualSpot on"
"MA200-0416","60584","125","1","1.10","1.6","2023-08-27T03:40:00","120","2023/08/27","03:40:00","-15.787203192710876","35.03520615771413","0.3","12","300","64","32","-912","24564","-948","12","150","150.69","119.89","30.80","22.62","44.7","9.99","89424","23.81","DUALSPOT-UV-BLUE-GREEN-RED-IR","563487","608747","910401","32.353874","13.433941","0.018017","575751","781893","762354","25.065664","9.737492","0.018638","672738","803669","816321","21.573578","8.052682","0.013297","694378","840977","867548","17.811420","6.342432","-0.006220","626883","796699","954820","12.241508","3.945594","0.016559","1861","3382","4462","1787","2746","3355","1745","2185","2447","1753","1640","1578","2128","2494","2669","DualSpot on"
"MA200-0416","60585","125","1","1.10","1.6","2023-08-27T03:45:00","120","2023/08/27","03:45:00","-15.787138283252716","35.03523949533701","0.0","12","300","64","34","-1072","24388","-1184","12","150","150.35","119.25","31.10","23.25","43.3","10.08","89424","24.31","DUALSPOT-UV-BLUE-GREEN-RED-IR","560233","606482","908882","32.773362","13.639530","0.018337","573389","780174","761680","25.387244","9.869409","0.019058","671480","803615","817066","21.851298","8.150302","0.016328","691820","839277","866355","18.041998","6.404507","0.002641","626218","796959","955694","12.441154","4.008287","0.018599","2066","3882","5177","1999","3144","3872","1933","2605","3006","1939","2002","2036","2338","2815","3042","DualSpot on"
"MA200-0416","60586","125","1","1.10","1.6","2023-08-27T03:50:00","120","2023/08/27","03:50:00","-15.787124633789062","35.03526199236512","0.1","12","300","64","36","-948","24488","-800","12","150","150.23","119.41","30.83","23.73","42.2","10.13","89440","24.69","DUALSPOT-UV-BLUE-GREEN-RED-IR","558725","606153","910144","33.176200","13.829952","0.017712","572291","780074","762543","25.697510","9.997619","0.019290","666991","799608","813758","22.118978","8.245457","0.016969","689910","838275","865890","18.263666","6.469797","0.009803","623042","793951","952708","12.632610","4.068876","0.019776","1981","3628","4805","1926","3083","3819","1861","2562","2979","1862","2124","2268","2239","2745","2985","DualSpot on"
"MA200-0416","60587","125","1","1.10","1.6","2023-08-27T03:55:00","120","2023/08/27","03:55:00","-15.787198185920715","35.03524048998952","0.1","12","300","64","39","-800","24404","-648","12","150","150.09","119.61","30.48","24.12","41.4","10.18","89444","25.00","DUALSPOT-UV-BLUE-GREEN-RED-IR","554483","602866","907111","33.610072","14.043034","0.018275","572251","781581","765118","26.034184","10.140014","0.019946","665753","799582","814684","22.414788","8.357707","0.019543","685878","834785","862969","18.512616","6.550533","0.016021","622096","793819","953199","12.840355","4.139074","0.025286","2130","4105","5522","2086","3462","4340","2053","3057","3653","2088","2657","2968","2426","3216","3592","DualSpot on"
"MA200-0416","60588","125","1","1.10","1.6","2023-08-27T04:00:00","120","2023/08/27","04:00:00","-15.787153840065002","35.03524549305439","0.1","11","300","64","40","-904","24356","-700","12","150","150.43","119.73","30.70","24.44","41.0","10.32","89448","25.25","DUALSPOT-UV-BLUE-GREEN-RED-IR","554532","604171","910914","34.015072","14.242447","0.018020","568535","777917","762580","26.354358","10.276646","0.019783","663752","798576","814543","22.697676","8.467724","0.019910","686252","836543","865527","18.753118","6.631457","0.017376","621255","793792","953803","13.039425","4.206133","0.024285","1986","3815","5133","1982","3299","4141","1961","2975","3579","2015","2644","2989","2322","3051","3398","DualSpot on"
"MA200-0416","60589","125","1","1.10","1.6","2023-08-27T04:05:00","120","2023/08/27","04:05:00","-15.787153840065002","35.035239826887846","0.1","11","300","64","41","-863","24452","-792","12","150","149.83","120.13","29.70","24.75","40.6","10.47","89432","25.50","DUALSPOT-UV-BLUE-GREEN-RED-IR","549070","599368","905265","34.387676","14.422894","0.018115","567018","777160","762796","26.649424","10.401500","0.020212","661673","797339","814056","22.955814","8.564326","0.019624","676354","825717","854883","18.972864","6.703289","0.017535","620051","793191","953635","13.218384","4.265606","0.025503","1821","3569","4831","1820","3116","3946","1783","2700","3246","1835","2426","2750","2080","2797","3139","DualSpot on"
"MA200-0416","60590","125","1","1.10","1.6","2023-08-27T04:10:00","120","2023/08/27","04:10:00","-15.787143647670746","35.035241827368736","0.0","11","300","64","42","-923","24450","-619","12","150","150.09","120.09","30.00","25.01","40.2","10.55","89448","25.75","DUALSPOT-UV-BLUE-GREEN-RED-IR","547955","599104","906344","34.712152","14.585014","0.018236","566167","777168","763656","26.913228","10.516769","0.020492","659539","795885","813319","23.189484","8.656941","0.020849","680068","831295","861259","19.166484","6.769997","0.019283","618239","791707","952395","13.377048","4.320629","0.027243","1586","3174","4324","1628","2848","3630","1615","2562","3127","1617","2230","2565","1845","2562","2903","DualSpot on"
"MA200-0416","60591","125","1","1.10","1.6","2023-08-27T04:15:00","120","2023/08/27","04:15:00","-15.787121653556824","35.03527932614088","0.1","11","300","64","44","-948","24496","-955","12","150","149.90","120.30","29.60","25.22","39.8","10.58","89456","25.94","DUALSPOT-UV-BLUE-GREEN-RED-IR","546923","598961","907657","35.040056","14.751637","0.018489","565103","776834","764241","27.177282","10.635424","0.021187","657572","794607","812787","23.424390","8.754532","0.022354","678793","830787","861355","19.364688","6.842436","0.022140","619628","794309","956060","13.536514","4.377289","0.029270","1601","3306","4546","1627","2971","3836","1621","2737","3403","1653","2455","2893","1851","2674","3067","DualSpot on"
"MA200-0416","60592","125","1","1.10","1.6","2023-08-27T04:20:00","120","2023/08/27","04:20:00","-15.787168681621552","35.035254657268524","0.0","11","300","64","45","-892","24704","-1508","12","150","149.51","120.86","28.64","25.43","39.4","10.60","89456","26.13","DUALSPOT-UV-BLUE-GREEN-RED-IR","544584","597469","907056","35.408296","14.937134","0.018659","563360","775684","764129","27.472208","10.767073","0.021563","658170","796573","815680","23.684902","8.861752","0.022829","677481","830333","861587","19.585772","6.924413","0.023806","614983","789225","950542","13.712578","4.440265","0.031334","1789","3804","5273","1808","3407","4437","1789","3107","3896","1835","2871","3438","2034","3071","3568","DualSpot on"
"MA200-0416","60593","125","1","1.10","1.6","2023-08-27T04:25:00","120","2023/08/27","04:25:00","-15.78715318441391","35.03528833016753","0.1","11","300","64","46","-984","24515","-619","12","150","150.17","122.34","27.83","25.61","39.4","10.76","89464","26.25","DUALSPOT-UV-BLUE-GREEN-RED-IR","545279","599204","911207","35.733324","15.102032","0.019047","563497","776994","766321","27.735510","10.885442","0.022225","657807","797185","817127","23.917378","8.957623","0.023630","678777","832966","864952","19.782162","6.996666","0.024696","614587","789537","951437","13.869087","4.495802","0.032670","1560","3480","4885","1595","3153","4159","1577","2860","3627","1610","2604","3148","1787","2787","3267","DualSpot on"
"MA200-0416","60594","125","1","1.10","1.6","2023-08-27T04:30:00","120","2023/08/27","04:30:00","-15.787175059318542","35.035235825926065","0.1","11","300","64","47","-892","24380","1280","12","150","150.29","122.45","27.85","25.73","38.9","10.70","89460","26.38","DUALSPOT-UV-BLUE-GREEN-RED-IR","541535","596160","908258","36.096144","15.286591","0.018895","560821","774578","764965","28.034760","11.021764","0.022224","654088","793898","814684","24.182196","9.070748","0.024162","674407","828746","861315","20.009284","7.084568","0.026023","614123","789819","952394","14.043503","4.559965","0.034013","1740","3892","5473","1811","3629","4806","1795","3372","4319","1860","3166","3882","1989","3218","3809","DualSpot on"
"MA200-0416","60595","125","1","1.10","1.6","2023-08-27T04:35:00","120","2023/08/27","04:35:00","-15.787175059318542","35.035260658711195","0.1","12","300","64","48","-824","24536","-836","12","150","150.16","122.08","28.08","25.84","38.8","10.76","89460","26.44","DUALSPOT-UV-BLUE-GREEN-RED-IR","537176","592347","903975","36.432464","15.457539","0.018598","560233","774878","766232","28.306084","11.147482","0.022114","653441","794198","815828","24.424210","9.174781","0.023823","676058","831814","865196","20.214078","7.165096","0.025903","614755","791410","954845","14.202988","4.616674","0.031482","1618","3575","5018","1647","3319","4404","1645","3075","3936","1683","2877","3532","1824","2821","3300","DualSpot on"
"MA200-0416","60596","125","1","1.10","1.6","2023-08-27T04:40:00","120","2023/08/27","04:40:00","-15.787241876125336","35.035274155437946","0.0","12","300","64","49","-871","24428","-768","12","150","150.08","122.00","28.07","25.96","38.7","10.83","89464","26.56","DUALSPOT-UV-BLUE-GREEN-RED-IR","536100","592050","905039","36.755184","15.625557","0.018695","556010","770112","762458","28.573726","11.271936","0.021968","652172","793733","816185","24.661264","9.278456","0.023958","674589","831007","865069","20.413594","7.245203","0.026254","610742","787019","950093","14.354034","4.673500","0.033785","1553","3515","4966","1626","3286","4368","1613","3066","3942","1640","2862","3535","1729","2827","3357","DualSpot on"
"MA200-0416","60597","125","1","1.10","1.6","2023-08-27T04:45:00","120","2023/08/27","04:45:00","-15.787129163742065","35.035233329981565","0.1","12","300","64","51","-796","24480","-950","12","150","150.43","121.96","28.47","26.02","38.2","10.68","89468","26.56","DUALSPOT-UV-BLUE-GREEN-RED-IR","533306","591823","908561","37.645444","16.044003","0.016962","552726","768967","763968","29.342770","11.609257","0.020197","645737","789077","813788","25.346144","9.566520","0.022212","668343","826284","862222","21.003520","7.481697","0.025095","609507","787663","952501","14.799999","4.841047","0.032116","4287","8633","11862","4674","8784","11475","4662","8401","10668","4852","8335","10261","5108","8222","9735","DualSpot on"
"MA200-0416","60598","125","1","1.10","1.6","2023-08-27T04:50:00","120","2023/08/27","04:50:00","-15.787050008773804","35.03530132770538","0.3","11","300","64","53","-932","24464","-908","12","150","149.73","121.57","28.16","25.99","38.0","10.56","89484","26.50","DUALSPOT-UV-BLUE-GREEN-RED-IR","528433","588438","906277","38.333108","16.376808","0.017096","548540","765601","762605","29.937428","11.877942","0.020433","644693","790164","816735","25.882016","9.798127","0.022491","668181","828267","865901","21.463666","7.671494","0.025552","609323","789084","955428","15.149197","4.972410","0.031784","3322","6940","9639","3626","7072","9339","3659","6827","8757","3797","6761","8409","4012","6515","7738","DualSpot on"
"MA200-0416","60599","125","1","1.10","1.6","2023-08-27T04:55:00","120","2023/08/27","04:55:00","-15.787287831306458","35.035238329321146","0.1","11","300","64","54","-971","24356","-680","12","150","150.23","121.88","28.35","25.96","37.9","10.52","89496","26.44","DUALSPOT-UV-BLUE-GREEN-RED-IR","526721","587478","906491","38.679064","16.559895","0.017849","547215","764852","762938","30.225266","12.018097","0.021332","642822","788933","816463","26.138740","9.916847","0.023498","666509","827231","865635","21.685476","7.767352","0.026379","604994","784228","950146","15.307461","5.034584","0.033092","1667","3793","5385","1750","3665","4928","1748","3476","4533","1825","3392","4266","1814","3063","3676","DualSpot on"
"MA200-0416","60600","125","1","1.10","1.6","2023-08-27T05:00:00","120","2023/08/27","05:00:00","-15.787178695201874","35.03527882322669","0.0","11","300","64","55","-811","24638","-796","12","150","149.96","121.67","28.29","25.90","37.8","10.41","89504","26.38","DUALSPOT-UV-BLUE-GREEN-RED-IR","523478","584801","904004","39.022156","16.743538","0.017816","547526","766427","765595","30.514778","12.160629","0.021305","640867","787607","816098","26.397790","10.038461","0.023559","664076","825227","864384","21.907158","7.866461","0.026941","606910","787476","954677","15.468441","5.098093","0.032951","1656","3813","5434","1763","3735","5041","1767","3569","4674","1827","3515","4460","1848","3136","3769","DualSpot on"
"MA200-0416","60601","125","1","1.10","1.6","2023-08-27T05:05:00","120","2023/08/27","05:05:00","-15.787190318107605","35.035252656787634","0.0","11","300","64","57","-908","24552","-796","12","150","149.50","122.14","27.36","25.90","37.8","10.40","89508","26.38","DUALSPOT-UV-BLUE-GREEN-RED-IR","521151","583327","903651","39.427736","16.957310","0.017847","545800","765381","765801","30.856220","12.325660","0.021341","638613","786129","815721","26.702896","10.181076","0.023865","662226","824115","864251","22.171182","7.983217","0.027224","605507","786577","954303","15.661446","5.174818","0.034252","1950","4589","6581","2072","4472","6068","2073","4328","5717","2168","4281","5470","2207","3917","4761","DualSpot on"
"MA200-0416","60602","125","1","1.10","1.6","2023-08-27T05:10:00","120","2023/08/27","05:10:00","-15.787115395069122","35.035286989063025","0.0","11","300","64","58","-961","24280","-1303","12","150","149.92","121.72","28.20","25.89","37.9","10.46","89524","26.31","DUALSPOT-UV-BLUE-GREEN-RED-IR","521842","585104","908184","39.794136","17.151490","0.017429","542964","762604","764157","31.161922","12.473123","0.020649","635791","783819","814308","26.975294","10.305452","0.022654","658324","820351","861158","22.404442","8.083629","0.025582","603247","784483","952442","15.834606","5.240822","0.031010","1768","4044","5769","1861","3876","5221","1857","3662","4777","1922","3572","4504","1987","3269","3904","DualSpot on"
"MA200-0416","60603","125","1","1.10","1.6","2023-08-27T05:15:00","120","2023/08/27","05:15:00","-15.787141263484955","35.035273157060146","0.0","11","300","64","60","-672","24916","-756","12","150","149.96","121.92","28.04","25.86","38.0","10.44","89528","26.31","DUALSPOT-UV-BLUE-GREEN-RED-IR","519755","584074","908793","40.259472","17.392670","0.017092","540992","761429","764484","31.561036","12.664440","0.020411","633728","782791","814582","27.332856","10.469138","0.022541","657692","821050","863074","22.715970","8.217306","0.025336","602784","784986","953960","16.070797","5.333156","0.031826","2241","5051","7188","2426","5057","6820","2434","4845","6342","2563","4782","6039","2706","4599","5539","DualSpot on"
"MA200-0416","60604","125","1","1.10","1.6","2023-08-27T05:20:00","120","2023/08/27","05:20:00","-15.787115752696991","35.03526782616973","0.0","12","300","64","62","-850","24430","196","12","150","150.14","122.09","28.06","25.82","38.0","10.41","89528","26.19","DUALSPOT-UV-BLUE-GREEN-RED-IR","515079","580771","906735","40.935548","17.735512","0.016622","537548","758943","764079","32.152690","12.942618","0.019794","629600","780001","813670","27.870604","10.712386","0.021935","657485","822986","866853","23.187140","8.419855","0.024907","599509","782490","952229","16.432251","5.475105","0.031359","3252","7177","10177","3592","7350","9881","3656","7197","9408","3871","7242","9164","4135","7067","8532","DualSpot on"
"MA200-0416","60605","125","1","1.10","1.6","2023-08-27T05:25:00","120","2023/08/27","05:25:00","-15.787170827388763","35.03527282550931","0.1","12","300","64","64","-756","24792","215","12","150","149.76","121.51","28.25","25.80","38.3","10.52","89532","26.19","DUALSPOT-UV-BLUE-GREEN-RED-IR","513736","580264","907841","41.324916","17.946174","0.016966","535754","757670","764029","32.482464","13.105394","0.020106","628370","779681","814436","28.166492","10.850263","0.022022","651689","816884","861378","23.443010","8.533968","0.025202","595921","778640","948254","16.618313","5.549913","0.031452","1882","4379","6297","2011","4271","5799","2021","4051","5323","2112","4052","5162","2139","3699","4481","DualSpot on"
"MA200-0416","60606","125","1","1.10","1.6","2023-08-27T05:30:00","120","2023/08/27","05:30:00","-15.78710687160492","35.03529982641339","0.1","12","300","64","65","-951","24360","-1376","12","150","150.28","121.62","28.66","25.82","38.6","10.67","89532","26.25","DUALSPOT-UV-BLUE-GREEN-RED-IR","510528","577559","905405","41.677536","18.142304","0.016954","533131","755024","762502","32.775756","13.253614","0.020066","625957","777759","813460","28.426798","10.973967","0.021931","649358","814954","860220","23.668404","8.633424","0.024448","596707","780448","951072","16.786800","5.615932","0.029722","1702","4019","5804","1787","3833","5222","1776","3583","4718","1859","3481","4412","1935","3217","3862","DualSpot on"
"MA200-0416","60607","125","1","1.10","1.6","2023-08-27T05:35:00","120","2023/08/27","05:35:00","-15.787120521068573","35.0352773219347","0.0","12","300","64","68","-760","24800","1268","12","150","150.24","121.80","28.44","25.84","38.5","10.64","89532","26.25","DUALSPOT-UV-BLUE-GREEN-RED-IR","510460","578565","908981","42.085696","18.363198","0.016644","533313","756619","765421","33.117202","13.422819","0.019739","624960","777789","814651","28.731174","11.117236","0.021708","649220","816004","862321","23.928804","8.748574","0.024446","596933","781711","953371","16.985816","5.694408","0.029963","1968","4562","6570","2078","4411","6001","2074","4182","5513","2144","4062","5167","2282","3855","4648","DualSpot on"
"MA200-0416","60608","125","1","1.10","1.6","2023-08-27T05:40:00","120","2023/08/27","05:40:00","-15.787112772464752","35.03531049191952","0.1","12","300","64","69","-1020","24072","668","12","150","150.56","121.76","28.80","25.84","38.5","10.64","89540","26.25","DUALSPOT-UV-BLUE-GREEN-RED-IR","507605","576645","908352","42.579340","18.624314","0.016140","530196","753770","764064","33.526520","13.621317","0.019054","622586","776336","814491","29.098200","11.286472","0.020893","646922","814590","862000","24.245096","8.885034","0.023316","595367","780768","953122","17.223118","5.786611","0.028554","2381","5325","7613","2492","5109","6900","2502","4878","6383","2606","4753","5995","2722","4472","5357","DualSpot on"
"MA200-0416","60609","125","1","1.10","1.6","2023-08-27T05:45:00","120","2023/08/27","05:45:00","-15.787175238132477","35.03527332469821","0.1","12","300","64","71","-1032","24460","-1024","12","150","149.63","121.84","27.79","25.82","38.7","10.69","89540","26.19","DUALSPOT-UV-BLUE-GREEN-RED-IR","504675","574594","907439","43.054904","18.880692","0.016450","528119","752243","763939","33.909048","13.810561","0.019566","620090","774618","813991","29.436986","11.445335","0.021513","644763","813167","861570","24.531818","9.011514","0.024298","593777","779664","952550","17.431496","5.869694","0.030401","2292","5417","7858","2327","5047","6916","2308","4745","6295","2361","4565","5845","2389","4175","5082","DualSpot on"
"MA200-0416","60610","125","1","1.10","1.6","2023-08-27T05:50:00","120","2023/08/27","05:50:00","-15.78710675239563","35.03529266268015","0.1","12","300","64","72","-1007","24088","-673","12","150","149.86","121.65","28.21","25.83","38.8","10.76","89552","26.19","DUALSPOT-UV-BLUE-GREEN-RED-IR","501672","572454","906409","43.537772","19.142818","0.016199","525569","750043","763119","34.280556","13.994961","0.019204","617378","772542","813032","29.761466","11.597248","0.021012","641405","810189","859499","24.810732","9.133801","0.023577","591523","777713","950900","17.638946","5.949098","0.028081","2331","5457","7910","2264","4845","6626","2214","4470","5910","2300","4348","5542","2382","3931","4720","DualSpot on"
"MA200-0416","60611","125","1","1.10","1.6","2023-08-27T05:55:00","120","2023/08/27","05:55:00","-15.78710561990738","35.03529266268015","0.0","12","300","64","75","-760","24388","-300","12","150","150.33","121.97","28.36","25.81","38.7","10.69","89556","26.13","DUALSPOT-UV-BLUE-GREEN-RED-IR","498605","570599","906507","44.160172","19.472808","0.015761","523333","748556","763279","34.724988","14.211566","0.018711","615486","771781","813717","30.148618","11.777931","0.020665","640303","810326","860832","25.137118","9.275879","0.023080","590441","777444","951472","17.880692","6.043504","0.028325","2997","6833","9860","2701","5661","7712","2635","5289","6990","2684","5025","6394","2768","4649","5610","DualSpot on"
"MA200-0416","60612","125","1","1.10","1.6","2023-08-27T06:00:00","120","2023/08/27","06:00:00","-15.787105143070221","35.03527982532978","0.2","12","300","72","77","-1056","24080","-604","12","150","149.96","121.84","28.13","25.76","38.8","10.68","89576","26.06","DUALSPOT-UV-BLUE-GREEN-RED-IR","431274","495015","789220","44.813116","19.826256","0.015775","522912","749760","766272","35.200796","14.445672","0.018676","615013","772896","816441","30.559586","11.970539","0.020575","640318","811927","863864","25.488070","9.432453","0.023418","590398","778573","953832","18.138924","6.146471","0.028878","3147","7381","10740","2895","6170","8450","2800","5685","7543","2889","5585","7168","2960","5114","6217","DualSpot on"
"MA200-0416","60613","125","1","1.10","1.6","2023-08-27T06:05:00","120","2023/08/27","06:05:00","-15.787112772464752","35.035291992127895","0.1","12","300","64","78","-912","24284","-483","12","150","150.17","121.96","28.22","25.64","38.7","10.54","89588","25.94","DUALSPOT-UV-BLUE-GREEN-RED-IR","493703","567682","907081","45.216072","20.053958","0.015959","519255","745623","763323","35.520576","14.612575","0.019168","611792","769911","814460","30.844306","12.113593","0.021352","635423","806689","859318","25.731716","9.546865","0.024124","587900","776066","951475","18.312694","6.218599","0.029810","1940","4739","6970","1943","4384","6090","1938","4208","5677","2004","4067","5284","1990","3570","4383","DualSpot on"
"MA200-0416","60614","125","1","1.10","1.6","2023-08-27T06:10:00","120","2023/08/27","06:10:00","-15.787154972553253","35.035254657268524","0.0","12","300","64","80","-1004","24220","-912","12","150","150.49","122.05","28.45","25.62","39.3","10.73","89592","25.94","DUALSPOT-UV-BLUE-GREEN-RED-IR","492799","567684","909292","45.641072","20.294170","0.015766","518632","746007","765046","35.863492","14.787274","0.018644","611376","770617","816411","31.148656","12.260186","0.020467","636345","809064","862850","25.994930","9.667381","0.023297","587984","777103","953486","18.507274","6.297210","0.028444","2045","4959","7293","2082","4552","6285","2070","4278","5711","2163","4250","5486","2227","3860","4702","DualSpot on"
"MA200-0416","60615","125","1","1.10","1.6","2023-08-27T06:15:00","120","2023/08/27","06:15:00","-15.787080764770508","35.03529682382941","0.2","12","300","64","82","-808","24392","-616","12","150","150.49","122.08","28.41","25.66","39.7","10.93","89592","26.00","DUALSPOT-UV-BLUE-GREEN-RED-IR","491393","567177","910767","46.084360","20.544224","0.015620","517673","745949","766454","36.236580","14.979132","0.018584","609669","769795","816850","31.483084","12.421969","0.020344","635614","809440","864408","26.288510","9.798850","0.022660","587367","777336","954657","18.734810","6.387861","0.027718","2132","5169","7612","2265","5006","6937","2274","4727","6326","2412","4642","5967","2603","4457","5416","DualSpot on"
"MA200-0416","60616","125","1","1.10","1.6","2023-08-27T06:20:00","120","2023/08/27","06:20:00","-15.78710150718689","35.03528282418847","0.2","12","300","64","83","-896","24324","-440","12","150","150.23","121.59","28.63","25.73","39.9","11.09","89592","26.13","DUALSPOT-UV-BLUE-GREEN-RED-IR","487517","563685","907286","46.499268","20.780610","0.015475","514068","742017","763729","36.577288","15.153651","0.018246","605560","765780","813804","31.789422","12.569295","0.019909","631106","804848","860537","26.549910","9.917135","0.022423","584288","774223","951585","18.936370","6.469379","0.027539","2004","4849","7147","2077","4518","6245","2091","4271","5697","2156","4144","5329","2315","3977","4839","DualSpot on"
"MA200-0416","60617","125","1","1.10","1.6","2023-08-27T06:25:00","120","2023/08/27","06:25:00","-15.78711074590683","35.03526999056339","0.1","12","300","64","85","-1020","24352","-652","12","150","149.96","121.55","28.41","25.78","40.2","11.23","89608","26.19","DUALSPOT-UV-BLUE-GREEN-RED-IR","486059","563093","908737","46.950396","21.041980","0.015511","513060","741882","765107","36.946068","15.346300","0.018371","604392","765638","814978","32.115486","12.729879","0.020152","631015","805991","862882","26.834248","10.045616","0.022311","583654","774387","952613","19.155488","6.556419","0.026908","2179","5403","8022","2249","5027","7000","2227","4692","6312","2346","4537","5848","2518","4280","5196","DualSpot on"
"MA200-0416","60618","125","1","1.10","1.6","2023-08-27T06:30:00","120","2023/08/27","06:30:00","-15.787089765071869","35.03531149402261","0.2","13","300","64","88","-867","24312","-824","12","150","149.90","121.47","28.42","25.83","40.3","11.33","89608","26.19","DUALSPOT-UV-BLUE-GREEN-RED-IR","477883","557629","908462","48.610724","21.984784","0.014865","505670","736025","764481","38.300216","16.048252","0.017665","596722","760620","814441","33.320850","13.318967","0.019344","623775","801310","861954","27.872510","10.519335","0.021672","579293","772202","952973","19.935234","6.873552","0.026574","8028","19482","28939","8264","18307","25551","8238","17206","23178","8575","16720","21658","8967","15586","19069","DualSpot on"
"MA200-0416","60619","125","1","1.10","1.6","2023-08-27T06:35:00","120","2023/08/27","06:35:00","-15.78719437122345","35.035210989415646","0.1","12","300","64","90","-812","24300","-600","12","150","149.87","121.54","28.33","25.91","40.4","11.43","89628","26.25","DUALSPOT-UV-BLUE-GREEN-RED-IR","471314","552763","906936","49.831040","22.692436","0.014690","500628","731974","764119","39.265524","16.559826","0.017514","593661","759949","817165","34.166208","13.741787","0.019233","622543","802773","866462","28.593640","10.855155","0.021564","577094","771711","954500","20.477036","7.097233","0.026433","5897","14670","22006","5888","13385","18854","5774","12390","16841","5952","11891","15526","6227","11028","13575","DualSpot on"
"MA200-0416","60620","125","1","1.10","1.6","2023-08-27T06:40:00","120","2023/08/27","06:40:00","-15.787133872509003","35.03524582833052","0.2","12","300","64","92","-884","24528","-744","12","150","149.83","121.63","28.20","25.97","40.6","11.54","89636","26.38","DUALSPOT-UV-BLUE-GREEN-RED-IR","467078","550458","909258","50.974364","23.361640","0.014476","497214","729970","765499","40.127368","17.012998","0.017138","586905","754146","813927","34.917996","14.110872","0.018681","616296","797536","863288","29.233426","11.145541","0.020784","572590","767947","951663","20.960220","7.288229","0.024785","5521","13940","21063","5252","11914","16818","5131","10867","14758","5277","10332","13447","5549","9462","11549","DualSpot on"
"MA200-0416","60621","125","1","1.10","1.6","2023-08-27T06:45:00","120","2023/08/27","06:45:00","-15.787210047245026","35.03522265702486","0.2","11","300","64","95","-951","24416","-544","12","150","149.87","121.75","28.12","26.03","40.8","11.66","89648","26.38","DUALSPOT-UV-BLUE-GREEN-RED-IR","463686","548316","910702","51.866304","23.909478","0.014553","493831","727420","765798","40.847936","17.404000","0.017176","583471","752155","814433","35.567124","14.438515","0.018730","613182","795916","863809","29.804138","11.409382","0.020760","570199","766789","951940","21.408508","7.468002","0.024788","4303","11443","17549","4387","10308","14703","4426","9673","13259","4703","9413","12335","5143","8930","10959","DualSpot on"
"MA200-0416","60622","125","1","1.10","1.6","2023-08-27T06:50:00","120","2023/08/27","06:50:00","-15.787151038646698","35.03525732457638","0.1","11","300","64","96","-951","24424","-644","12","150","149.59","121.58","28.01","26.08","40.9","11.78","89660","26.44","DUALSPOT-UV-BLUE-GREEN-RED-IR","456911","542335","906261","52.865732","24.528550","0.014358","487906","721234","762774","41.675072","17.868170","0.017165","580131","750433","815728","36.309244","14.829894","0.018877","610185","794651","865150","30.454300","11.725158","0.021116","568656","766892","954059","21.908500","7.678219","0.025535","4828","12980","20037","5043","12284","17718","5067","11599","16109","5365","11309","15031","5744","10483","13039","DualSpot on"
"MA200-0416","60623","125","1","1.10","1.6","2023-08-27T06:55:00","120","2023/08/27","06:55:00","-15.78713196516037","35.03526099026203","0.1","11","300","64","97","-951","24500","-596","12","150","150.17","121.65","28.53","26.15","41.1","11.90","89664","26.44","DUALSPOT-UV-BLUE-GREEN-RED-IR","454478","540823","907759","53.551004","24.963626","0.014226","485905","719991","763768","42.203120","18.160520","0.016702","577678","749010","816172","36.779052","15.070422","0.018139","605303","790074","861802","30.867816","11.917561","0.019950","563228","761108","948111","22.238960","7.809841","0.023310","3308","8957","13890","3218","7596","10904","3206","6999","9633","3410","6766","8876","3794","6445","7879","DualSpot on"
"MA200-0416","60624","125","1","1.10","1.6","2023-08-27T07:00:00","120","2023/08/27","07:00:00","-15.787231624126434","35.03527232259512","0.1","11","300","64","98","-959","24412","-700","12","150","149.87","121.58","28.29","26.24","41.3","12.04","89668","26.50","DUALSPOT-UV-BLUE-GREEN-RED-IR","439863","529346","910584","57.131728","27.415154","0.013806","476165","712538","766092","44.527144","19.502560","0.016282","567091","742338","817361","38.774664","16.110380","0.017526","595687","784912","863237","32.634746","12.736651","0.018980","555634","757750","949274","23.715862","8.372741","0.020936","17298","50899","81898","14170","35168","51532","13627","30520","42528","14580","29048","38309","16969","27796","33704","DualSpot on"
"MA200-0416","60625","125","1","1.10","1.6","2023-08-27T07:05:00","120","2023/08/27","07:05:00","-15.787168264389038","35.035243824124336","0.1","11","300","64","98","-911","24642","-803","12","150","150.16","122.00","28.16","26.33","41.5","12.20","89684","26.63","DUALSPOT-UV-BLUE-GREEN-RED-IR","431029","520683","905058","58.556976","28.462436","0.013823","468823","704038","761570","45.497584","20.118800","0.016669","559881","735551","813967","39.639608","16.609701","0.018187","591399","782344","863964","33.440602","13.148761","0.019946","551742","755721","949647","24.459324","8.679461","0.022470","6861","21843","36011","5896","16222","24407","5886","14720","21092","6627","14681","19901","8513","15214","18901","DualSpot on"
"MA200-0416","60626","125","1","1.10","1.6","2023-08-27T07:10:00","120","2023/08/27","07:10:00","-15.787122786045074","35.035264156758785","0.0","11","300","68","98","-812","24472","-424","13","150","150.16","118.73","31.43","26.38","41.9","12.38","89700","26.63","DUALSPOT-UV-BLUE-GREEN-RED-IR","758010","690735","907170","0.000000","0.000000","0.000000","730367","858081","758148","0.000000","0.000000","0.000000","828823","870743","813993","0.000000","0.000000","0.000000","824249","895693","864396","0.000000","0.000000","0.000000","700892","827010","949359","0.000000","0.000000","0.000000","","","","","","","","","","","","","","","","Tape advance-DualSpot on"
"MA200-0416","60627","125","1","1.10","1.6","2023-08-27T07:15:00","120","2023/08/27","07:15:00","-15.787167727947235","35.03525632619858","0.1","10","300","68","98","-920","24532","-532","13","150","149.73","118.46","31.27","26.39","42.0","12.44","89708","26.63","DUALSPOT-UV-BLUE-GREEN-RED-IR","743860","687194","908327","0.000000","0.000000","0.000000","726586","861217","763745","0.000000","0.000000","0.000000","820918","868435","814102","0.000000","0.000000","0.000000","819118","894814","865284","0.000000","0.000000","0.000000","698045","826259","949596","0.000000","0.000000","0.000000","","","","","","","","","","","","","","","","Tape advance-DualSpot on"
"MA200-0416","60628","125","1","1.10","1.6","2023-08-27T07:20:00","120","2023/08/27","07:20:00","-15.7871795296669","35.03528632596135","0.3","10","300","64","98","-812","24532","-732","13","150","149.92","119.02","30.90","26.41","42.1","12.51","89720","26.63","DUALSPOT-UV-BLUE-GREEN-RED-IR","726817","682008","908331","2.325416","0.765035","0.000000","716668","858048","764208","1.430969","0.428676","0.000000","812680","866562","814972","1.114453","0.321239","0.000000","813992","894579","867116","0.840003","0.234377","0.000000","695354","826104","950728","0.501291","0.134529","0.000000","11475","14542","11475","8912","10285","8912","7773","8631","7773","7080","7610","7080","5883","6082","5883","DualSpot on"
"MA200-0416","60629","125","1","1.10","1.6","2023-08-27T07:25:00","120","2023/08/27","07:25:00","-15.78720086812973","35.03524166345596","0.1","10","300","64","98","-812","24400","-288","13","150","149.84","119.73","30.10","26.49","42.4","12.67","89724","26.69","DUALSPOT-UV-BLUE-GREEN-RED-IR","707995","674080","904385","4.520889","1.503076","0.074215","707617","856178","766085","2.951473","0.893712","0.000000","803674","864446","815918","2.346085","0.684106","0.000000","802015","887483","862535","1.793255","0.502127","0.000000","691913","825574","951634","1.096248","0.295354","0.000000","10770","14400","16208","9414","11452","9414","8540","10007","8540","7987","8923","7987","6941","7463","6941","DualSpot on"
"MA200-0416","60630","125","1","1.10","1.6","2023-08-27T07:30:00","120","2023/08/27","07:30:00","-15.787310540676117","35.035195492208004","0.1","9","300","64","98","-963","24264","-672","13","150","150.62","119.86","30.75","26.60","42.5","12.80","89728","26.81","DUALSPOT-UV-BLUE-GREEN-RED-IR","694949","671751","908794","6.857887","2.325723","0.052510","694097","849374","764004","4.601156","1.416236","0.054989","790764","858606","813779","3.697714","1.091826","0.053954","796698","888316","865953","2.850440","0.804257","0.000000","689668","826957","954979","1.768001","0.477046","0.000000","11451","15710","17896","10202","12595","13658","9362","11006","11695","8848","9855","8848","7829","8252","7829","DualSpot on"
"MA200-0416","60631","125","1","1.10","1.6","2023-08-27T07:35:00","120","2023/08/27","07:35:00","-15.787189066410065","35.03524316102266","0.0","9","300","64","98","-916","24352","-636","13","150","149.86","120.29","29.57","26.71","42.6","12.94","89732","26.94","DUALSPOT-UV-BLUE-GREEN-RED-IR","673492","662236","904934","9.560862","3.323640","0.045479","682758","846128","765796","6.480525","2.032274","0.050454","779912","855883","815077","5.235341","1.571095","0.052886","784125","881793","862645","4.056880","1.156818","0.051504","681613","821895","951121","2.542583","0.689908","0.000000","13198","19822","23352","11582","15444","17209","10612","13456","14676","10062","11962","12720","8995","10056","8995","DualSpot on"
"MA200-0416","60632","125","1","1.10","1.6","2023-08-27T07:40:00","120","2023/08/27","07:40:00","-15.787201344966888","35.035262659192085","0.1","9","300","64","98","-848","24356","-708","13","150","149.90","120.26","29.64","26.80","42.4","12.97","89740","26.94","DUALSPOT-UV-BLUE-GREEN-RED-IR","657747","656237","904846","11.924314","4.229942","0.038807","666944","835888","760955","8.191891","2.616232","0.044060","768361","851328","814472","6.656969","2.030611","0.046484","774560","877916","861804","5.189748","1.501941","0.048040","675637","819002","949802","3.281963","0.899173","0.051682","11543","17959","21486","10549","14605","16508","9814","12871","14212","9451","11681","12590","8589","9862","10343","DualSpot on"
"MA200-0416","60633","125","1","1.10","1.6","2023-08-27T07:45:00","120","2023/08/27","07:45:00","-15.787152171134949","35.035287491977215","0.3","10","300","64","99","-1032","24372","-700","13","150","150.03","120.38","29.65","26.89","42.5","13.08","89748","27.06","DUALSPOT-UV-BLUE-GREEN-RED-IR","644593","653044","909558","14.462513","5.232918","0.033628","658215","834689","764633","9.992346","3.243494","0.038055","759346","849812","817015","8.145610","2.520346","0.040150","764820","874068","861140","6.377618","1.864415","0.039567","672370","819682","952616","4.062782","1.118697","0.040187","12384","19868","24111","11087","15682","17891","10266","13712","15256","9900","12264","13241","9061","10342","10829","DualSpot on"
"MA200-0416","60634","125","1","1.10","1.6","2023-08-27T07:50:00","120","2023/08/27","07:50:00","-15.787100791931152","35.03527332469821","0.1","10","300","64","98","-928","24600","-564","13","150","149.63","120.09","29.54","26.96","42.4","13.08","89752","27.06","DUALSPOT-UV-BLUE-GREEN-RED-IR","627914","644106","904638","16.546028","6.069786","0.030216","649537","832029","766497","11.557112","3.800142","0.034559","746397","842594","813660","9.460911","2.962369","0.036765","757361","871864","861838","7.440118","2.197194","0.037571","667820","818217","952876","4.771755","1.322159","0.039288","10190","16641","20378","9659","13970","16082","9092","12424","13942","8876","11303","12320","8246","9622","10149","DualSpot on"
"MA200-0416","60635","125","1","1.10","1.6","2023-08-27T07:55:00","120","2023/08/27","07:55:00","-15.787353217601776","35.03521082550287","0.3","12","300","64","98","-815","24415","-796","13","150","150.49","120.78","29.71","27.01","42.1","13.02","89764","27.13","DUALSPOT-UV-BLUE-GREEN-RED-IR","611257","636547","903773","19.124420","7.150131","0.027666","635678","824140","764554","13.447357","4.496706","0.031834","733856","837180","812939","11.048759","3.513896","0.034095","752782","874234","867841","8.724529","2.614563","0.036035","661769","815777","952529","5.632076","1.580258","0.041538","12538","21359","26626","11601","17381","20285","10914","15413","17510","10668","14094","15561","9950","12136","12989","DualSpot on"
"MA200-0416","60636","125","1","1.10","1.6","2023-08-27T08:00:00","120","2023/08/27","08:00:00","-15.787337362766266","35.035295493900776","0.2","12","300","64","98","-857","24523","-534","13","150","149.96","120.42","29.54","27.00","41.7","12.89","89776","27.06","DUALSPOT-UV-BLUE-GREEN-RED-IR","591722","628277","904490","22.444592","8.535431","0.023642","620159","817434","765781","16.069626","5.468399","0.027142","721694","835435","817691","13.294436","4.301715","0.029228","734175","863239","862187","10.565889","3.219831","0.031068","653993","813232","953130","6.872295","1.956070","0.035989","16194","27540","34503","16143","24381","28631","15482","22138","25322","15341","20553","22838","14387","17769","19115","DualSpot on"
"MA200-0416","60637","125","1","1.10","1.6","2023-08-27T08:05:00","120","2023/08/27","08:05:00","-15.787170708179474","35.03529416024685","0.0","12","300","64","98","-850","24515","-769","13","150","149.63","121.31","28.32","27.09","42.1","13.10","89780","27.25","DUALSPOT-UV-BLUE-GREEN-RED-IR","572337","618489","902535","25.587558","9.898651","0.022791","603479","808197","764645","18.683880","6.473452","0.026621","703968","826772","815897","15.581360","5.133021","0.029121","718093","854998","859471","12.484865","3.873917","0.032046","643347","807271","950014","8.203342","2.370052","0.038814","15217","28271","36507","15975","26307","31785","15651","24369","28652","15870","23170","26454","15327","20419","22488","DualSpot on"
"MA200-0416","60638","125","1","1.10","1.6","2023-08-27T08:10:00","120","2023/08/27","08:10:00","-15.787087142467499","35.03530166298151","0.3","12","300","64","98","-857","24411","-650","13","150","150.62","121.67","28.95","27.28","42.4","13.39","89796","27.44","DUALSPOT-UV-BLUE-GREEN-RED-IR","560489","613284","904120","27.838852","10.911129","0.021343","593840","803439","765233","20.352524","7.131469","0.024715","693770","822164","815602","16.996690","5.652845","0.026413","711332","853520","861422","13.651320","4.268385","0.027842","637408","804391","949002","9.016102","2.615289","0.030414","10867","20542","26779","10166","16850","20456","9657","14908","17524","9618","13671","15514","9331","11834","12856","DualSpot on"
"MA200-0416","60639","125","1","1.10","1.6","2023-08-27T08:15:00","120","2023/08/27","08:15:00","-15.787119150161743","35.0353364944458","0.2","12","300","64","98","-1003","24419","-350","13","150","149.90","121.15","28.75","27.45","42.1","13.45","89804","27.63","DUALSPOT-UV-BLUE-GREEN-RED-IR","550177","609060","906850","30.020062","11.915230","0.020291","581662","794746","762028","22.019440","7.806183","0.023720","684592","818418","816295","18.425662","6.193828","0.025661","704350","851660","863062","14.836149","4.679731","0.027196","632839","803219","950111","9.856884","2.878334","0.031472","10575","20514","27056","10200","17398","21352","9792","15623","18575","9812","14355","16448","9695","12782","14055","DualSpot on"
"MA200-0416","60640","125","1","1.10","1.6","2023-08-27T08:20:00","120","2023/08/27","08:20:00","-15.787180542945862","35.035259161144495","0.0","11","300","64","99","-867","24476","-560","13","150","149.90","121.11","28.79","27.53","41.5","13.29","89808","27.63","DUALSPOT-UV-BLUE-GREEN-RED-IR","541838","605358","908972","31.773700","12.754208","0.019780","575138","791980","763646","23.357746","8.364529","0.023140","677765","815987","817538","19.575426","6.642560","0.025173","700298","852006","866326","15.791718","5.020631","0.026809","629217","802302","951043","10.532352","3.093885","0.031003","8505","17117","22892","8192","14377","17828","7882","12940","15539","7916","11880","13727","7791","10459","11569","DualSpot on"
"MA200-0416","60641","125","1","1.10","1.6","2023-08-27T08:25:00","120","2023/08/27","08:25:00","-15.78706181049347","35.03526149317622","0.1","11","300","64","98","-1012","24392","-680","13","150","149.92","121.06","28.86","27.67","41.5","13.41","89816","27.81","DUALSPOT-UV-BLUE-GREEN-RED-IR","531695","599726","908663","33.639420","13.657059","0.018855","566603","786790","763276","24.812342","8.980072","0.022108","668128","810513","816058","20.834136","7.137704","0.023869","691551","847017","864540","16.843858","5.402208","0.025784","622745","798054","948296","11.281193","3.336689","0.030002","9051","18376","24750","8907","15813","19730","8631","14245","17171","8719","13266","15413","8640","11754","13061","DualSpot on"
"MA200-0416","60642","125","1","1.10","1.6","2023-08-27T08:30:00","120","2023/08/27","08:30:00","-15.787091851234436","35.03527549281716","0.1","11","300","64","98","-855","24556","-316","13","150","150.03","121.47","28.56","27.81","41.6","13.57","89812","27.94","DUALSPOT-UV-BLUE-GREEN-RED-IR","522942","594226","906883","35.101496","14.383701","0.018623","562743","786559","766911","25.970704","9.482277","0.021977","660117","805586","814379","21.840726","7.545929","0.024065","685137","843627","863763","17.688624","5.713918","0.025832","622103","800492","953136","11.892395","3.538700","0.030797","7069","14945","20414","7069","13037","16469","6879","11868","14501","6977","10951","12847","7028","9882","11090","DualSpot on"
"MA200-0416","60643","125","1","1.10","1.6","2023-08-27T08:35:00","120","2023/08/27","08:35:00","-15.787028014659882","35.03528165817261","0.7","11","300","64","99","-988","24236","8","13","150","149.63","121.15","28.48","28.02","41.7","13.81","89812","28.19","DUALSPOT-UV-BLUE-GREEN-RED-IR","516908","591441","909224","36.521000","15.111233","0.018293","554113","779334","763722","27.102024","9.988434","0.021713","653381","801962","814066","22.826436","7.956092","0.023728","680113","841733","864559","18.517674","6.029701","0.025868","617372","797587","951650","12.499462","3.745939","0.031380","6882","15002","20733","6922","13173","16821","6755","11955","14737","6865","11122","13178","7000","10163","11517","DualSpot on"
"MA200-0416","60644","125","1","1.10","1.6","2023-08-27T08:40:00","120","2023/08/27","08:40:00","-15.787183225154877","35.03525949269533","0.1","11","300","64","98","-936","24688","-512","13","150","150.30","121.80","28.50","28.25","41.5","13.92","89812","28.44","DUALSPOT-UV-BLUE-GREEN-RED-IR","509494","586968","909017","37.950692","15.852154","0.017812","547614","775002","763374","28.232960","10.497106","0.021069","646336","797890","813230","23.808268","8.365455","0.022958","675169","839904","865400","19.344384","6.343119","0.024810","616307","799438","955834","13.106022","3.951913","0.029949","6894","15269","21277","6883","13231","16988","6692","11925","14759","6809","11033","13093","6956","10096","11451","DualSpot on"
"MA200-0416","60645","125","1","1.10","1.6","2023-08-27T08:45:00","120","2023/08/27","08:45:00","-15.787090420722961","35.035300493240356","0.2","11","300","64","98","-855","24436","-816","13","150","150.05","121.18","28.87","28.44","41.2","13.98","89816","28.63","DUALSPOT-UV-BLUE-GREEN-RED-IR","500387","581400","908379","39.671464","16.725616","0.016677","540048","769856","762682","29.527462","11.071784","0.019647","640902","796357","815440","24.915208","8.823053","0.021368","667357","834977","863319","20.263960","6.689549","0.022931","609765","794468","951982","13.771015","4.175678","0.027006","8340","17772","24647","7919","14758","18860","7583","13160","16218","7613","12040","14221","7665","10828","12204","DualSpot on"
"MA200-0416","60646","125","1","1.10","1.6","2023-08-27T08:50:00","120","2023/08/27","08:50:00","-15.78710788488388","35.035273656249046","0.2","11","300","64","99","-900","24404","-544","13","150","150.43","121.49","28.94","28.64","41.1","14.12","89816","28.81","DUALSPOT-UV-BLUE-GREEN-RED-IR","491781","576173","908187","41.388740","17.612690","0.016199","532899","765046","762400","30.829120","11.660249","0.019167","633248","791962","814742","26.034220","9.293497","0.020871","661862","832902","864243","21.198274","7.047166","0.022467","604769","791478","950589","14.448639","4.406105","0.026366","8302","18006","25194","7942","15076","19415","7646","13497","16745","7715","12399","14731","7791","11124","12586","DualSpot on"
"MA200-0416","60647","125","1","1.10","1.6","2023-08-27T08:55:00","120","2023/08/27","08:55:00","-15.78710263967514","35.03526232764125","0.1","11","300","64","99","-824","24332","-368","13","150","150.09","121.39","28.70","28.90","41.0","14.33","89828","29.06","DUALSPOT-UV-BLUE-GREEN-RED-IR","482589","569433","904999","42.931808","18.435966","0.016018","528231","763313","764959","32.042618","12.223729","0.019009","626972","788804","815185","27.088442","9.747549","0.020748","657154","831467","865761","22.087618","7.395588","0.022495","604057","793984","955849","15.113163","4.637033","0.026725","7466","16846","23906","7410","14553","18958","7210","13133","16462","7350","12178","14608","7647","11238","12828","DualSpot on"
"MA200-0416","60648","125","1","1.10","1.6","2023-08-27T09:00:00","120","2023/08/27","09:00:00","-15.787044167518616","35.03529982641339","0.0","11","300","64","98","-840","24344","-364","13","150","150.28","121.58","28.71","29.14","40.7","14.42","89832","29.31","DUALSPOT-UV-BLUE-GREEN-RED-IR","476779","565692","905109","44.157052","19.112220","0.015903","522646","759175","764436","33.041572","12.701876","0.018925","620937","785040","814456","27.966490","10.135433","0.020645","652527","829279","866086","22.839398","7.696290","0.022393","599749","791201","954383","15.678974","4.837217","0.026718","5919","13837","19879","6091","12348","16256","5995","11218","14187","6203","10509","12698","6501","9742","11188","DualSpot on"
"MA200-0416","60649","125","1","1.10","1.6","2023-08-27T09:05:00","120","2023/08/27","09:05:00","-15.787146508693695","35.03532215580344","0.1","10","300","64","98","-920","24532","-576","13","150","150.21","120.98","29.23","29.39","40.5","14.57","89844","29.56","DUALSPOT-UV-BLUE-GREEN-RED-IR","474260","565222","909342","45.157936","19.665490","0.015396","516859","754093","762427","33.897908","13.112092","0.018166","616971","783378","815464","28.732990","10.475417","0.019772","646071","824367","863214","23.496956","7.959109","0.021167","596792","789821","954481","16.188118","5.020559","0.025668","4859","11117","15945","5247","10403","13656","5259","9656","12179","5452","9020","10848","5878","8762","10058","DualSpot on"
"MA200-0416","60650","125","1","1.10","1.6","2023-08-27T09:10:00","120","2023/08/27","09:10:00","-15.787151634693146","35.0352973267436","0.2","12","300","64","98","-951","24412","-752","13","150","150.62","121.19","29.44","29.63","39.7","14.49","89852","29.81","DUALSPOT-UV-BLUE-GREEN-RED-IR","469676","561844","908274","46.012780","20.146072","0.015223","512816","750991","761991","34.618540","13.463277","0.017973","611462","779095","813366","29.371930","10.762473","0.019503","641683","821391","862019","24.044302","8.182443","0.021109","592314","785997","951280","16.604908","5.172996","0.025506","4143","9589","13831","4408","8844","11668","4377","8096","10247","4531","7612","9201","4804","7234","8334","DualSpot on"
"MA200-0416","60651","125","1","1.10","1.6","2023-08-27T09:15:00","120","2023/08/27","09:15:00","-15.786988854408264","35.03532249107957","0.0","12","300","64","98","-851","24344","-628","13","150","149.96","120.50","29.46","29.89","39.7","14.70","89856","30.06","DUALSPOT-UV-BLUE-GREEN-RED-IR","464526","557715","905766","46.835356","20.607014","0.014894","508682","747637","761106","35.319372","13.799911","0.017352","606307","775215","811519","29.997778","11.040197","0.018775","637991","819351","861731","24.582080","8.395595","0.019745","591747","787312","954320","17.021022","5.323992","0.024281","4009","9189","13258","4311","8470","11136","4312","7825","9872","4477","7258","8700","4824","7159","8222","DualSpot on"
"MA200-0416","60652","125","1","1.10","1.6","2023-08-27T09:20:00","120","2023/08/27","09:20:00","-15.787031471729279","35.035294998437166","0.3","12","300","64","98","-871","24448","-684","13","150","150.25","120.65","29.59","30.17","39.4","14.85","89868","30.38","DUALSPOT-UV-BLUE-GREEN-RED-IR","464152","558936","911384","47.536644","21.006512","0.014794","508353","749487","765290","35.930012","14.099748","0.017325","604823","775645","814014","30.544172","11.286090","0.018652","638232","821942","866043","25.052050","8.587041","0.020012","590731","787802","956179","17.387908","5.458084","0.023963","3413","7928","11503","3751","7510","9938","3759","6898","8737","3907","6490","7837","4247","6329","7282","DualSpot on"
"MA200-0416","60653","125","1","1.10","1.6","2023-08-27T09:25:00","120","2023/08/27","09:25:00","-15.787040650844574","35.03527482226491","0.2","12","300","64","90","-892","24596","-368","13","150","149.90","119.81","30.09","30.15","39.2","14.72","89840","29.38","DUALSPOT-UV-BLUE-GREEN-RED-IR","459665","555204","908788","48.218720","21.390770","0.014328","503796","744994","762909","36.521912","14.389963","0.016735","603797","776581","816933","31.070376","11.524474","0.018057","633755","818328","863883","25.501586","8.770851","0.019182","587089","784675","953641","17.735424","5.588732","0.023714","3343","7501","10816","3662","7150","9419","3646","6578","8306","3764","6129","7369","4051","6066","6992","DualSpot on"
"MA200-0416","60654","125","1","1.10","1.6","2023-08-27T09:30:00","120","2023/08/27","09:30:00","-15.787091851234436","35.03528432920575","0.1","12","300","64","89","-948","24548","-192","13","150","150.16","120.05","30.11","30.02","39.1","14.57","89840","29.06","DUALSPOT-UV-BLUE-GREEN-RED-IR","456879","553442","909622","48.919380","21.795814","0.014347","500490","742300","762510","37.124216","14.696770","0.016986","600461","774441","816815","31.611898","11.784723","0.018780","629057","814380","861447","25.966994","8.975766","0.020639","584907","783437","953389","18.086830","5.723324","0.024076","3427","7901","11497","3719","7554","10067","3744","7176","9216","3889","6828","8381","4089","6244","7242","DualSpot on"
"MA200-0416","60655","125","1","1.10","1.6","2023-08-27T09:35:00","120","2023/08/27","09:35:00","-15.787041306495667","35.035316824913025","0.1","12","300","64","88","-832","24472","-388","13","150","149.99","120.37","29.62","29.95","39.2","14.58","89840","29.00","DUALSPOT-UV-BLUE-GREEN-RED-IR","452131","549395","906671","49.638848","22.209110","0.014246","499091","742541","765173","37.747372","15.012208","0.016877","596324","771350","815714","32.166466","12.049661","0.018680","629007","816473","865522","26.444604","9.188393","0.020934","581861","781020","951753","18.433716","5.859447","0.025268","3510","8196","11989","3837","7895","10574","3825","7426","9583","3980","7202","8917","4025","6420","7536","DualSpot on"
"MA200-0416","60656","125","1","1.10","1.6","2023-08-27T09:40:00","120","2023/08/27","09:40:00","-15.78714519739151","35.035267658531666","0.4","12","300","64","87","-816","24380","-431","13","150","150.01","120.33","29.67","29.92","39.2","14.53","89844","29.06","DUALSPOT-UV-BLUE-GREEN-RED-IR","449075","547351","907114","50.359404","22.627166","0.014112","496169","740392","765382","38.363132","15.327795","0.016743","593389","769742","816116","32.713650","12.311826","0.018399","622649","810339","860805","26.913636","9.396952","0.020524","580867","781276","953350","18.776256","5.994200","0.024845","3517","8274","12156","3793","7884","10606","3775","7334","9483","3910","7051","8736","3976","6343","7453","DualSpot on"
"MA200-0416","60657","125","1","1.10","1.6","2023-08-27T09:45:00","120","2023/08/27","09:45:00","-15.78708416223526","35.03528916090727","0.1","11","300","64","86","-867","24460","-724","13","150","149.70","120.22","29.48","30.00","39.3","14.66","89848","29.19","DUALSPOT-UV-BLUE-GREEN-RED-IR","443916","542718","903331","51.109932","23.062976","0.013963","492047","736518","763806","38.996472","15.652539","0.016557","588603","765753","814072","33.275940","12.582056","0.018235","622599","812444","864868","27.395260","9.609220","0.020117","576984","777726","950342","19.132214","6.133127","0.024324","3666","8682","12806","3905","8165","11022","3883","7609","9875","4019","7223","8954","4136","6582","7736","DualSpot on"
"MA200-0416","60658","125","1","1.10","1.6","2023-08-27T09:50:00","120","2023/08/27","09:50:00","-15.787124991416931","35.035271156579256","0.1","11","300","64","85","-808","24436","-456","13","150","149.92","120.17","29.75","30.08","39.0","14.61","89848","29.25","DUALSPOT-UV-BLUE-GREEN-RED-IR","442501","542543","906652","51.791924","23.464276","0.013819","490893","736831","766415","39.573316","15.949325","0.016265","586530","765077","815388","33.790488","12.829270","0.017835","621138","812564","866653","27.837826","9.803019","0.019496","576007","778002","951901","19.462200","6.261451","0.023483","3333","7923","11725","3558","7395","9986","3554","6899","8946","3694","6535","8080","3835","6025","7064","DualSpot on"
"MA200-0416","60659","125","1","1.10","1.6","2023-08-27T09:55:00","120","2023/08/27","09:55:00","-15.78705883026123","35.03532665967941","0.4","11","300","64","85","-880","24380","-588","13","150","149.67","119.69","29.98","30.12","38.9","14.61","0","0.00","DUALSPOT-UV-BLUE-GREEN-RED-IR","438985","540090","906979","52.625648","23.947574","0.013432","487729","734513","766686","40.252424","16.298729","0.015877","583088","762961","815503","34.387336","13.116102","0.017377","614362","805947","861572","28.343300","10.027966","0.019256","573774","776710","951714","19.831108","6.407072","0.023176","4091","9467","13956","4206","8638","11654","4140","7942","10286","4237","7526","9328","4305","6784","7967","DualSpot on"
"MA200-0416","60660","125","1","1.10","1.6","2023-08-27T10:00:00","120","2023/08/27","10:00:00","-15.787204384803772","35.03523599356413","0.2","11","300","64","84","-828","24496","-840","13","150","150.56","120.42","30.14","30.17","38.8","14.58","0","0.00","DUALSPOT-UV-BLUE-GREEN-RED-IR","435259","537574","907766","53.566544","24.505784","0.013374","481314","727427","762207","40.992076","16.683123","0.015729","576564","756960","811576","35.033080","13.428769","0.017197","606755","798388","855564","28.890670","10.271453","0.018923","571710","775814","952129","20.233314","6.563602","0.022288","4589","10878","16181","4553","9454","12818","4452","8612","11199","4560","8105","10060","4665","7255","8498","DualSpot on"
"MA200-0416","60661","125","1","1.10","1.6","2023-08-27T10:05:00","120","2023/08/27","10:05:00","-15.787116885185242","35.03527148813009","0.1","11","300","64","84","-896","24400","-711","13","150","149.47","119.87","29.60","30.21","38.6","14.57","0","0.00","DUALSPOT-UV-BLUE-GREEN-RED-IR","433158","536582","910301","54.323660","24.964702","0.013421","479286","726480","763785","41.618420","17.018270","0.015949","577129","759813","816951","35.589176","13.706164","0.017530","609942","804664","864203","29.364922","10.489443","0.019501","570536","775843","953500","20.582448","6.705257","0.023717","3709","9105","13694","3873","8393","11519","3851","7779","10240","3969","7388","9288","4068","6684","7948","DualSpot on"
"MA200-0416","60662","125","1","1.10","1.6","2023-08-27T10:10:00","120","2023/08/27","10:10:00","-15.787077128887177","35.035305660218","0.1","10","300","64","83","-760","24448","-236","13","150","150.16","119.77","30.39","30.33","38.8","14.75","0","0.00","DUALSPOT-UV-BLUE-GREEN-RED-IR","427092","531119","906289","55.296484","25.549878","0.012987","477769","726809","767211","42.380692","17.417726","0.015194","571854","755394","814830","36.252112","14.030405","0.016608","605104","800744","862091","29.922516","10.737895","0.018083","568907","775541","954696","20.994400","6.870310","0.022031","4770","11309","16925","4718","9743","13250","4595","8857","11548","4670","8201","10178","4804","7586","8939","DualSpot on"
"MA200-0416","60663","125","1","1.10","1.6","2023-08-27T10:15:00","120","2023/08/27","10:15:00","-15.787182807922363","35.03523849323392","0.1","10","300","64","83","-816","24440","-188","13","150","149.45","119.37","30.07","30.39","38.4","14.64","89844","29.56","DUALSPOT-UV-BLUE-GREEN-RED-IR","425020","529981","908337","56.011328","25.991912","0.013046","472766","721141","763673","42.978648","17.742940","0.015442","569679","754501","816078","36.784660","14.302591","0.017053","603896","801068","864284","30.375606","10.949997","0.018863","564528","771083","950517","21.332280","7.009458","0.022779","3517","8633","13062","3713","8016","11041","3703","7513","9937","3808","7075","8917","3954","6463","7691","DualSpot on"
"MA200-0416","60664","125","1","1.10","1.6","2023-08-27T10:20:00","120","2023/08/27","10:20:00","-15.78719848394394","35.035243824124336","0.1","11","300","64","83","-863","24416","-556","13","150","149.56","119.82","29.74","30.54","38.5","14.82","89844","29.81","DUALSPOT-UV-BLUE-GREEN-RED-IR","421621","527156","907395","56.712296","26.421722","0.012934","466827","714005","758502","43.569964","18.062618","0.015332","565924","751487","814962","37.307108","14.565953","0.016844","600903","799072","863906","30.825546","11.158349","0.018675","565723","774238","955738","21.667462","7.148346","0.023063","3436","8488","12895","3658","7968","11020","3620","7351","9742","3767","7028","8878","3907","6523","7811","DualSpot on"
"MA200-0416","60665","125","1","1.10","1.6","2023-08-27T10:25:00","120","2023/08/27","10:25:00","-15.787157416343689","35.0352684892714","0.2","12","300","64","82","-820","24364","-376","13","150","149.83","119.53","30.30","30.72","38.1","14.80","89836","29.94","DUALSPOT-UV-BLUE-GREEN-RED-IR","417227","523034","904028","57.385948","26.835946","0.012688","468802","718896","766112","44.139008","18.372092","0.015007","561573","747544","812734","37.813428","14.822068","0.016418","596915","795561","861876","31.259560","11.359179","0.018061","561770","770323","952218","21.997658","7.283848","0.021847","3310","8029","12175","3529","7571","10454","3516","7017","9274","3642","6649","8366","3859","6247","7429","DualSpot on"
"MA200-0416","60666","125","1","1.10","1.6","2023-08-27T10:30:00","120","2023/08/27","10:30:00","-15.787119686603546","35.03524749353528","0.2","12","300","64","82","-904","24268","-724","13","150","149.57","119.05","30.51","30.81","38.0","14.86","89832","30.06","DUALSPOT-UV-BLUE-GREEN-RED-IR","417291","524376","910033","58.028000","27.238452","0.012607","466062","716469","765868","44.691616","18.676840","0.014863","560474","747865","815134","38.305684","15.074501","0.016256","597142","797654","865843","31.681896","11.557037","0.017861","561529","771439","954853","22.318444","7.418642","0.021922","3167","7748","11800","3441","7404","10249","3432","6868","9098","3559","6505","8197","3764","6171","7369","DualSpot on"
"MA200-0416","60667","125","1","1.10","1.6","2023-08-27T10:35:00","120","2023/08/27","10:35:00","-15.787119150161743","35.035294998437166","0.2","12","300","68","82","-748","24496","-752","14","150","150.15","119.35","30.79","31.01","38.0","15.03","0","0.00","DUALSPOT-UV-BLUE-GREEN-RED-IR","774378","697153","909348","0.000000","0.000000","0.000000","742190","871123","766800","0.000000","0.000000","0.000000","832094","875205","815554","0.000000","0.000000","0.000000","822089","895390","861238","0.000000","0.000000","0.000000","704081","829392","954830","0.000000","0.000000","0.000000","","","","","","","","","","","","","","","","Tape advance-DualSpot on"
"MA200-0416","60668","125","1","1.10","1.6","2023-08-27T10:40:00","120","2023/08/27","10:40:00","-15.787174046039581","35.03524799272418","0.2","12","300","68","81","-955","24372","-239","14","150","150.05","119.06","30.99","31.18","37.8","15.10","0","0.00","DUALSPOT-UV-BLUE-GREEN-RED-IR","757225","690976","907487","0.000000","0.000000","0.000000","732118","866931","766371","0.000000","0.000000","0.000000","822154","870884","814180","0.000000","0.000000","0.000000","820844","898926","866705","0.000000","0.000000","0.000000","699015","826254","952673","0.000000","0.000000","0.000000","","","","","","","","","","","","","","","","Tape advance-DualSpot on"
"MA200-0416","60669","125","1","1.10","1.6","2023-08-27T10:45:00","120","2023/08/27","10:45:00","-15.787105143070221","35.0352973267436","0.3","13","300","64","80","-848","24624","-176","14","150","149.66","118.67","30.99","31.37","37.6","15.17","0","0.00","DUALSPOT-UV-BLUE-GREEN-RED-IR","738195","683354","904575","2.232780","0.786891","0.000000","721101","861971","765540","1.417488","0.470959","0.000000","811185","865842","812397","1.123032","0.359976","0.000000","812545","895109","865300","0.854786","0.262373","0.000000","697095","827128","955217","0.541593","0.163106","0.000000","11051","14913","11051","8855","11265","8855","7856","9643","7856","7226","8493","7226","6375","7352","6375","DualSpot on"
"MA200-0416","60670","125","1","1.10","1.6","2023-08-27T10:50:00","120","2023/08/27","10:50:00","-15.787200033664703","35.035238329321146","0.1","13","300","64","80","-916","24440","-236","14","150","149.61","118.30","31.30","31.56","37.3","15.21","0","0.00","DUALSPOT-UV-BLUE-GREEN-RED-IR","723710","677541","902814","4.029634","1.450286","0.094729","711722","857569","764824","2.633406","0.889677","0.000000","806591","866613","815748","2.105018","0.684833","0.000000","805767","892262","864591","1.611784","0.499659","0.000000","691912","823717","952709","1.032913","0.315784","0.000000","8921","12446","14429","7619","9915","7619","6891","8615","6891","6419","7604","6419","5801","6813","5801","DualSpot on"
"MA200-0416","60671","125","1","1.10","1.6","2023-08-27T10:55:00","120","2023/08/27","10:55:00","-15.78722196817398","35.035226326435804","0.1","13","300","64","80","-756","24628","-64","14","150","149.92","118.72","31.20","31.60","36.3","14.82","0","0.00","DUALSPOT-UV-BLUE-GREEN-RED-IR","718541","678731","909458","5.477747","2.006761","0.076987","702890","852635","763325","3.687777","1.270776","0.098725","799423","863800","815591","2.976931","0.990492","0.000000","798848","888639","863059","2.298019","0.730019","0.000000","687688","821229","951162","1.480266","0.458141","0.000000","7164","10475","12389","6583","9054","10353","6097","8132","6097","5799","7406","5799","5263","6373","5263","DualSpot on"
"MA200-0416","60672","125","1","1.10","1.6","2023-08-27T11:00:00","120","2023/08/27","11:00:00","-15.787178218364716","35.03525249287486","0.2","13","300","64","79","-756","24528","-564","14","150","147.77","117.50","30.27","31.63","36.3","14.86","0","0.00","DUALSPOT-UV-BLUE-GREEN-RED-IR","701677","668691","901205","6.940618","2.585998","0.066454","696069","850092","764093","4.765239","1.669531","0.084358","791728","860395","814966","3.868966","1.309263","0.095430","793407","886710","863252","3.002975","0.971138","0.108676","684561","819951","951160","1.936611","0.611060","0.000000","7312","11240","13572","6797","9766","11367","6302","8743","9992","6019","7992","8935","5425","7057","5425","DualSpot on"
"MA200-0416","60673","125","1","1.10","1.6","2023-08-27T11:05:00","120","2023/08/27","11:05:00","-15.787167429924011","35.03523499518633","0.1","13","300","64","79","-908","24368","-488","14","150","149.57","118.26","31.31","31.76","36.2","14.95","89792","31.00","DUALSPOT-UV-BLUE-GREEN-RED-IR","693197","666052","902693","8.323095","3.150907","0.056053","690406","848549","765653","5.784433","2.055251","0.069125","785637","858409","815607","4.718607","1.617288","0.076252","789408","886117","864718","3.677404","1.204687","0.085434","681501","818747","951157","2.381599","0.758922","0.000000","6866","10598","12871","6389","9133","10645","5964","8168","9317","5721","7484","8342","5256","6597","5256","DualSpot on"
"MA200-0416","60674","125","1","1.10","1.6","2023-08-27T11:10:00","120","2023/08/27","11:10:00","-15.787207782268524","35.035271156579256","0.4","13","300","64","79","-828","24520","-444","14","150","150.11","118.38","31.73","31.92","36.3","15.13","89784","31.19","DUALSPOT-UV-BLUE-GREEN-RED-IR","688470","666875","909113","9.716112","3.732034","0.048837","683059","844879","765347","6.815031","2.450567","0.059013","776875","853465","813467","5.580433","1.933878","0.064815","781867","881578","862314","4.361106","1.441180","0.069348","680417","819926","954015","2.839943","0.912790","0.000000","6911","10755","13153","6454","9234","10795","6044","8282","9469","5794","7476","8306","5408","6773","5408","DualSpot on"
"MA200-0416","60675","125","1","1.10","1.6","2023-08-27T11:15:00","120","2023/08/27","11:15:00","-15.7870654463768","35.03524999693036","0.1","13","300","64","78","-864","24437","-805","14","150","149.32","118.12","31.20","32.09","36.0","15.12","89780","31.31","DUALSPOT-UV-BLUE-GREEN-RED-IR","675081","659075","903723","11.081457","4.314152","0.045248","673696","838443","762558","7.828148","2.846980","0.055018","771444","852042","814677","6.428213","2.249515","0.060127","780176","883576","866299","5.036329","1.677733","0.065241","678732","820358","955953","3.292717","1.064029","0.085361","6789","10958","13617","6358","9419","11168","5958","8399","9713","5735","7606","8541","5354","6771","7448","DualSpot on"
"MA200-0416","60676","125","1","1.10","1.6","2023-08-27T11:20:00","120","2023/08/27","11:20:00","-15.7871715426445","35.03528416156769","0.0","13","300","64","77","-792","24460","-416","14","150","149.83","117.90","31.93","32.12","35.2","14.80","0","0.00","DUALSPOT-UV-BLUE-GREEN-RED-IR","668346","657923","908048","12.562410","4.964073","0.040307","667699","836370","764064","8.919587","3.291177","0.049715","762824","847190","812912","7.338048","2.604138","0.055197","770835","876943","862124","5.760327","1.945900","0.061976","673184","816205","952700","3.770862","1.230427","0.078832","7377","11955","14945","6862","10313","12330","6406","9220","10768","6160","8426","9581","5665","7279","8061","DualSpot on"
"MA200-0416","60677","125","1","1.10","1.6","2023-08-27T11:25:00","120","2023/08/27","11:25:00","-15.787168681621552","35.03523198887706","0.1","13","300","64","77","-812","24336","-256","14","150","149.90","118.38","31.52","32.10","35.0","14.73","0","0.00","DUALSPOT-UV-BLUE-GREEN-RED-IR","656032","650831","904011","13.983845","5.606140","0.038443","659458","831170","762640","9.976235","3.730857","0.047453","757980","846288","814946","8.224848","2.959388","0.053587","768679","878365","865869","6.469155","2.217364","0.061848","672131","817308","955583","4.232448","1.397258","0.082205","7052","11964","15251","6617","10341","12565","6219","9357","11121","6007","8640","10014","5447","7394","8353","DualSpot on"
"MA200-0416","60678","125","1","1.10","1.6","2023-08-27T11:30:00","120","2023/08/27","11:30:00","-15.787231802940369","35.03523349389434","0.3","12","300","64","76","-932","24260","-268","14","150","150.01","118.03","31.98","32.22","35.1","14.87","0","0.00","DUALSPOT-UV-BLUE-GREEN-RED-IR","649595","649143","907327","15.333443","6.232078","0.035561","654258","829426","764337","10.994849","4.162752","0.043310","748679","840218","811919","9.086112","3.308535","0.048239","759403","871459","861302","7.161733","2.481615","0.053685","666199","812534","951600","4.700001","1.564923","0.069487","6716","11496","14769","6397","10012","12214","6058","9064","10785","5887","8290","9564","5533","7324","8217","DualSpot on"
"MA200-0416","60679","125","1","1.10","1.6","2023-08-27T11:35:00","120","2023/08/27","11:35:00","-15.787201046943665","35.0352664925158","0.1","12","300","64","76","-780","24384","-332","14","150","149.90","118.02","31.88","32.39","35.2","15.04","0","0.00","DUALSPOT-UV-BLUE-GREEN-RED-IR","641571","645636","908045","16.657181","6.852287","0.033329","649182","827796","766145","12.001720","4.592955","0.040430","746112","841573","816044","9.937414","3.653157","0.044371","754862","869889","862050","7.847966","2.743291","0.049396","662827","810811","951184","5.164940","1.732677","0.064998","6588","11427","14810","6324","10004","12286","5988","8975","10711","5833","8235","9526","5503","7351","8284","DualSpot on"
"MA200-0416","60680","125","1","1.10","1.6","2023-08-27T11:40:00","120","2023/08/27","11:40:00","-15.787187993526459","35.035254657268524","0.0","12","300","64","74","-1140","24168","867","14","150","149.85","117.94","31.92","32.63","35.2","15.25","89764","32.00","DUALSPOT-UV-BLUE-GREEN-RED-IR","635737","643861","910907","17.886718","7.443535","0.031921","641289","822051","763894","12.935324","4.998260","0.038358","740646","839336","816503","10.729067","3.976369","0.041662","751279","869250","863503","8.489651","2.985483","0.044577","659753","809425","951079","5.613872","1.894491","0.059461","6123","10881","14272","5868","9414","11647","5572","8407","10077","5458","7613","8782","5317","7082","7981","DualSpot on"
"MA200-0416","60681","125","1","1.10","1.6","2023-08-27T11:45:00","120","2023/08/27","11:45:00","-15.78718388080597","35.035255659371614","0.2","12","300","64","74","-888","24428","-508","14","150","149.70","118.34","31.36","32.77","34.1","14.90","89764","32.06","DUALSPOT-UV-BLUE-GREEN-RED-IR","626521","638865","909837","19.226388","8.101482","0.030994","634254","817650","763279","13.960577","5.453872","0.037696","733766","835776","816046","11.603903","4.344523","0.041753","744961","865678","862338","9.198581","3.261733","0.045831","658751","810673","954247","6.100746","2.072044","0.059479","6649","12322","16454","6422","10770","13557","6137","9746","11906","6010","8837","10391","5747","7909","9020","DualSpot on"
"MA200-0416","60682","125","1","1.10","1.6","2023-08-27T11:50:00","120","2023/08/27","11:50:00","-15.787153601646423","35.03522082045674","0.3","12","300","64","73","-912","24125","-66","14","150","149.39","118.14","31.25","32.85","34.0","14.92","89756","32.13","DUALSPOT-UV-BLUE-GREEN-RED-IR","615302","631695","905736","20.577000","8.776276","0.029540","629601","816416","765855","15.025164","5.939465","0.036277","725058","830156","813765","12.518748","4.739791","0.040326","742902","867174","866483","9.949018","3.567320","0.045921","653871","807269","952114","6.621021","2.270717","0.060882","6714","12684","17123","6680","11520","14684","6429","10502","12983","6373","9811","11733","6152","8881","10306","DualSpot on"
"MA200-0416","60683","125","1","1.10","1.6","2023-08-27T11:55:00","120","2023/08/27","11:55:00","-15.787202537059784","35.0352689884603","0.1","12","300","64","73","-862","24370","-520","14","150","149.80","118.15","31.65","32.77","33.1","14.44","89752","31.94","DUALSPOT-UV-BLUE-GREEN-RED-IR","607579","628129","907065","21.991912","9.492237","0.027739","622118","811673","765462","16.175705","6.473100","0.033969","718784","827555","814867","13.522531","5.185366","0.038156","731445","857937","860286","10.791225","3.920870","0.043662","651002","806672","953565","7.216926","2.499784","0.055376","7034","13288","18037","7219","12500","16023","7053","11689","14572","7151","11208","13523","7045","10111","11736","DualSpot on"
"MA200-0416","60684","125","1","1.10","1.6","2023-08-27T12:00:00","120","2023/08/27","12:00:00","-15.78719049692154","35.03523866087198","0.2","13","300","64","72","-832","24316","-132","14","150","149.59","118.54","31.05","32.79","33.3","14.53","89744","32.00","DUALSPOT-UV-BLUE-GREEN-RED-IR","597691","621310","902820","23.169288","10.114487","0.027782","615406","806874","764397","17.121314","6.925630","0.033960","710691","821918","812326","14.344817","5.560172","0.038153","729243","858673","863516","11.470785","4.214049","0.044087","645929","802656","950642","7.687256","2.687324","0.057948","5833","11771","16372","5913","10805","14128","5758","10022","12721","5751","9473","11635","5542","8438","9994","DualSpot on"
"MA200-0416","60685","125","1","1.10","1.6","2023-08-27T12:05:00","120","2023/08/27","12:05:00","-15.787142157554626","35.0352674908936","0.1","13","300","64","72","-892","24312","-416","14","150","149.70","119.97","29.73","32.77","32.5","14.16","89748","32.00","DUALSPOT-UV-BLUE-GREEN-RED-IR","594080","620810","907544","24.292462","10.716843","0.027816","610977","804775","765767","18.025534","7.367926","0.034524","707461","821602","815020","15.131306","5.926264","0.039051","722353","853720","860969","12.124197","4.499204","0.045168","645257","803980","953931","8.141056","2.868724","0.059747","5498","11902","16957","5587","11030","14793","5442","10224","13303","5464","9624","12079","5284","8524","10288","DualSpot on"
"MA200-0416","60686","125","1","1.10","1.6","2023-08-27T12:10:00","120","2023/08/27","12:10:00","-15.787174046039581","35.03525032475591","0.3","12","300","64","71","-880","24560","-672","14","150","150.16","119.93","30.23","32.78","32.8","14.32","89732","32.06","DUALSPOT-UV-BLUE-GREEN-RED-IR","586042","615348","904777","25.351226","11.294277","0.026717","605534","801072","765495","18.881706","7.788902","0.032734","704671","821658","817929","15.881466","6.277275","0.036906","721686","855920","865591","12.749382","4.774326","0.042660","640729","800351","951336","8.572075","3.046301","0.057869","5185","11219","16068","5292","10323","13856","5193","9640","12547","5229","9131","11466","5020","8206","9962","DualSpot on"
"MA200-0416","60687","125","1","1.10","1.6","2023-08-27T12:15:00","120","2023/08/27","12:15:00","-15.787153482437134","35.03531466051936","0.1","12","300","64","71","-800","24460","-632","14","150","150.09","119.65","30.44","32.89","32.4","14.23","89728","32.19","DUALSPOT-UV-BLUE-GREEN-RED-IR","578146","610143","902657","26.477902","11.912483","0.025593","598936","796044","764196","19.812644","8.253574","0.031414","697844","817215","816631","16.701578","6.663299","0.035071","716282","852774","865021","13.442799","5.079718","0.040184","636551","797567","949916","9.077686","3.249012","0.052075","5530","11926","17157","5767","11314","15275","5690","10526","13737","5814","10063","12644","5903","9301","11195","DualSpot on"
"MA200-0416","60688","125","1","1.10","1.6","2023-08-27T12:20:00","120","2023/08/27","12:20:00","-15.787261545658112","35.03515116125345","0.2","12","300","64","70","-816","24352","-302","14","150","150.03","119.33","30.70","32.82","32.1","14.01","89716","32.00","DUALSPOT-UV-BLUE-GREEN-RED-IR","572578","606876","902781","27.459546","12.462105","0.024872","594202","792876","764259","20.613336","8.661222","0.030469","692808","814288","816454","17.404722","7.001013","0.034010","710734","848911","863451","14.032866","5.347773","0.039414","637819","801089","955760","9.491711","3.420198","0.051311","4831","10516","15240","4974","9844","13374","4892","9133","11988","4960","8760","11100","4846","7790","9448","DualSpot on"
"MA200-0416","60689","125","1","1.10","1.6","2023-08-27T12:25:00","120","2023/08/27","12:25:00","-15.787088453769684","35.03532499447465","0.8","12","300","64","69","-955","24488","-728","14","150","150.16","119.69","30.47","32.67","31.7","13.65","0","0.00","DUALSPOT-UV-BLUE-GREEN-RED-IR","570737","607382","908536","28.413128","13.009651","0.024581","587455","786782","761442","21.389226","9.066886","0.030226","687808","811184","816119","18.084032","7.340341","0.034187","705380","845055","861791","14.600349","5.614166","0.039606","630366","793540","948283","9.885876","3.585180","0.050843","4679","10554","15516","4805","9869","13595","4712","9245","12342","4756","8771","11279","4600","7563","9249","DualSpot on"
"MA200-0416","60690","125","1","1.10","1.6","2023-08-27T12:30:00","120","2023/08/27","12:30:00","-15.787246346473694","35.03522748872638","0.2","12","300","64","68","-840","24444","-684","14","150","149.44","119.14","30.30","32.57","31.9","13.70","0","0.00","DUALSPOT-UV-BLUE-GREEN-RED-IR","564373","602883","906568","29.321732","13.538502","0.024054","585792","787333","765005","22.133948","9.457434","0.029349","682289","807281","814861","18.740054","7.668658","0.033132","700253","841358","860286","15.151989","5.874884","0.038517","632000","797347","954424","10.264484","3.747858","0.050713","4479","10250","15201","4634","9554","13225","4571","8995","12059","4645","8632","11156","4439","7499","9259","DualSpot on"
"MA200-0416","60691","125","1","1.10","1.6","2023-08-27T12:35:00","120","2023/08/27","12:35:00","-15.787151634693146","35.03520582616329","0.1","12","300","64","68","-1196","23996","483","14","150","149.40","119.56","29.84","32.66","32.3","13.98","89704","31.94","DUALSPOT-UV-BLUE-GREEN-RED-IR","557911","598300","904406","30.234860","14.067333","0.023543","581070","783730","764447","22.875878","9.845513","0.028765","677525","804314","814447","19.390708","7.987375","0.032017","701501","845389","866583","15.701376","6.126678","0.036838","628293","794525","952579","10.658661","3.909982","0.047461","4485","10410","15566","4600","9642","13452","4518","8868","11916","4610","8467","10934","4605","7590","9320","DualSpot on"
"MA200-0416","60692","125","1","1.10","1.6","2023-08-27T12:40:00","120","2023/08/27","12:40:00","-15.787120163440704","35.035265155136585","0.2","12","300","64","68","-1196","24732","-1120","14","150","150.55","119.02","31.53","32.58","31.9","13.69","0","0.00","DUALSPOT-UV-BLUE-GREEN-RED-IR","555375","597732","908341","31.118962","14.590611","0.022467","578165","782452","766187","23.600116","10.233129","0.027247","674231","802933","815677","20.027174","8.309581","0.030405","693813","838478","861672","16.237453","6.380517","0.034776","626970","794546","954151","11.035625","4.070837","0.044565","4362","9747","14501","4510","9113","12636","4439","8483","11352","4518","8076","10380","4424","7126","8705","DualSpot on"
"MA200-0416","60693","125","1","1.10","1.6","2023-08-27T12:45:00","120","2023/08/27","12:45:00","-15.787131309509277","35.035271156579256","0.1","12","300","64","67","-688","24688","-1964","14","150","149.70","119.21","30.49","32.60","32.5","14.00","0","0.00","DUALSPOT-UV-BLUE-GREEN-RED-IR","550416","594594","908405","32.028302","15.127678","0.022255","571045","775552","762489","24.355290","10.632175","0.026864","669518","800008","815424","20.694266","8.642183","0.029954","690024","836448","861865","16.805920","6.646055","0.034368","624341","793050","953992","11.443146","4.245058","0.045130","4480","10347","15599","4696","9703","13583","4645","9057","12221","4784","8738","11325","4775","7983","9875","DualSpot on"
"MA200-0416","60694","125","1","1.10","1.6","2023-08-27T12:50:00","120","2023/08/27","12:50:00","-15.787171363830566","35.03519132360816","0.1","11","300","64","67","-1200","24319","-1769","14","150","149.80","119.21","30.60","32.69","31.7","13.70","89680","31.88","DUALSPOT-UV-BLUE-GREEN-RED-IR","544953","590836","907708","32.947074","15.685184","0.021929","569108","775624","765725","25.112926","11.048245","0.026699","664829","796970","815174","21.367886","8.990965","0.029820","685420","833333","861032","17.377358","6.920048","0.033986","621117","790862","953112","11.868599","4.427370","0.043511","4527","10702","16313","4711","10081","14299","4691","9464","12931","4809","8984","11747","4985","8323","10310","DualSpot on"
"MA200-0416","60695","125","1","1.10","1.6","2023-08-27T12:55:00","120","2023/08/27","12:55:00","-15.787220180034637","35.03521949052811","0.6","11","300","64","66","-859","24560","-876","14","150","150.09","118.89","31.20","32.53","31.6","13.49","89680","31.69","DUALSPOT-UV-BLUE-GREEN-RED-IR","538658","586024","905164","33.826308","16.222492","0.021243","563674","770712","763947","25.844642","11.451638","0.025694","659777","793373","814244","22.017844","9.330849","0.028737","685154","835334","865465","17.929938","7.192322","0.033151","618228","788859","952369","12.256607","4.601137","0.043306","4343","10115","15433","4562","9584","13580","4538","9044","12357","4662","8755","11496","4558","7780","9716","DualSpot on"
"MA200-0416","60696","125","1","1.10","1.6","2023-08-27T13:00:00","120","2023/08/27","13:00:00","-15.787120521068573","35.0352689884603","0.2","11","300","64","65","-866","24288","-55","14","150","149.61","118.64","30.96","32.20","31.0","12.92","89684","31.19","DUALSPOT-UV-BLUE-GREEN-RED-IR","532807","581704","903617","34.749956","16.792682","0.020877","560909","769536","766114","26.622596","11.889744","0.025415","654908","790047","813840","22.707782","9.701493","0.028575","680932","832603","865238","18.522252","7.494077","0.033217","615942","787755","952785","12.672356","4.787239","0.042200","4572","10816","16655","4860","10489","15031","4827","9938","13750","5008","9777","13018","4895","8396","10522","DualSpot on"
"MA200-0416","60697","125","1","1.10","1.6","2023-08-27T13:05:00","120","2023/08/27","13:05:00","-15.787214457988739","35.035251159220934","0.0","11","300","64","65","-844","24388","-404","14","150","150.03","119.17","30.86","32.04","32.0","13.30","0","0.00","DUALSPOT-UV-BLUE-GREEN-RED-IR","530439","580903","907187","35.591940","17.324162","0.020705","555244","764115","763763","27.329296","12.289388","0.024981","652724","789715","816260","23.338866","10.041512","0.028058","674093","826422","861147","19.059622","7.767698","0.032529","612486","784938","951044","13.051205","4.963150","0.043018","4149","10116","15775","4396","9601","13855","4396","9148","12737","4523","8896","11904","4440","7964","10126","DualSpot on"
"MA200-0416","60698","125","1","1.10","1.6","2023-08-27T13:10:00","120","2023/08/27","13:10:00","-15.78715443611145","35.03525299206376","0.1","12","300","64","64","-924","24488","-372","14","150","150.25","118.23","32.02","32.22","32.3","13.59","0","0.00","DUALSPOT-UV-BLUE-GREEN-RED-IR","526612","578452","908090","36.412792","17.843716","0.019881","552468","762550","765210","28.020394","12.681395","0.023790","648834","787282","816426","23.953524","10.365967","0.026132","671000","824834","861718","19.586388","8.025243","0.029463","610581","784206","951789","13.439503","5.134996","0.037689","4077","9531","14771","4333","9076","12997","4316","8413","11538","4469","8070","10569","4587","7497","9297","DualSpot on"
"MA200-0416","60699","125","1","1.10","1.6","2023-08-27T13:15:00","120","2023/08/27","13:15:00","-15.787167251110077","35.03524649515748","0.1","12","300","64","64","-871","24324","-404","14","150","149.90","118.58","31.32","32.45","32.3","13.76","89652","31.75","DUALSPOT-UV-BLUE-GREEN-RED-IR","522331","575424","908035","37.224712","18.364026","0.019822","549590","760805","766403","28.699760","13.068489","0.023692","644395","784138","815736","24.559630","10.688053","0.026131","667409","822623","861580","20.104360","8.277124","0.029268","607617","782072","950841","13.827133","5.307647","0.038107","4021","9757","15342","4247","9162","13271","4243","8537","11846","4382","8068","10647","4566","7700","9653","DualSpot on"
"MA200-0416","60700","125","1","1.10","1.6","2023-08-27T13:20:00","120","2023/08/27","13:20:00","-15.78716492652893","35.03526532277465","0.0","12","300","64","64","-838","24357","-580","14","150","149.37","118.22","31.15","32.44","31.1","13.17","89644","31.63","DUALSPOT-UV-BLUE-GREEN-RED-IR","517961","572311","908121","38.075552","18.916474","0.019547","544673","756226","765043","29.419960","13.492294","0.023623","641127","782395","816863","25.205728","11.043111","0.026145","664420","821166","862438","20.654512","8.557694","0.029777","605546","781127","951454","14.231682","5.491415","0.038021","4227","10417","16529","4516","10086","14805","4537","9463","13305","4668","9037","12127","4780","8241","10416","DualSpot on"
