"Serial number","Datum ID","Session ID","Data format version","Firmware version","App version","Date / time local","Timezone offset (mins)","Date local (yyyy/MM/dd)","Time local (hh:mm:ss)","GPS lat (ddmm.mmmmm)","GPS long (dddmm.mmmmm)","GPS speed (km/h)","GPS sat count","Timebase (s)","Status","Battery remaining (%)","Accel X","Accel Y","Accel Z","Tape position","Flow setpoint (mL/min)","Flow total (mL/min)","Flow1 (mL/min)","Flow2 (mL/min)","Sample temp (C)","Sample RH (%)","Sample dewpoint (C)","Internal pressure (Pa)","Internal temp (C)","Optical config","UV Sen1","UV Sen2","UV Ref","UV ATN1","UV ATN2","UV K","Blue Sen1","Blue Sen2","Blue Ref","Blue ATN1","Blue ATN2","Blue K","Green Sen1","Green Sen2","Green Ref","Green ATN1","Green ATN2","Green K","Red Sen1","Red Sen2","Red Ref","Red ATN1","Red ATN2","Red K","IR Sen1","IR Sen2","IR Ref","IR ATN1","IR ATN2","IR K","UV BC1","UV BC2","UV BCc","Blue BC1","Blue BC2","Blue BCc","Green BC1","Green BC2","Green BCc","Red BC1","Red BC2","Red BCc","IR BC1","IR BC2","IR BCc","Readable status"
"MA200-0416","24955","67","1","1.10","1.4","2023-05-13T13:48:00","120","2023/05/13","13:48:00","-15.8014617562294","35.00602866569534","0.5","17","30","66","62","1236","24100","-6364","3","150","149.57","117.38","32.18","32.13","39.4","16.60","90192","31.44","DUALSPOT-UV-BLUE-GREEN-RED-IR","866129","740306","902207","0.000000","0.000000","0.000000","826863","935801","769993","0.000000","0.000000","0.000000","913732","928757","813604","0.000000","0.000000","0.000000","892396","943328","859710","0.000000","0.000000","0.000000","751829","861846","949073","0.000000","0.000000","0.000000","","","","","","","","","","","","","","","","Start up"
"MA200-0416","24956","67","1","1.10","1.4","2023-05-13T13:48:30","120","2023/05/13","13:48:30","-15.801903009414673","35.006064164917916","1.4","18","30","66","61","1424","23904","-6228","3","150","149.67","116.78","32.89","32.15","39.2","16.54","90168","31.56","DUALSPOT-UV-BLUE-GREEN-RED-IR","867784","742164","904725","0.000000","0.000000","0.000000","815662","923392","759941","0.000000","0.000000","0.000000","914178","929449","814286","0.000000","0.000000","0.000000","892507","943627","860071","0.000000","0.000000","0.000000","752212","862432","949764","0.000000","0.000000","0.000000","","","","","","","","","","","","","","","","Start up"
"MA200-0416","24957","67","1","1.10","1.4","2023-05-13T13:49:00","120","2023/05/13","13:49:00","-15.801837027072906","35.00542466528714","3.1","18","30","66","62","-1619","23464","-6424","3","150","149.73","117.54","32.19","32.18","39.0","16.47","90208","31.63","DUALSPOT-UV-BLUE-GREEN-RED-IR","871526","745769","909275","0.000000","0.000000","0.000000","818490","926856","762870","0.000000","0.000000","0.000000","915997","931492","816169","0.000000","0.000000","0.000000","896782","948314","864383","0.000000","0.000000","0.000000","753938","864528","952164","0.000000","0.000000","0.000000","","","","","","","","","","","","","","","","Start up"
"MA200-0416","24958","67","1","1.10","1.4","2023-05-13T13:49:30","120","2023/05/13","13:49:30","-15.801087498664856","35.00464649964124","3.5","18","30","66","62","3032","24288","-3996","3","150","149.59","117.00","32.59","32.20","38.6","16.34","90256","31.69","DUALSPOT-UV-BLUE-GREEN-RED-IR","872380","746856","910824","0.000000","0.000000","0.000000","819262","928004","763934","0.000000","0.000000","0.000000","917128","932849","817473","0.000000","0.000000","0.000000","898040","949777","865820","0.000000","0.000000","0.000000","754720","865544","953310","0.000000","0.000000","0.000000","","","","","","","","","","","","","","","","Start up"
"MA200-0416","24959","67","1","1.10","1.4","2023-05-13T13:50:00","120","2023/05/13","13:50:00","-15.79855614900589","35.004256666172296","10.8","18","30","64","62","-1072","24204","-4636","3","150","149.73","117.59","32.14","32.23","38.2","16.21","90396","31.75","DUALSPOT-UV-BLUE-GREEN-RED-IR","863534","740011","902758","0.000000","0.000000","0.000000","818903","928191","764231","0.000000","0.000000","0.000000","912663","928775","814056","0.000000","0.000000","0.000000","898157","950243","866374","0.000000","0.000000","0.000000","754986","866046","953961","0.000000","0.000000","0.000000","","","","","","","","","","","","","","","",""
"MA200-0416","24960","67","1","1.10","1.4","2023-05-13T13:50:30","120","2023/05/13","13:50:30","-15.7959663271904","35.004298999439925","8.2","18","30","64","61","-1524","23880","-6772","3","150","149.70","117.06","32.63","32.24","37.8","16.05","90564","31.75","DUALSPOT-UV-BLUE-GREEN-RED-IR","861014","739394","902665","0.161091","0.042264","0.000000","816888","927276","763894","0.109261","0.030649","0.000000","910999","928145","813849","0.085318","0.024038","0.000000","897603","950535","866915","0.063943","0.018220","0.000000","754244","865810","953900","0.045253","0.011042","0.000000","8082","7607","8082","6919","6962","6919","6050","6115","6050","5480","5601","5480","5400","4727","5400",""
"MA200-0416","24961","67","1","1.10","1.4","2023-05-13T13:51:00","120","2023/05/13","13:51:00","-15.793605506420135","35.00421016570181","9.5","18","30","64","61","245","24429","-4520","3","150","150.43","117.46","32.96","32.25","37.5","15.93","90680","31.75","DUALSPOT-UV-BLUE-GREEN-RED-IR","864504","745133","910814","0.760535","0.194810","0.000000","813912","926520","764031","0.570124","0.148057","0.000000","911704","931125","817119","0.474799","0.122678","0.000000","894144","948705","865831","0.379556","0.099283","0.000000","752247","864675","953074","0.264408","0.065054","0.000000","29974","27181","29974","29086","26405","29086","27528","24844","27528","26957","24672","26957","26063","22890","26063",""
"MA200-0416","24962","67","1","1.10","1.4","2023-05-13T13:51:30","120","2023/05/13","13:51:30","-15.791310250759125","35.00424183253199","8.5","18","30","64","61","1532","24208","-3855","3","150","150.05","117.12","32.93","32.25","37.4","15.87","90496","31.69","DUALSPOT-UV-BLUE-GREEN-RED-IR","853096","735904","899770","0.885352","0.225076","0.000000","810954","923638","761784","0.652015","0.167966","0.000000","911052","930855","816986","0.540828","0.139540","0.000000","892285","947039","864393","0.429540","0.110786","0.000000","751373","863897","952256","0.299026","0.072702","0.000000","6259","5398","6259","5183","4482","5183","4680","4251","4680","4281","3505","4281","4129","3244","4129",""
"MA200-0416","24963","67","1","1.10","1.4","2023-05-13T13:52:00","120","2023/05/13","13:52:00","-15.789122223854065","35.00473616551608","5.3","18","30","64","61","-1537","24533","-4525","3","150","149.45","116.55","32.90","32.24","37.2","15.77","90408","31.69","DUALSPOT-UV-BLUE-GREEN-RED-IR","861410","743718","909598","1.016255","0.261343","0.000000","811518","924773","762897","0.741040","0.193840","0.000000","910437","930637","816962","0.612795","0.160926","0.000000","893479","948631","865969","0.486189","0.128042","0.000000","751739","864507","952994","0.334623","0.082283","0.000000","6597","6474","6597","5662","5830","5662","5126","5397","5126","4876","5262","4876","4266","4068","4266",""
"MA200-0416","24964","67","1","1.10","1.4","2023-05-13T13:52:30","120","2023/05/13","13:52:30","-15.788923621177673","35.004810999147594","0.0","18","30","64","61","165","24257","-5003","3","150","149.96","117.46","32.50","32.24","36.8","15.61","90404","31.69","DUALSPOT-UV-BLUE-GREEN-RED-IR","860985","743741","909814","1.091073","0.280099","0.000000","810868","924318","762597","0.787598","0.208574","0.000000","909915","930328","816775","0.650286","0.171214","0.000000","892543","947860","865343","0.515234","0.136034","0.000000","751206","864012","952549","0.355329","0.088052","0.000000","3741","3389","3741","2938","3360","2938","2649","2627","2649","2480","2467","2480","2462","2480","2462",""
"MA200-0416","24965","67","1","1.10","1.4","2023-05-13T13:53:00","120","2023/05/13","13:53:00","-15.788754642009735","35.00485933339223","2.8","18","30","64","61","-828","23632","-8075","3","150","149.59","117.25","32.34","32.24","36.6","15.54","90400","31.69","DUALSPOT-UV-BLUE-GREEN-RED-IR","857986","741464","907177","1.147166","0.293525","0.000000","808845","922256","760967","0.820189","0.216032","0.000000","908998","929575","816163","0.674140","0.178134","0.000000","890373","945681","863385","0.532037","0.139742","0.000000","750178","862870","951282","0.365896","0.089721","0.000000","2809","2438","2809","2060","1709","2060","1689","1776","1689","1437","1150","1437","1258","720","1258",""
"MA200-0416","24966","67","1","1.10","1.4","2023-05-13T13:53:30","120","2023/05/13","13:53:30","-15.788258612155914","35.00280266604386","8.9","18","30","64","61","-1916","24456","-5992","3","150","150.09","117.34","32.75","32.24","36.5","15.48","90564","31.69","DUALSPOT-UV-BLUE-GREEN-RED-IR","856665","742505","909342","1.540371","0.394094","0.000000","808331","923783","762862","1.131207","0.296264","0.000000","906390","928746","815981","0.938308","0.244665","0.000000","889130","945861","864024","0.746947","0.194662","0.000000","749302","862846","951592","0.513603","0.126329","0.000000","19681","18035","19681","19648","18160","19648","18690","16864","18690","18374","16823","18374","17584","15614","17584",""
"MA200-0416","24967","67","1","1.10","1.4","2023-05-13T13:54:00","120","2023/05/13","13:54:00","-15.787955224514008","35.00104583310895","5.5","18","30","64","61","-548","24032","-5908","3","150","150.14","117.92","32.23","32.24","36.5","15.49","90524","31.69","DUALSPOT-UV-BLUE-GREEN-RED-IR","856543","742697","909703","1.592045","0.407028","0.000000","807566","923171","762378","1.160728","0.302183","0.000000","906551","929095","816310","0.962966","0.250297","0.000000","889862","946781","864888","0.765430","0.198786","0.000000","749928","863643","952489","0.523881","0.127905","0.000000","2573","2357","2573","1855","1361","1855","1736","1451","1736","1572","1284","1572","1217","683","1217",""
"MA200-0416","24968","67","1","1.10","1.4","2023-05-13T13:54:30","120","2023/05/13","13:54:30","-15.786863327026367","35.00093433330767","4.6","17","30","64","61","416","24196","-4760","3","150","149.59","117.59","32.01","32.24","36.3","15.40","90436","31.69","DUALSPOT-UV-BLUE-GREEN-RED-IR","854415","741219","908077","1.661847","0.425630","0.000000","806808","922571","761998","1.205754","0.316488","0.000000","906124","928894","816238","0.998414","0.261354","0.000000","889520","946589","864801","0.793546","0.208198","0.000000","749665","863478","952370","0.542902","0.132443","0.000000","3486","3413","3486","2838","3313","2838","2502","2868","2502","2398","2950","2398","2259","1980","2259",""
"MA200-0416","24969","67","1","1.10","1.4","2023-05-13T13:55:00","120","2023/05/13","13:55:00","-15.786519467830658","34.999698519706726","6.1","17","30","64","61","-2295","24308","-4458","3","150","150.01","117.85","32.15","32.23","36.1","15.29","90508","31.63","DUALSPOT-UV-BLUE-GREEN-RED-IR","854279","741410","908418","1.717603","0.440443","0.000000","806411","922299","761866","1.240307","0.325471","0.000000","905675","928600","816053","1.025045","0.268268","0.000000","889156","946328","864620","0.812983","0.213342","0.000000","749186","863001","951850","0.557577","0.137768","0.000000","2778","2705","2778","2173","2071","2173","1876","1785","1876","1654","1605","1654","1739","2313","1739",""
"MA200-0416","24970","67","1","1.10","1.4","2023-05-13T13:55:30","120","2023/05/13","13:55:30","-15.786302030086517","34.9981586933136","5.8","17","30","64","60","1548","24276","-4548","3","150","149.76","117.67","32.10","32.23","36.0","15.27","90452","31.63","DUALSPOT-UV-BLUE-GREEN-RED-IR","851651","739493","906249","1.785260","0.457967","0.000000","804950","920947","760785","1.277882","0.334335","0.000000","903433","926475","814230","1.054019","0.275379","0.000000","885729","942877","861485","0.834465","0.218456","0.000000","747275","860885","949582","0.570362","0.139659","0.000000","3377","3206","3377","2367","2047","2367","2044","1839","2044","1831","1598","1831","1517","823","1517",""
"MA200-0416","24971","67","1","1.10","1.4","2023-05-13T13:56:00","120","2023/05/13","13:56:00","-15.786532461643219","34.997364699840546","5.0","17","30","64","61","-1508","24232","-3860","3","150","150.23","118.10","32.13","32.22","35.8","15.17","90408","31.63","DUALSPOT-UV-BLUE-GREEN-RED-IR","852873","740864","907988","1.835805","0.470579","0.000000","805666","921940","761682","1.308638","0.343465","0.000000","904914","928161","815784","1.078045","0.283390","0.000000","887969","945311","863780","0.852131","0.224905","0.000000","748737","862616","951495","0.580219","0.142527","0.000000","2513","2305","2513","1930","2106","1930","1689","2070","1689","1500","2014","1500","1165","1246","1165",""
"MA200-0416","24972","67","1","1.10","1.4","2023-05-13T13:56:30","120","2023/05/13","13:56:30","-15.787232339382172","34.9970708489418","5.4","17","30","64","61","-2456","23976","-5360","3","150","149.96","117.18","32.78","32.22","35.7","15.11","90452","31.63","DUALSPOT-UV-BLUE-GREEN-RED-IR","852114","740864","908302","1.937123","0.495620","0.000000","805582","922510","762323","1.383876","0.362455","0.000000","904417","928187","815956","1.139044","0.298798","0.000000","886993","944759","863392","0.900989","0.235693","0.000000","748149","862257","951199","0.613996","0.149891","0.000000","5078","4487","5078","4759","4294","4759","4321","3902","4321","4183","3301","4183","4026","3138","4026",""
"MA200-0416","24973","67","1","1.10","1.4","2023-05-13T13:57:00","120","2023/05/13","13:57:00","-15.786641716957092","34.99640715122223","5.2","17","30","64","61","1164","24000","-4844","3","150","149.70","118.06","31.64","32.22","35.6","15.08","90452","31.63","DUALSPOT-UV-BLUE-GREEN-RED-IR","850154","740202","907936","2.136861","0.547882","0.000000","803670","921297","761619","1.536423","0.401992","0.000000","903225","927801","815864","1.267993","0.332367","0.000000","886219","944594","863454","1.005595","0.263422","0.000000","748006","862518","951646","0.688083","0.169079","0.000000","9937","9702","9937","9578","9264","9578","9068","8808","9068","8889","8792","8889","8766","8472","8766",""
"MA200-0416","24974","67","1","1.10","1.4","2023-05-13T13:57:30","120","2023/05/13","13:57:30","-15.785433828830719","34.99598902463913","5.6","17","30","64","61","372","24280","-3104","3","150","150.03","117.94","32.09","32.22","35.4","15.01","90400","31.63","DUALSPOT-UV-BLUE-GREEN-RED-IR","849398","740127","908089","2.243672","0.575767","0.000000","803533","921577","761984","1.603949","0.419336","0.000000","902584","927496","815707","1.321768","0.345617","0.000000","885391","943969","862986","1.045215","0.273692","0.000000","747375","861931","951046","0.711545","0.174800","0.000000","5319","5104","5319","4244","4006","4244","3785","3427","3785","3370","3211","3370","2779","2490","2779",""
"MA200-0416","24975","67","1","1.10","1.4","2023-05-13T13:58:00","120","2023/05/13","13:58:00","-15.783973693847656","34.995617747306824","5.9","17","30","64","61","-4","24450","-5529","3","150","150.69","118.09","32.60","32.20","35.4","14.97","90396","31.63","DUALSPOT-UV-BLUE-GREEN-RED-IR","846133","737783","905436","2.348057","0.602811","0.000000","801348","919441","760305","1.663035","0.434314","0.000000","900397","925515","814044","1.365613","0.356495","0.000000","882895","941501","860801","1.076936","0.282239","0.000000","745745","860161","949168","0.729841","0.179707","0.000000","5192","4872","5192","3709","3406","3709","3082","2770","3082","2695","2630","2695","2164","2102","2164",""
"MA200-0416","24976","67","1","1.10","1.4","2023-05-13T13:58:30","120","2023/05/13","13:58:30","-15.78253948688507","34.99557328224182","4.9","17","30","64","60","-1120","24112","-3116","3","150","150.11","117.65","32.46","32.20","35.3","14.95","90360","31.63","DUALSPOT-UV-BLUE-GREEN-RED-IR","847662","739327","907417","2.387428","0.611328","0.000000","802276","920674","761380","1.687932","0.439680","0.000000","902051","927331","815690","1.384109","0.360310","0.000000","885782","944673","863698","1.090014","0.284498","0.000000","747587","862367","951568","0.738445","0.180810","0.000000","1965","1541","1965","1568","1225","1568","1305","975","1305","1115","698","1115","1021","474","1021",""
"MA200-0416","24977","67","1","1.10","1.4","2023-05-13T13:59:00","120","2023/05/13","13:59:00","-15.78190004825592","34.99520319700241","5.5","17","30","64","61","-592","24268","-5360","3","150","149.63","117.18","32.45","32.19","35.3","14.93","90388","31.63","DUALSPOT-UV-BLUE-GREEN-RED-IR","846297","739034","907472","2.535302","0.650529","0.000000","800884","919905","761002","1.795375","0.467700","0.000000","901702","927674","816190","1.471746","0.382715","0.000000","884604","943986","863258","1.160252","0.303422","0.000000","747327","862398","951765","0.783519","0.191703","0.000000","7411","7096","7411","6797","6401","6797","6208","5732","6208","6013","5851","6013","5373","4689","5373",""
"MA200-0416","24978","67","1","1.10","1.4","2023-05-13T13:59:30","120","2023/05/13","13:59:30","-15.781424880027771","34.993745267391205","7.0","17","30","64","61","-916","24272","-3484","3","150","149.39","117.94","31.45","32.19","35.2","14.90","90392","31.56","DUALSPOT-UV-BLUE-GREEN-RED-IR","845770","739210","907894","2.653094","0.677566","0.000000","801288","920880","761917","1.877695","0.487506","0.000000","900868","927254","815949","1.540238","0.399774","0.000000","883730","943379","862823","1.212799","0.315635","0.000000","746812","862011","951381","0.819942","0.199663","0.000000","5866","5049","5866","5174","4669","5174","4821","4503","4821","4470","3896","4470","4314","3535","4314",""
"MA200-0416","24979","67","1","1.10","1.4","2023-05-13T14:00:00","120","2023/05/13","14:00:00","-15.781392216682434","34.99193215370178","6.3","17","30","64","60","-676","24224","-5000","3","150","149.59","117.75","31.84","32.18","35.3","14.90","90472","31.56","DUALSPOT-UV-BLUE-GREEN-RED-IR","840053","737369","907059","3.058314","0.786743","-0.001574","796484","918387","760748","2.180934","0.566101","0.000000","896999","925794","815416","1.783812","0.461536","0.000000","880875","942394","862515","1.401674","0.361930","0.000000","745029","861128","950847","0.940542","0.229047","0.000000","20212","20140","20116","19090","18299","19090","17173","16105","17173","16092","14588","16092","14307","12892","14307",""
"MA200-0416","24980","67","1","1.10","1.4","2023-05-13T14:00:30","120","2023/05/13","14:00:30","-15.780778288841248","34.990985214710236","5.0","17","30","64","60","192","23780","-6736","3","150","149.96","117.74","32.22","32.17","35.3","14.89","90480","31.56","DUALSPOT-UV-BLUE-GREEN-RED-IR","836399","736035","906297","3.509515","0.907465","-0.008846","794270","917702","760738","2.532011","0.658203","0.000000","894488","924849","815088","2.084858","0.538957","0.000000","877957","940635","861385","1.645946","0.424348","0.000000","743662","860492","950484","1.106159","0.269393","0.000000","22508","22006","21830","22104","21190","22104","21227","19948","21227","20814","19434","20814","19649","17491","19649",""
"MA200-0416","24981","67","1","1.10","1.4","2023-05-13T14:01:00","120","2023/05/13","14:01:00","-15.779368340969086","34.99095857143402","5.1","16","30","64","60","-1756","23868","-7796","3","150","150.43","118.22","32.20","32.17","35.3","14.89","90520","31.50","DUALSPOT-UV-BLUE-GREEN-RED-IR","834446","735008","905237","3.678820","0.947900","-0.054087","799149","923980","766108","2.664655","0.690591","0.000000","892851","923672","814177","2.199453","0.565851","0.000000","877115","940127","861029","1.742589","0.447880","0.000000","742624","859548","949530","1.172931","0.285193","0.000000","8411","7375","7015","8317","7456","8317","8047","6933","8047","8201","7331","8201","7889","6853","7889",""
"MA200-0416","24982","67","1","1.10","1.4","2023-05-13T14:01:30","120","2023/05/13","14:01:30","-15.778045237064362","34.99103766679764","5.4","16","30","64","61","44","24184","-4708","3","150","149.76","117.94","31.82","32.16","35.3","14.90","90580","31.50","DUALSPOT-UV-BLUE-GREEN-RED-IR","832914","734227","904519","3.813382","0.982242","-0.020650","798121","923351","765690","2.767455","0.716573","0.000000","891893","923137","813880","2.287101","0.589662","0.000000","876166","939566","860575","1.813125","0.465184","0.000000","746834","864651","955231","1.221126","0.296742","0.000000","6701","6338","6212","6461","6052","6461","6169","6211","6169","6000","5454","6000","5708","5069","5708",""
"MA200-0416","24983","67","1","1.10","1.4","2023-05-13T14:02:00","120","2023/05/13","14:02:00","-15.776399195194244","34.9912246465683","6.4","16","30","64","60","-1588","24012","-6120","3","150","149.81","117.55","32.25","32.15","35.3","14.91","90612","31.50","DUALSPOT-UV-BLUE-GREEN-RED-IR","832638","734300","904768","3.881837","1.000028","-0.019815","797622","923019","765546","2.813649","0.728553","0.000000","895333","926907","817247","2.325809","0.599044","0.000000","875418","938910","860066","1.843088","0.473809","0.000000","746546","864431","955004","1.240003","0.300798","0.000000","3420","3238","3176","2913","2753","2913","2733","2415","2733","2557","2682","2557","2243","1756","2243",""
"MA200-0416","24984","67","1","1.10","1.4","2023-05-13T14:02:30","120","2023/05/13","14:02:30","-15.774850308895111","34.991616904735565","6.1","16","30","64","60","-2568","24576","-5820","3","150","150.03","118.30","31.73","32.14","35.2","14.84","90732","31.50","DUALSPOT-UV-BLUE-GREEN-RED-IR","831271","733308","903674","3.922634","1.013721","0.064521","796633","922012","764762","2.837771","0.735843","0.000000","896259","928032","818304","2.344465","0.605535","0.000000","875729","939309","860480","1.855850","0.477647","0.000000","746959","864954","955650","1.249614","0.304512","0.000000","2025","2534","2712","1511","1703","1511","1309","1698","1309","1082","1213","1082","1134","1635","1134",""
"MA200-0416","24985","67","1","1.10","1.4","2023-05-13T14:03:00","120","2023/05/13","14:03:00","-15.774005830287933","34.992739379405975","6.2","16","30","64","60","-424","24964","-5684","3","150","149.39","117.62","31.76","32.13","35.2","14.81","90860","31.44","DUALSPOT-UV-BLUE-GREEN-RED-IR","827530","730559","900446","4.015869","1.037078","-0.026910","794208","919770","763018","2.905559","0.754095","0.000000","893052","925096","815830","2.399987","0.619554","0.000000","879589","943799","864702","1.901602","0.489908","0.000000","744502","862346","952811","1.278547","0.310558","0.000000","4655","4319","4201","4272","4259","4272","3919","3664","3919","3902","3872","3902","3436","2658","3436",""
"MA200-0416","24986","67","1","1.10","1.4","2023-05-13T14:03:30","120","2023/05/13","14:03:30","-15.77240365743637","34.99284529685974","6.1","16","30","64","60","-1412","24272","-5204","3","150","150.08","117.38","32.70","32.12","35.3","14.86","90916","31.44","DUALSPOT-UV-BLUE-GREEN-RED-IR","829031","732314","902832","4.098351","1.057180","-0.049510","794471","920402","763644","2.961683","0.766622","0.000000","893763","926136","816862","2.447361","0.631242","0.000000","881857","946502","867234","1.936370","0.497757","0.000000","745674","863808","954475","1.302867","0.316117","0.000000","4127","3610","3431","3544","2840","3544","3350","2967","3350","2971","2408","2971","2894","2374","2894",""
"MA200-0416","24987","67","1","1.10","1.4","2023-05-13T14:04:00","120","2023/05/13","14:04:00","-15.771307706832886","34.99295997619629","3.9","16","30","64","60","-2140","23848","-6943","3","150","149.90","117.30","32.59","32.12","35.4","14.88","90976","31.44","DUALSPOT-UV-BLUE-GREEN-RED-IR","835519","738644","910855","4.188855","1.080963","-0.018828","793775","920051","763485","3.019541","0.781917","-0.023235","893124","925826","816702","2.491736","0.642651","0.000000","880760","945591","866483","1.970267","0.506442","0.000000","745240","863524","954224","1.326143","0.321807","0.000000","4531","4285","4200","3656","3478","3416","3140","2906","3140","2899","2673","2899","2771","2439","2771",""
"MA200-0416","24988","67","1","1.10","1.4","2023-05-13T14:04:30","120","2023/05/13","14:04:30","-15.771241903305054","34.99416774511337","4.8","16","30","64","60","3124","24224","-4244","3","150","150.35","117.92","32.43","32.10","35.5","14.91","90944","31.44","DUALSPOT-UV-BLUE-GREEN-RED-IR","825129","730600","901413","4.418718","1.139364","-0.025931","792587","919503","763237","3.147060","0.813806","-0.044357","889206","922382","813789","2.585537","0.664329","0.000000","880242","945466","866506","2.038645","0.523167","0.000000","745149","863660","954401","1.364105","0.328682","0.000000","11449","10576","10272","8016","7288","7034","6604","5549","6604","5817","5173","5817","4497","2961","4497",""
"MA200-0416","24989","67","1","1.10","1.4","2023-05-13T14:05:00","120","2023/05/13","14:05:00","-15.771316707134247","34.99483913183212","5.7","16","30","64","60","800","24440","-4172","3","150","150.43","117.98","32.45","32.09","35.5","14.93","90904","31.44","DUALSPOT-UV-BLUE-GREEN-RED-IR","832411","737399","909957","4.480736","1.153591","-0.064183","792682","919838","763629","3.185701","0.823307","-0.052353","892153","925666","816761","2.615064","0.671416","0.000000","879018","944304","865481","2.059531","0.528794","0.000000","744368","862826","953536","1.376916","0.331608","0.000000","3087","2575","2397","2428","2170","2081","2077","1813","2077","1776","1739","1776","1516","1259","1516",""
"MA200-0416","24990","67","1","1.10","1.4","2023-05-13T14:05:30","120","2023/05/13","14:05:30","-15.772696673870087","34.99564552307129","5.3","16","30","64","60","1608","24337","-5533","3","150","150.29","117.62","32.67","32.07","35.6","14.95","90796","31.38","DUALSPOT-UV-BLUE-GREEN-RED-IR","829320","734980","907111","4.536586","1.167474","-0.036320","790408","917478","761710","3.223604","0.830471","-0.234425","889301","922910","814395","2.646124","0.679511","0.000000","875832","941064","862583","2.083307","0.533920","0.000000","742625","860920","951469","1.393148","0.334678","0.000000","2788","2495","2394","2388","1625","1360","2192","2057","2192","2028","1574","2028","1927","1312","1927",""
"MA200-0416","24991","67","1","1.10","1.4","2023-05-13T14:06:00","120","2023/05/13","14:06:00","-15.77346420288086","34.99695122241974","5.9","16","30","64","60","2620","23764","-5576","3","150","149.50","117.50","32.00","32.07","35.6","14.94","90668","31.38","DUALSPOT-UV-BLUE-GREEN-RED-IR","829579","736035","908798","4.674684","1.203338","-0.014221","790741","918557","762828","3.315580","0.856662","0.017534","889809","923964","815517","2.720350","0.699973","0.000000","877064","942830","864335","2.139675","0.549351","0.000000","743154","861806","952561","1.432073","0.345192","0.000000","6903","6583","6472","5802","6068","6161","5244","5309","5244","4812","4838","4812","4627","4590","4627",""
"MA200-0416","24992","67","1","1.10","1.4","2023-05-13T14:06:30","120","2023/05/13","14:06:30","-15.775133430957794","34.99742412567139","6.6","16","30","64","60","-464","23944","-5032","3","150","150.62","117.70","32.92","32.04","35.5","14.89","90592","31.38","DUALSPOT-UV-BLUE-GREEN-RED-IR","827875","735373","908306","4.838038","1.244628","-0.030807","789755","918125","762621","3.421777","0.881792","-0.076524","889319","924030","815702","2.802688","0.719225","0.000000","876141","942216","863891","2.202206","0.565373","0.000000","743065","861992","952839","1.474086","0.354508","0.000000","8151","7366","7094","6688","5658","5300","5807","4855","5807","5330","4882","5330","4986","3952","4986",""
"MA200-0416","24993","67","1","1.10","1.4","2023-05-13T14:07:00","120","2023/05/13","14:07:00","-15.776685416698456","34.99771445989609","6.0","16","30","64","60","660","24460","-2460","3","150","149.58","117.45","32.13","32.03","35.5","14.85","90528","31.38","DUALSPOT-UV-BLUE-GREEN-RED-IR","827476","735402","908525","4.915731","1.266525","0.007915","789222","917798","762496","3.472286","0.897705","0.048853","890017","925001","816659","2.842504","0.732005","0.000000","875908","942192","863935","2.232211","0.573962","0.000000","743438","862480","953481","1.493101","0.360820","0.000000","3885","4002","4042","3188","3671","3839","2814","3301","2814","2563","2681","2563","2261","2744","2261",""
"MA200-0416","24994","67","1","1.10","1.4","2023-05-13T14:07:30","120","2023/05/13","14:07:30","-15.777936041355133","34.99811577796936","6.1","16","30","64","60","440","24316","-5208","3","150","150.30","117.92","32.38","32.02","35.4","14.83","90472","31.38","DUALSPOT-UV-BLUE-GREEN-RED-IR","825887","734569","907754","5.015241","1.291444","-0.026827","788312","917280","762230","3.541148","0.915014","-0.036373","888019","923331","815303","2.897841","0.745266","0.000000","874675","941200","863138","2.275228","0.585334","0.000000","742097","861186","952072","1.521385","0.366630","0.000000","4956","4520","4368","4329","3962","3835","3896","3400","3896","3659","3523","3659","3350","2506","3350",""
"MA200-0416","24995","67","1","1.10","1.4","2023-05-13T14:08:00","120","2023/05/13","14:08:00","-15.779449582099915","34.998364210128784","6.1","16","30","64","60","1416","24508","-4480","3","150","150.31","117.72","32.59","32.01","35.5","14.85","90384","31.31","DUALSPOT-UV-BLUE-GREEN-RED-IR","824583","734021","907390","5.140570","1.325038","-0.008686","786837","916104","761373","3.626561","0.937063","-0.027611","887364","923045","815216","2.967245","0.764423","0.000000","875138","941987","864014","2.329284","0.600558","0.000000","742142","861443","952420","1.557176","0.374486","0.000000","6253","6054","5985","5378","5015","4889","4894","4880","4894","4606","4686","4606","4247","3367","4247",""
"MA200-0416","24996","67","1","1.10","1.4","2023-05-13T14:08:30","120","2023/05/13","14:08:30","-15.780928373336792","34.99862939119339","6.7","16","30","64","60","1364","24224","-4296","3","150","149.45","117.38","32.06","32.00","35.4","14.79","90232","31.31","DUALSPOT-UV-BLUE-GREEN-RED-IR","823231","733525","907102","5.260777","1.359081","0.008983","786205","915977","761475","3.714073","0.961900","0.013483","886947","923185","815495","3.040159","0.784474","0.002968","872868","939999","862319","2.386969","0.616192","0.000000","741481","860928","951962","1.595840","0.385582","0.000000","6014","6236","6313","5526","5742","5818","5157","5191","5204","4930","4892","4930","4601","4834","4601",""
"MA200-0416","24997","67","1","1.10","1.4","2023-05-13T14:09:00","120","2023/05/13","14:09:00","-15.78192412853241","34.99974828958511","5.9","16","30","64","59","1458","24154","-4691","3","150","149.70","116.98","32.71","32.00","35.2","14.73","90128","31.31","DUALSPOT-UV-BLUE-GREEN-RED-IR","821548","732330","905730","5.334595","1.378542","-0.015675","785154","915002","760753","3.766960","0.976783","0.002261","885810","922204","814687","3.082854","0.795805","-0.023880","873272","940608","862959","2.421903","0.626683","0.000000","741163","860690","951754","1.618215","0.390855","0.000000","3706","3494","3420","3351","3372","3380","3030","2875","2822","2996","3217","2996","2671","2251","2671",""
"MA200-0416","24998","67","1","1.10","1.4","2023-05-13T14:09:30","120","2023/05/13","14:09:30","-15.782490968704224","35.001245666411705","5.5","16","30","64","60","-2436","23928","-5308","3","150","149.96","117.50","32.46","31.98","35.2","14.70","90092","31.31","DUALSPOT-UV-BLUE-GREEN-RED-IR","819888","731337","904731","5.420001","1.401542","-0.006471","790038","921141","765964","3.825998","0.990993","-0.054962","884842","921566","814227","3.129441","0.806487","-0.094964","872207","939745","862221","2.456671","0.633298","0.000000","740764","860371","951437","1.641506","0.396393","0.000000","4269","4161","4124","3724","3245","3077","3291","2731","2537","2968","2044","2968","2768","2383","2768",""
"MA200-0416","24999","67","1","1.10","1.4","2023-05-13T14:10:00","120","2023/05/13","14:10:00","-15.78335177898407","35.00144099991303","3.8","16","30","64","60","-664","25280","-5416","3","150","150.43","117.70","32.72","31.98","35.1","14.67","90152","31.31","DUALSPOT-UV-BLUE-GREEN-RED-IR","820209","732022","905722","5.493464","1.419551","-0.034541","784409","914926","760899","3.877741","1.003868","-0.042594","884336","921308","814097","3.173292","0.818270","-0.014888","870997","938648","861292","2.489423","0.642197","0.000000","740107","859725","950805","1.662607","0.402062","0.000000","3666","3232","3081","3258","2916","2797","3093","2989","2953","2791","2728","2791","2504","2419","2504",""
"MA200-0416","25000","67","1","1.10","1.4","2023-05-13T14:10:30","120","2023/05/13","14:10:30","-15.783697724342346","35.0020264997147","5.9","16","30","64","59","204","24104","-4592","3","150","150.49","117.74","32.75","31.97","35.2","14.68","90184","31.31","DUALSPOT-UV-BLUE-GREEN-RED-IR","819988","732333","906291","5.573301","1.438139","-0.050523","784022","914884","760969","3.931731","1.016807","-0.058372","884195","921530","814387","3.215664","0.827699","-0.114631","870931","938839","861526","2.523070","0.649887","0.000000","740310","860115","951236","1.682350","0.405305","0.000000","3982","3333","3107","3399","2928","2764","2987","2390","2183","2867","2355","2867","2342","1383","2342",""
"MA200-0416","25001","67","1","1.10","1.4","2023-05-13T14:11:00","120","2023/05/13","14:11:00","-15.783718228340149","35.00363533268683","6.4","16","30","64","59","556","24148","-6564","3","150","150.63","117.96","32.67","31.96","35.2","14.70","90192","31.31","DUALSPOT-UV-BLUE-GREEN-RED-IR","809706","727984","903201","6.464117","1.683384","-0.001256","782078","917603","764764","4.655379","1.211530","-0.008578","876891","918182","812814","3.836161","0.994194","-0.011444","863765","934726","858939","3.031492","0.784318","-0.021465","736309","857849","949690","2.042551","0.501911","0.000000","44356","44092","43999","45478","44186","43731","43671","42311","41835","43242","41283","40600","42657","41308","42657",""
"MA200-0416","25002","67","1","1.10","1.4","2023-05-13T14:11:30","120","2023/05/13","14:11:30","-15.784328281879425","35.00444966554642","7.1","16","30","64","59","-1528","23828","-8036","3","150","149.90","117.50","32.39","31.95","35.2","14.69","90232","31.25","DUALSPOT-UV-BLUE-GREEN-RED-IR","809745","728789","904588","6.645241","1.732891","-0.001761","782096","918373","765659","4.793823","1.249467","-0.001717","877669","919614","814291","3.952062","1.026177","0.000326","865885","937569","861750","3.127515","0.810443","-0.005769","737278","859318","951419","2.107114","0.518037","0.000000","9053","8976","8949","8734","8681","8663","8189","8197","8199","8198","8091","8053","7675","6954","7675",""
"MA200-0416","25003","67","1","1.10","1.4","2023-05-13T14:12:00","120","2023/05/13","14:12:00","-15.785696148872375","35.004255999810994","4.5","16","30","64","59","-564","23824","-7743","3","150","150.16","117.34","32.82","31.94","35.2","14.68","90344","31.25","DUALSPOT-UV-BLUE-GREEN-RED-IR","809768","729100","905085","6.698599","1.747081","-0.010609","782217","918755","766021","4.826456","1.257944","-0.022102","881115","923422","817713","3.980232","1.032978","-0.056919","864450","936152","860452","3.147614","0.815093","-0.096686","736830","858815","950891","2.119312","0.521180","0.000000","2670","2539","2493","2061","1914","1862","1993","1720","1624","1718","1421","1317","1452","1337","1452",""
"MA200-0416","25004","67","1","1.10","1.4","2023-05-13T14:12:30","120","2023/05/13","14:12:30","-15.787096619606018","35.00402316590771","4.6","16","30","64","59","840","24044","-7160","3","150","149.80","117.00","32.80","31.93","35.2","14.66","90416","31.25","DUALSPOT-UV-BLUE-GREEN-RED-IR","807179","726996","902602","6.749249","1.761436","0.002185","779993","916328","764076","4.860443","1.268005","0.014519","878976","921355","815957","4.006315","1.039773","-0.026314","861919","933513","858120","3.168088","0.821953","0.065911","735136","856936","948846","2.131010","0.523962","0.000000","2542","2570","2580","2153","2274","2316","1850","1720","1674","1755","2098","2218","1396","1185","1396",""
"MA200-0416","25005","67","1","1.10","1.4","2023-05-13T14:13:00","120","2023/05/13","14:13:00","-15.788444697856903","35.00384549959563","3.0","16","30","64","59","572","24344","-3223","3","150","150.31","117.50","32.81","31.92","35.1","14.61","90444","31.25","DUALSPOT-UV-BLUE-GREEN-RED-IR","808184","728370","904554","6.837127","1.787237","0.009540","781137","918099","765690","4.922497","1.285696","0.005627","880114","922865","817410","4.056281","1.054758","0.022448","863154","935132","859681","3.207498","0.832819","-0.005354","740383","863224","955880","2.156187","0.530564","0.000000","4392","4619","4699","3915","3997","4026","3530","3792","3884","3365","3322","3308","2993","2810","2993",""
"MA200-0416","25006","67","1","1.10","1.4","2023-05-13T14:13:30","120","2023/05/13","14:13:30","-15.787874042987823","35.00079233321594","5.9","16","30","64","59","-541","24737","-116","3","150","150.05","118.07","31.98","31.90","35.2","14.63","90508","31.19","DUALSPOT-UV-BLUE-GREEN-RED-IR","807052","727708","903864","6.899663","1.802589","-0.020998","779829","916827","764716","4.961401","1.293766","-0.093373","879627","922587","817223","4.087639","1.061135","-0.124004","863439","935580","860176","3.230750","0.838523","-0.045102","735915","858092","950225","2.169792","0.533111","0.000000","3110","2820","2717","2442","1870","1669","2204","1655","1463","1975","1789","1724","1609","1112","1609",""
"MA200-0416","25007","67","1","1.10","1.4","2023-05-13T14:14:00","120","2023/05/13","14:14:00","-15.785980522632599","35.00103049993049","8.2","16","30","64","59","1980","24028","-5616","3","150","149.60","117.30","32.30","31.89","35.2","14.60","90316","31.19","DUALSPOT-UV-BLUE-GREEN-RED-IR","805930","726974","903119","6.958070","1.819692","0.011390","778967","916045","764131","4.999739","1.305854","0.032865","878779","921878","816668","4.116798","1.068986","-0.007478","862673","934887","859548","3.251624","0.843673","-0.050200","740218","863196","955886","2.182872","0.537018","0.000000","2924","3110","3176","2422","2774","2899","2063","2018","2002","1785","1599","1534","1557","1690","1557",""
"MA200-0416","25008","67","1","1.10","1.4","2023-05-13T14:14:30","120","2023/05/13","14:14:30","-15.78428429365158","35.00127049977891","6.8","17","30","64","59","596","24108","-3900","3","150","149.66","117.34","32.32","31.88","35.2","14.59","90204","31.19","DUALSPOT-UV-BLUE-GREEN-RED-IR","804899","726299","902400","7.007113","1.833656","0.006196","778585","915820","764008","5.029410","1.312900","-0.045674","878225","921456","816344","4.140609","1.076960","0.054507","868614","941447","865638","3.269875","0.849377","0.047008","739782","862744","955427","2.194297","0.540359","0.000000","2455","2537","2566","1874","1615","1524","1684","2048","2175","1560","1770","1843","1360","1443","1360",""
"MA200-0416","25009","67","1","1.10","1.4","2023-05-13T14:15:00","120","2023/05/13","14:15:00","-15.783731043338776","35.0023346664384","8.8","17","30","64","59","-680","24080","-5808","3","150","149.57","116.55","33.02","31.87","35.2","14.58","90160","31.13","DUALSPOT-UV-BLUE-GREEN-RED-IR","802983","725945","902557","7.144696","1.869016","-0.020117","776992","915302","763976","5.130440","1.340633","-0.008555","873226","917314","813022","4.219091","1.097750","-0.022805","867676","941282","865787","3.326600","0.865417","-0.000775","738931","862339","955174","2.233499","0.548465","0.000000","6933","6290","6062","6426","6226","6156","5590","5227","5099","4883","4873","4870","4698","3429","4698",""
"MA200-0416","25010","67","1","1.10","1.4","2023-05-13T14:15:30","120","2023/05/13","14:15:30","-15.78307181596756","35.00312199979089","6.5","17","30","64","59","1260","24252","-5644","3","150","149.96","117.86","32.10","31.86","35.2","14.59","90160","31.19","DUALSPOT-UV-BLUE-GREEN-RED-IR","808589","732206","910918","7.484426","1.962858","0.002510","775399","914588","763739","5.404240","1.414556","-0.002223","875673","920925","816588","4.457289","1.161158","-0.007099","866527","940974","865823","3.526240","0.918018","-0.013104","738363","862242","955317","2.374540","0.587168","0.000000","16930","17169","17254","17221","17070","17017","16779","16398","16264","16994","16439","16243","16717","16841","16717",""
"MA200-0416","25011","67","1","1.10","1.4","2023-05-13T14:16:00","120","2023/05/13","14:16:00","-15.782619714736938","35.0017064998392","1.0","17","30","64","59","416","24252","-4068","3","150","149.76","117.22","32.54","31.84","35.2","14.55","90088","31.13","DUALSPOT-UV-BLUE-GREEN-RED-IR","806120","730367","908791","7.558560","1.983284","-0.001348","773755","913012","762556","5.455733","1.428247","-0.011107","874227","919697","815533","4.498756","1.172929","0.006597","866038","940659","865571","3.557092","0.926487","-0.004257","737633","861551","954638","2.395166","0.592030","0.000000","3714","3686","3677","3256","3119","3070","2936","3003","3026","2640","2611","2601","2458","2087","2458",""
"MA200-0416","25012","67","1","1.10","1.4","2023-05-13T14:16:30","120","2023/05/13","14:16:30","-15.781783282756805","34.999194741249084","13.1","17","30","64","59","-3064","24684","-4392","3","150","150.43","118.18","32.25","31.84","35.1","14.52","90148","31.13","DUALSPOT-UV-BLUE-GREEN-RED-IR","805383","730405","909143","7.686634","2.016246","-0.010849","773065","912811","762581","5.545807","1.451368","-0.015748","873700","919634","815683","4.572219","1.192694","-0.004223","865251","940226","865330","3.616476","0.941991","-0.017158","737351","861442","954609","2.435020","0.602546","0.000000","6365","6003","5875","5650","5315","5196","5160","5088","5063","5041","4823","4746","4711","4555","4711",""
"MA200-0416","25013","67","1","1.10","1.4","2023-05-13T14:17:00","120","2023/05/13","14:17:00","-15.778896987438202","34.998342871665955","13.4","17","30","64","59","-1548","24256","-6932","3","150","150.56","117.46","33.10","31.82","35.1","14.51","90400","31.13","DUALSPOT-UV-BLUE-GREEN-RED-IR","804174","729937","908878","7.799907","2.048006","-0.000854","772412","912611","762579","5.628991","1.473909","-0.009706","872947","919353","815598","4.643482","1.212418","-0.005274","863871","939136","864498","3.673869","0.958412","0.005571","736858","861164","954410","2.472789","0.613046","0.000000","5664","5636","5626","5249","5049","4977","5036","4947","4916","4902","4977","5004","4491","4432","4491",""
"MA200-0416","25014","67","1","1.10","1.4","2023-05-13T14:17:30","120","2023/05/13","14:17:30","-15.776509404182434","34.997633039951324","11.0","17","30","64","59","-928","24416","-5756","3","150","149.57","117.14","32.42","31.81","35.2","14.53","90508","31.13","DUALSPOT-UV-BLUE-GREEN-RED-IR","801482","728172","907010","7.935629","2.085992","0.001900","770441","910885","761339","5.728441","1.502424","0.008119","871395","918255","814791","4.727829","1.235705","-0.000707","862836","938392","863954","3.739829","0.977116","0.008615","735847","860254","953483","2.519241","0.623894","0.000000","6805","6881","6909","6293","6520","6600","5977","5963","5957","5649","5788","5837","5539","4674","5539",""
"MA200-0416","25015","67","1","1.10","1.4","2023-05-13T14:18:00","120","2023/05/13","14:18:00","-15.773601830005646","34.997022807598114","7.6","17","30","64","59","-4768","23736","-2404","3","150","149.54","117.73","31.81","31.79","35.1","14.49","90632","31.06","DUALSPOT-UV-BLUE-GREEN-RED-IR","800710","728190","907389","8.034857","2.111980","-0.005435","770216","911302","761859","5.799103","1.520383","-0.015113","870354","917730","814484","4.783839","1.249366","-0.031743","861492","937456","863222","3.783667","0.986987","-0.077021","735114","859694","952969","2.548668","0.630594","0.000000","4950","4797","4743","4449","4184","4090","3949","3565","3429","3735","3112","2892","3491","2941","3491",""
"MA200-0416","25016","67","1","1.10","1.4","2023-05-13T14:18:30","120","2023/05/13","14:18:30","-15.772457480430603","34.99728113412857","2.9","17","30","64","59","-920","24636","-1588","3","150","149.34","117.00","32.34","31.79","35.2","14.53","90720","31.06","DUALSPOT-UV-BLUE-GREEN-RED-IR","796411","727072","907028","8.473843","2.216177","-0.027885","767137","909787","761164","6.072694","1.586599","-0.033301","868675","917530","814774","4.995037","1.300501","-0.040290","859305","936167","862387","3.940985","1.026850","-0.032132","734281","859484","953000","2.662931","0.657803","0.000000","22037","18926","17825","17334","15180","14418","14986","13129","12475","13489","12368","11973","13642","11754","13642",""
"MA200-0416","25017","67","1","1.10","1.4","2023-05-13T14:19:00","120","2023/05/13","14:19:00","-15.772178053855896","34.99779278039932","2.1","17","30","64","59","-3812","23900","-5045","3","150","150.09","117.50","32.59","31.76","35.3","14.57","90764","31.06","DUALSPOT-UV-BLUE-GREEN-RED-IR","786814","724485","906525","9.698419","2.533174","-0.010241","760880","907801","761136","6.933540","1.810878","-0.012916","862286","915284","814186","5.692065","1.481378","-0.016771","854530","934600","862118","4.482008","1.166956","-0.021998","731714","858851","953213","3.049537","0.756228","-0.040223","61213","57127","55682","54311","51013","49847","49249","46074","44957","46194","43128","42048","45962","42186","40940",""
"MA200-0416","25018","67","1","1.10","1.4","2023-05-13T14:19:30","120","2023/05/13","14:19:30","-15.772343039512634","34.99848783016205","4.3","17","30","64","58","-2752","24320","-4984","3","150","150.10","117.74","32.37","31.76","35.5","14.63","90828","31.06","DUALSPOT-UV-BLUE-GREEN-RED-IR","785648","724297","906660","9.881416","2.578525","-0.015574","760076","907588","761202","7.053464","1.842641","-0.007389","861821","915350","814453","5.784327","1.505840","-0.008741","854096","934538","862237","4.552667","1.185076","-0.021957","731213","858619","953032","3.096944","0.765594","-0.192727","9129","8229","7911","7551","7274","7177","6505","6274","6192","6021","5616","5473","5624","4042","3522",""
"MA200-0416","25019","67","1","1.10","1.4","2023-05-13T14:20:00","120","2023/05/13","14:20:00","-15.773335754871368","34.99937653541565","4.8","17","30","64","59","-2948","24260","-3639","3","150","149.43","117.77","31.66","31.75","35.5","14.62","90928","31.13","DUALSPOT-UV-BLUE-GREEN-RED-IR","783109","723137","905711","10.089349","2.630615","-0.010073","758468","906590","760618","7.185698","1.876174","-0.011579","860710","914919","814285","5.887354","1.531100","-0.022940","853977","935039","862839","4.631926","1.204091","-0.036757","730940","858655","953202","3.154085","0.780229","-0.021273","10370","9663","9413","8323","7851","7684","7263","6623","6398","6752","6025","5769","6777","6457","6351",""
"MA200-0416","25020","67","1","1.10","1.4","2023-05-13T14:20:30","120","2023/05/13","14:20:30","-15.771043002605438","34.999854147434235","16.6","17","30","64","59","-1236","24176","-3864","3","150","150.56","117.98","32.58","31.74","35.4","14.58","90964","31.13","DUALSPOT-UV-BLUE-GREEN-RED-IR","782579","724026","907409","10.323518","2.689558","-0.013160","757740","906934","761234","7.339125","1.915371","-0.015352","860760","915909","815455","6.007386","1.562512","-0.012655","853570","935317","863323","4.721481","1.227729","-0.013421","731043","859255","954029","3.216001","0.794895","-0.072425","11658","10626","10263","9640","8919","8664","8446","8005","7849","7615","7279","7161","7331","6288","5946",""
"MA200-0416","25021","67","1","1.10","1.4","2023-05-13T14:21:00","120","2023/05/13","14:21:00","-15.766755044460297","34.99969255924225","14.1","17","30","64","58","-1756","24248","-5492","3","150","149.83","117.22","32.61","31.73","35.4","14.56","91152","31.06","DUALSPOT-UV-BLUE-GREEN-RED-IR","778264","721077","904266","10.553374","2.753496","0.000005","754859","904357","759352","7.495317","1.956195","-0.011859","857339","913061","813154","6.138962","1.596612","-0.016562","849411","931407","859923","4.825280","1.254123","-0.027193","728551","856712","951354","3.288925","0.813001","-0.050572","11517","11517","11517","9877","9281","9071","9318","8682","8458","8883","8121","7853","8690","7757","7450",""
"MA200-0416","25022","67","1","1.10","1.4","2023-05-13T14:21:30","120","2023/05/13","14:21:30","-15.763744056224823","34.99937665462494","11.5","17","30","64","59","-624","23800","-6511","3","150","150.13","117.94","32.19","31.72","35.3","14.53","91268","31.06","DUALSPOT-UV-BLUE-GREEN-RED-IR","775502","721259","905828","11.081817","2.903396","0.004570","752927","904656","760471","7.897100","2.067905","0.003135","856031","913877","814622","6.472934","1.687460","-0.000687","849588","933422","862339","5.094151","1.324957","-0.009658","728726","858109","953366","3.474090","0.860615","-0.023959","26317","27353","27721","25254","25728","25895","23509","23432","23405","22872","22078","21799","21932","20664","20246",""
"MA200-0416","25023","67","1","1.10","1.4","2023-05-13T14:22:00","120","2023/05/13","14:22:00","-15.760996580123901","35.00044999999227","12.7","17","30","64","59","-431","23864","-5916","3","150","149.62","117.44","32.17","31.71","35.4","14.54","91380","31.06","DUALSPOT-UV-BLUE-GREEN-RED-IR","772573","719088","903353","11.211993","2.939931","0.002862","750937","902750","759008","7.987097","2.090770","-0.013655","853587","911663","812763","6.548160","1.706427","-0.018447","845979","929776","859129","5.152435","1.341289","0.005806","727021","856271","951394","3.513080","0.869793","-0.065503","6510","6669","6726","5680","5268","5122","5317","4894","4744","4979","5092","5132","4637","3984","3770",""
"MA200-0416","25024","67","1","1.10","1.4","2023-05-13T14:22:30","120","2023/05/13","14:22:30","-15.757277369499207","35.00204983307049","10.3","17","30","64","58","-488","24200","-4757","3","150","150.68","118.26","32.42","31.70","35.4","14.56","91552","31.06","DUALSPOT-UV-BLUE-GREEN-RED-IR","773391","720369","905222","11.301664","2.963489","-0.005289","751686","904107","760246","8.046681","2.106220","-0.009828","854305","912788","813877","6.594998","1.717532","-0.033887","847176","931353","860688","5.189377","1.350718","-0.019768","727956","857579","952930","3.536234","0.875410","-0.051075","4453","4268","4202","3735","3532","3461","3288","2843","2687","3133","2918","2842","2734","2420","2316",""
"MA200-0416","25025","67","1","1.10","1.4","2023-05-13T14:23:00","120","2023/05/13","14:23:00","-15.753134191036224","35.002709166146815","16.3","17","30","64","58","-1808","23491","-6558","3","150","149.40","117.00","32.40","31.69","35.5","14.56","91604","31.00","DUALSPOT-UV-BLUE-GREEN-RED-IR","772206","719949","905050","11.421822","2.997709","0.003257","750990","903912","760306","8.131648","2.130663","0.006159","858140","917429","818172","6.663162","1.737177","0.007858","847106","931682","861120","5.241173","1.364642","-0.007844","727298","857037","952413","3.568662","0.883928","-0.020540","6031","6203","6265","5383","5592","5667","4836","5034","5104","4441","4311","4266","3871","3672","3607",""
"MA200-0416","25026","67","1","1.10","1.4","2023-05-13T14:23:30","120","2023/05/13","14:23:30","-15.750174939632416","35.004920333158225","9.8","17","30","72","58","-2072","23756","-6436","3","150","150.43","117.54","32.88","31.68","35.6","14.58","91788","31.00","DUALSPOT-UV-BLUE-GREEN-RED-IR","884461","828091","1042785","11.935148","3.146614","0.003997","751980","908170","764849","8.531228","2.241356","-0.001575","979951","1050558","937973","6.998420","1.830267","-0.001461","973482","1073202","992804","5.510813","1.438278","-0.006049","836778","987619","1098159","3.754938","0.933192","-0.020888","25651","26597","26936","25201","24954","24867","23680","23503","23440","23015","22466","22272","22138","20928","20528",""
"MA200-0416","25027","67","1","1.10","1.4","2023-05-13T14:24:00","120","2023/05/13","14:24:00","-15.749082446098328","35.006526499055326","6.2","17","30","64","58","260","24256","-5136","3","150","150.09","117.62","32.47","31.67","35.6","14.60","91812","31.00","DUALSPOT-UV-BLUE-GREEN-RED-IR","764412","717254","903995","12.309822","3.255315","0.005254","750072","907373","764674","8.825497","2.323442","0.001576","847759","910200","813064","7.251251","1.899183","-0.002415","842633","930014","860687","5.718622","1.494657","-0.004194","724734","856081","952176","3.896551","0.970988","-0.011900","18709","19661","20003","18546","18739","18808","17846","17619","17538","17725","17418","17310","16818","16259","16073",""
"MA200-0416","25028","67","1","1.10","1.4","2023-05-13T14:24:30","120","2023/05/13","14:24:30","-15.748542845249176","35.00679933279753","1.7","17","30","64","58","-208","24316","-3387","3","150","149.63","117.30","32.33","31.66","35.7","14.61","91784","31.00","DUALSPOT-UV-BLUE-GREEN-RED-IR","760661","714648","901218","12.515787","3.314853","0.004981","747289","904879","762893","8.974868","2.366102","0.005232","849869","913271","816085","7.375956","1.933277","-0.001483","839532","927210","858323","5.817662","1.520877","-0.009680","722929","854309","950345","3.960220","0.986964","-0.034192","10313","10817","10998","9439","9782","9905","8826","8755","8730","8470","8137","8019","7582","6903","6678",""
"MA200-0416","25029","67","1","1.10","1.4","2023-05-13T14:25:00","120","2023/05/13","14:25:00","-15.74822849035263","35.00634366553277","2.4","17","30","64","58","1072","24232","-3168","3","150","150.35","118.29","32.06","31.65","35.7","14.62","91744","31.00","DUALSPOT-UV-BLUE-GREEN-RED-IR","762211","716626","903962","12.629704","3.346952","0.004059","742780","899888","758828","9.057546","2.387638","-0.006153","850768","914639","817404","7.444686","1.951450","-0.004583","841437","929635","860676","5.870870","1.535492","0.003061","723981","855767","952056","3.996683","0.996870","0.000805","5656","5880","5961","5181","4979","4907","4823","4706","4664","4512","4573","4595","4305","4316","4319",""
"MA200-0416","25030","67","1","1.10","1.4","2023-05-13T14:25:30","120","2023/05/13","14:25:30","-15.747485518455505","35.00645783217624","2.7","17","30","64","58","640","23864","-4256","3","150","150.43","117.78","32.64","31.64","35.7","14.61","91704","31.00","DUALSPOT-UV-BLUE-GREEN-RED-IR","761850","716643","904126","12.694666","3.365013","0.000328","748667","907313","765192","9.098838","2.399730","0.007848","845772","909437","812844","7.476104","1.961231","0.019144","840309","928548","859730","5.896918","1.541548","-0.047337","723550","855359","951632","4.010288","0.999258","-0.238077","3239","3249","3253","2598","2746","2798","2214","2487","2584","2218","1861","1734","1613","1021","825",""
"MA200-0416","25031","67","1","1.10","1.4","2023-05-13T14:26:00","120","2023/05/13","14:26:00","-15.74681955575943","35.00663533248007","2.4","17","30","64","58","2040","24124","-4420","3","150","149.89","117.24","32.65","31.64","35.7","14.61","91648","31.00","DUALSPOT-UV-BLUE-GREEN-RED-IR","761692","716830","904545","12.760904","3.384943","0.007741","743143","900867","759827","9.139415","2.410459","-0.008052","850061","914306","817235","7.509864","1.968825","-0.046898","840570","928999","860165","5.918032","1.547551","0.004642","723727","855630","951978","4.024274","1.003436","0.021959","3318","3585","3682","2565","2436","2389","2390","1931","1767","1806","1844","1857","1666","1787","1828",""
"MA200-0416","25032","67","1","1.10","1.4","2023-05-13T14:26:30","120","2023/05/13","14:26:30","-15.746132493019104","35.00676149921492","2.6","17","30","64","58","-456","23072","-4520","3","150","150.56","117.86","32.70","31.64","35.8","14.63","91604","31.00","DUALSPOT-UV-BLUE-GREEN-RED-IR","761390","716918","904842","12.828123","3.402963","-0.003742","742945","900928","759960","9.183326","2.421533","-0.015345","850307","914790","817766","7.541949","1.976752","-0.023094","840667","929264","860484","5.942579","1.554047","-0.011172","723780","855802","952149","4.038730","1.005543","-0.424782","3349","3237","3196","2761","2510","2420","2260","2012","1924","2089","1993","1959","1713","900","630",""
"MA200-0416","25033","67","1","1.10","1.4","2023-05-13T14:27:00","120","2023/05/13","14:27:00","-15.745962738990784","35.00648699840531","2.3","17","30","64","58","-1272","23652","-7368","3","150","149.57","117.34","32.22","31.64","35.9","14.68","91608","31.06","DUALSPOT-UV-BLUE-GREEN-RED-IR","760974","717324","905709","12.962904","3.436550","-0.011112","742672","901207","760345","9.263052","2.439499","-0.034756","850836","915830","818820","7.600308","1.989960","-0.041126","841031","930042","861271","5.982657","1.562362","-0.082653","724298","856634","953147","4.062492","1.010518","-0.113895","6746","6122","5897","5036","4133","3810","4129","3403","3145","3426","2588","2292","2828","2156","1933",""
"MA200-0416","25034","67","1","1.10","1.4","2023-05-13T14:27:30","120","2023/05/13","14:27:30","-15.746293723583221","35.0056484984234","4.3","17","30","64","58","-636","23912","-6724","3","150","150.43","117.98","32.45","31.65","35.9","14.70","91632","31.06","DUALSPOT-UV-BLUE-GREEN-RED-IR","760278","717112","905652","13.064554","3.464714","0.000770","742250","901066","760331","9.324330","2.455341","-0.009495","846213","911104","814659","7.647372","2.001428","-0.023873","841643","930906","862170","6.016354","1.570338","-0.038644","724543","857051","953650","4.084425","1.014310","-0.238870","5060","5098","5112","3850","3619","3537","3311","2934","2800","2865","2466","2324","2596","1632","1314",""
"MA200-0416","25035","67","1","1.10","1.4","2023-05-13T14:28:00","120","2023/05/13","14:28:00","-15.746522963047028","35.00477033248171","2.3","17","30","64","58","-1860","24244","-5100","3","150","150.10","117.33","32.78","31.65","35.9","14.71","91652","31.13","DUALSPOT-UV-BLUE-GREEN-RED-IR","756597","714584","902854","13.231052","3.509330","-0.004439","745407","905513","764283","9.416256","2.478742","-0.014544","848430","913965","817345","7.711596","2.016592","-0.034402","839756","929094","860567","6.057647","1.579934","-0.048593","723250","855693","952170","4.110365","1.021062","-0.024296","8335","7995","7872","5808","5292","5108","4544","3840","3591","3531","2937","2727","3088","2877","2808",""
"MA200-0416","25036","67","1","1.10","1.4","2023-05-13T14:28:30","120","2023/05/13","14:28:30","-15.746863067150116","35.00425016647205","2.4","17","30","64","58","-1048","23488","-7020","3","150","150.16","117.58","32.58","31.64","36.0","14.75","91676","31.06","DUALSPOT-UV-BLUE-GREEN-RED-IR","759285","717343","906461","13.294788","3.526725","-0.001566","742127","901734","761165","9.454896","2.488428","-0.015719","844840","910255","814077","7.740713","2.022451","-0.076042","841061","930677","862046","6.076558","1.583647","-0.107039","724119","856761","953388","4.120279","1.022389","-0.534566","3183","3136","3118","2436","2203","2120","2055","1493","1294","1613","1143","977","1177","568","367",""
"MA200-0416","25037","67","1","1.10","1.4","2023-05-13T14:29:00","120","2023/05/13","14:29:00","-15.747268557548523","35.00375466630794","2.5","17","30","64","58","-1132","23808","-6708","3","150","150.03","117.78","32.25","31.65","36.1","14.80","91716","31.13","DUALSPOT-UV-BLUE-GREEN-RED-IR","759059","717371","906630","13.340149","3.539032","-0.000943","741830","901565","761061","9.482960","2.495885","-0.004384","845177","910772","814565","7.761896","2.028978","0.018691","841295","931052","862434","6.093641","1.587801","-0.029206","724449","857254","953936","4.131658","1.024778","-0.108820","2262","2241","2233","1766","1714","1695","1493","1680","1746","1455","1292","1235","1349","1034","931",""
"MA200-0416","25038","67","1","1.10","1.4","2023-05-13T14:29:30","120","2023/05/13","14:29:30","-15.747495710849762","35.00322483316995","2.3","17","30","64","57","-2333","23337","-7216","3","150","149.18","117.06","32.12","31.66","36.2","14.86","91756","31.13","DUALSPOT-UV-BLUE-GREEN-RED-IR","756126","715265","904334","13.434729","3.569048","0.013097","740183","900091","759975","9.538829","2.509916","-0.013600","843245","909062","813166","7.803047","2.039176","-0.019309","839272","929108","860690","6.122167","1.595282","-0.010381","723000","855654","952223","4.148239","1.028306","-0.102432","4745","5489","5758","3538","3238","3131","2918","2636","2536","2444","2336","2298","1978","1534","1388",""
"MA200-0416","25039","67","1","1.10","1.4","2023-05-13T14:30:00","120","2023/05/13","14:30:00","-15.747502744197845","35.002646499546245","2.9","17","30","64","58","-2316","24124","-1811","3","150","149.57","117.58","31.98","31.66","36.2","14.86","91844","31.13","DUALSPOT-UV-BLUE-GREEN-RED-IR","757447","716957","906702","13.561586","3.606531","0.007753","740939","901390","761213","9.614002","2.531444","0.006958","844885","911116","815133","7.861549","2.055037","-0.000564","841920","932252","863697","6.165632","1.605695","-0.031179","724782","857890","954792","4.174194","1.034754","-0.031231","6336","6883","7081","4739","4989","5079","4130","4117","4112","3708","3266","3110","3083","2816","2728",""
"MA200-0416","25040","67","1","1.10","1.4","2023-05-13T14:30:30","120","2023/05/13","14:30:30","-15.746923804283142","35.0024396663066","1.7","17","30","64","58","-4816","24164","-4872","3","150","149.39","117.50","31.88","31.66","36.2","14.86","91876","31.13","DUALSPOT-UV-BLUE-GREEN-RED-IR","757603","717693","907959","13.623434","3.625467","0.010926","741253","902168","761997","9.651874","2.543163","0.016584","844637","911168","815259","7.890130","2.062166","-0.015564","841150","931599","863134","6.185652","1.609868","-0.073859","724432","857623","954488","4.186256","1.037884","-0.014739","3091","3488","3632","2389","2724","2844","2019","1856","1798","1709","1312","1173","1434","1371","1350",""
"MA200-0416","25041","67","1","1.10","1.4","2023-05-13T14:31:00","120","2023/05/13","14:31:00","-15.746850907802582","35.002422832883894","0.2","17","30","64","57","2056","23752","-7164","3","150","150.43","117.42","33.00","31.67","36.2","14.86","91880","31.19","DUALSPOT-UV-BLUE-GREEN-RED-IR","748807","713754","905279","14.520504","3.885564","0.002849","736611","899143","760191","10.058141","2.648050","-0.012354","841339","909526","814341","8.176792","2.133756","-0.021715","838931","930411","862382","6.360900","1.650631","-0.047706","723095","856619","953596","4.272905","1.054894","-0.156280","44872","46290","46808","25649","23560","22814","20268","18009","17212","14973","12392","11487","10308","7199","6180",""
"MA200-0416","25042","67","1","1.10","1.4","2023-05-13T14:31:30","120","2023/05/13","14:31:30","-15.747292280197144","35.00251499982551","1.9","17","30","64","58","-220","24180","-5556","3","150","149.38","117.11","32.27","31.67","36.2","14.85","91848","31.19","DUALSPOT-UV-BLUE-GREEN-RED-IR","749754","715674","908219","14.748180","3.951889","0.004925","737656","901093","762064","10.173782","2.677131","-0.013199","842331","911168","815949","8.263803","2.153521","-0.037666","840725","932742","864651","6.416457","1.662850","-0.058318","724267","858180","955352","4.302244","1.060482","-0.161351","11418","12073","12313","7320","6681","6453","6168","5085","4704","4759","3799","3463","3499","2419","2065",""
"MA200-0416","25043","67","1","1.10","1.4","2023-05-13T14:32:00","120","2023/05/13","14:32:00","-15.747534573078156","35.00300366664305","2.9","17","30","64","57","2692","23932","-4756","3","150","149.63","117.06","32.57","31.68","36.3","14.90","91768","31.19","DUALSPOT-UV-BLUE-GREEN-RED-IR","747341","713730","905966","14.819578","3.973453","0.007072","735899","899303","760623","10.224482","2.689642","-0.017719","840558","909504","814535","8.302147","2.162700","-0.028003","838871","930912","862986","6.445137","1.669478","-0.045942","723009","856824","953854","4.319225","1.063786","-0.153517","3582","3889","4001","3210","2847","2718","2719","2340","2206","2457","2041","1896","2026","1417","1218",""
"MA200-0416","25044","67","1","1.10","1.4","2023-05-13T14:32:30","120","2023/05/13","14:32:30","-15.747264862060547","35.003683999646455","3.0","17","30","64","58","1080","23784","-5128","3","150","149.39","117.70","31.68","31.69","36.4","14.94","91712","31.19","DUALSPOT-UV-BLUE-GREEN-RED-IR","749101","715742","908739","14.887733","3.995121","0.013319","737243","901274","762421","10.272483","2.703434","0.008152","841892","911214","816151","8.339698","2.170885","-0.041551","841093","933536","865509","6.471458","1.675391","-0.044428","724406","858604","955904","4.337639","1.068790","0.002866","3401","4016","4242","3023","3226","3299","2648","2144","1967","2243","1872","1742","2185","2206","2212",""
"MA200-0416","25045","67","1","1.10","1.4","2023-05-13T14:33:00","120","2023/05/13","14:33:00","-15.746867537498474","35.00421616528183","3.5","17","30","64","57","736","24788","-3764","3","150","150.27","117.37","32.90","31.70","36.4","14.98","91676","31.19","DUALSPOT-UV-BLUE-GREEN-RED-IR","746816","713851","906476","14.949190","4.012966","0.003126","735624","899584","761048","10.315229","2.713997","-0.018573","840335","909760","814917","8.373738","2.180552","0.002084","838920","931298","863479","6.498496","1.681863","-0.037737","718464","851634","948187","4.352524","1.072413","-0.048650","3075","3185","3226","2700","2380","2265","2407","2439","2450","2311","1973","1856","1771","1538","1462",""
"MA200-0416","25046","67","1","1.10","1.4","2023-05-13T14:33:30","120","2023/05/13","14:33:30","-15.74652898311615","35.004987999331206","4.8","17","30","64","57","996","24344","-4880","3","150","149.33","117.58","31.74","31.70","36.4","14.96","91644","31.19","DUALSPOT-UV-BLUE-GREEN-RED-IR","748986","716369","909900","15.030027","4.035488","0.002786","736864","901440","762727","10.370072","2.728445","-0.003274","841174","910943","816060","8.413119","2.190595","-0.009621","841049","933886","865936","6.526058","1.688355","-0.031878","719602","853100","949844","4.371185","1.077191","-0.016839","4038","4167","4214","3457","3374","3344","2780","2626","2572","2351","2051","1946","2217","2102","2065",""
"MA200-0416","25047","67","1","1.10","1.4","2023-05-13T14:34:00","120","2023/05/13","14:34:00","-15.746053338050842","35.00617216574028","2.4","17","30","64","57","296","23650","-6915","3","150","149.59","117.17","32.42","31.71","36.4","14.96","91624","31.19","DUALSPOT-UV-BLUE-GREEN-RED-IR","748277","716078","909750","15.109135","4.059551","0.007911","736973","901899","763239","10.419316","2.743429","0.011435","840786","910747","815968","8.451892","2.200513","-0.013462","839632","932518","864706","6.551344","1.695161","-0.005805","719047","852557","949291","4.387466","1.080190","-0.181586","3965","4359","4503","3115","3426","3537","2747","2539","2466","2165","2106","2085","1941","1292","1080",""
"MA200-0416","25048","67","1","1.10","1.4","2023-05-13T14:34:30","120","2023/05/13","14:34:30","-15.745858371257782","35.00675566634163","1.5","17","30","64","57","3216","24072","-6468","3","150","149.33","116.91","32.42","31.71","36.3","14.95","91600","31.19","DUALSPOT-UV-BLUE-GREEN-RED-IR","747234","715940","909973","15.246376","4.098604","0.002259","736027","901445","763037","10.504346","2.764917","-0.013037","841079","911615","816885","8.517433","2.218127","-0.005129","839424","932631","864944","6.600658","1.706707","-0.040304","724086","858774","956300","4.419655","1.088089","-0.040812","6895","7075","7141","5392","4913","4742","4654","4510","4459","4232","3572","3342","3846","3403","3258",""
"MA200-0416","25049","67","1","1.10","1.4","2023-05-13T14:35:00","120","2023/05/13","14:35:00","-15.745640695095062","35.00634433235973","2.9","17","30","64","57","-1092","23448","-6312","3","150","150.30","117.62","32.69","31.72","36.3","14.94","91612","31.19","DUALSPOT-UV-BLUE-GREEN-RED-IR","738570","708565","901084","15.440449","4.153898","0.002162","735341","901306","763170","10.619763","2.796198","-0.003273","840560","911619","817096","8.602191","2.238816","-0.022877","832348","925196","858182","6.658672","1.721054","-0.026185","724063","859016","956604","4.457430","1.096332","-0.089318","9691","9936","10026","7274","7094","7030","5982","5255","4999","4948","4403","4213","4486","3523","3209",""
"MA200-0416","25050","67","1","1.10","1.4","2023-05-13T14:35:30","120","2023/05/13","14:35:30","-15.745459496974945","35.005549331661314","2.5","17","30","64","57","-2772","24124","-6468","3","150","149.59","117.04","32.55","31.72","36.3","14.93","91664","31.19","DUALSPOT-UV-BLUE-GREEN-RED-IR","744040","714549","909020","15.594759","4.197515","0.001415","734707","901107","763171","10.714299","2.820724","-0.009338","839034","910415","816149","8.677120","2.257288","-0.020876","839548","933605","866042","6.715908","1.734167","-0.046357","718874","853047","950043","4.493517","1.104019","-0.100093","7743","7871","7918","5987","5586","5443","5314","4711","4499","4906","4042","3741","4307","3299","2970",""
"MA200-0416","25051","67","1","1.10","1.4","2023-05-13T14:36:00","120","2023/05/13","14:36:00","-15.74552035331726","35.00491533288732","2.7","17","30","64","57","-296","24020","-5808","3","150","149.33","116.55","32.78","31.73","36.2","14.92","91720","31.19","DUALSPOT-UV-BLUE-GREEN-RED-IR","744519","715330","910237","15.670902","4.219539","0.002391","734754","901484","763549","10.763131","2.832491","-0.022422","838999","910608","816375","8.715684","2.267008","-0.018711","838630","932704","865295","6.742337","1.740670","-0.030099","718742","853012","950034","4.510566","1.107205","-0.177541","3837","3946","3986","3106","2661","2502","2747","2462","2361","2275","1990","1891","2043","1357","1134",""
"MA200-0416","25052","67","1","1.10","1.4","2023-05-13T14:36:30","120","2023/05/13","14:36:30","-15.745250165462494","35.004305999260396","2.3","17","30","64","57","-2744","23940","-5124","3","150","150.03","117.74","32.29","31.73","36.3","14.94","91764","31.25","DUALSPOT-UV-BLUE-GREEN-RED-IR","744185","715635","910935","15.778349","4.250063","0.002970","734378","901450","763694","10.827877","2.849781","-0.003402","835161","906803","813066","8.761842","2.278322","-0.019126","839732","934241","866768","6.774690","1.748484","-0.028263","719046","853504","950642","4.533224","1.113072","-0.017595","5360","5552","5623","4076","3969","3931","3254","2909","2787","2756","2428","2313","2688","2538","2489",""
"MA200-0416","25053","67","1","1.10","1.4","2023-05-13T14:37:00","120","2023/05/13","14:37:00","-15.7449591755867","35.00366283277981","2.3","17","30","64","57","-1368","24204","-5464","3","150","150.36","118.10","32.26","31.74","36.3","14.96","91788","31.25","DUALSPOT-UV-BLUE-GREEN-RED-IR","742285","714266","909405","15.866592","4.277548","0.010150","733383","900593","763098","10.880323","2.865034","0.007417","837981","910149","816150","8.802510","2.288574","-0.013224","836627","930952","863792","6.802254","1.755070","-0.029874","717496","851780","948739","4.549093","1.116938","-0.036772","4388","5004","5231","3292","3505","3581","2858","2638","2560","2341","2048","1946","1877","1674","1608",""
"MA200-0416","25054","67","1","1.10","1.4","2023-05-13T14:37:30","120","2023/05/13","14:37:30","-15.744895815849304","35.003158333245665","1.6","17","30","64","57","-488","24264","-4764","3","150","149.51","117.34","32.16","31.74","36.3","14.96","91792","31.25","DUALSPOT-UV-BLUE-GREEN-RED-IR","736931","709466","903521","15.955105","4.304748","0.008922","728856","895305","758671","10.933640","2.879846","0.001658","839589","912082","817990","8.842934","2.300489","0.010459","839411","934218","866871","6.831254","1.762968","-0.001272","719338","854078","951348","4.567114","1.121770","-0.006475","4430","4967","5165","3368","3414","3430","2860","3075","3151","2479","2463","2458","2145","2098","2083",""
"MA200-0416","25055","67","1","1.10","1.4","2023-05-13T14:38:00","120","2023/05/13","14:38:00","-15.744786381721497","35.00277283298783","1.5","17","30","64","57","-2158","22920","-6391","3","150","149.73","117.39","32.34","31.75","36.3","14.97","91796","31.25","DUALSPOT-UV-BLUE-GREEN-RED-IR","735275","708777","903157","16.103184","4.350166","0.008336","732877","901161","763967","11.045479","2.913189","0.009074","837632","910747","817087","8.933873","2.325672","0.000756","831561","926098","859555","6.902829","1.782774","0.000839","718661","853658","951057","4.615206","1.133655","-0.034303","7409","8247","8558","7062","7642","7849","6431","6464","6475","6117","6143","6152","5723","5133","4940",""
"MA200-0416","25056","67","1","1.10","1.4","2023-05-13T14:38:30","120","2023/05/13","14:38:30","-15.744715511798859","35.00257633300498","0.8","17","30","64","57","2025","23912","-5958","3","150","149.67","116.44","33.23","31.75","36.3","14.96","91808","31.25","DUALSPOT-UV-BLUE-GREEN-RED-IR","734380","708331","902811","16.212915","4.384584","0.007368","733604","902436","765168","11.125835","2.935732","-0.002133","836868","910227","816674","9.001489","2.345341","0.002819","838180","933739","866735","6.956865","1.796960","-0.017421","718099","853142","950523","4.651031","1.144028","0.004053","5535","6083","6286","5116","5028","4997","4821","4913","4946","4656","4282","4152","4298","4360","4380",""
"MA200-0416","25057","67","1","1.10","1.4","2023-05-13T14:39:00","120","2023/05/13","14:39:00","-15.744813859462738","35.00292266625911","1.5","17","30","64","57","372","24288","-4892","3","150","150.58","118.12","32.46","31.78","36.3","14.99","91788","31.25","DUALSPOT-UV-BLUE-GREEN-RED-IR","739933","714113","910464","16.303770","4.411878","0.006955","731903","900713","763829","11.185628","2.952385","0.001620","835835","909405","816068","9.048606","2.358067","-0.002614","836575","932193","865375","6.991212","1.805078","-0.033223","717096","852095","949413","4.673994","1.147999","-0.206638","4517","4939","5095","3752","3803","3821","3311","3255","3235","2917","2509","2367","2715","1709","1381",""
"MA200-0416","25058","67","1","1.10","1.4","2023-05-13T14:39:30","120","2023/05/13","14:39:30","-15.744903206825256","35.00339916627854","2.2","16","30","64","57","-296","24124","-5784","3","150","149.33","117.06","32.26","31.78","36.3","15.00","91792","31.25","DUALSPOT-UV-BLUE-GREEN-RED-IR","733840","708677","903804","16.398260","4.442337","0.011512","732358","901700","764822","11.250622","2.970308","0.000079","833486","907171","814138","9.099246","2.370918","-0.013179","831815","927135","860764","7.029640","1.816355","0.011437","718647","854116","951714","4.701999","1.156434","0.023308","4740","5545","5844","4115","4118","4119","3591","3307","3206","3293","3507","3581","3341","3652","3753",""
"MA200-0416","25059","67","1","1.10","1.4","2023-05-13T14:40:00","120","2023/05/13","14:40:00","-15.745148539543152","35.00417233305052","3.0","16","30","64","57","1512","23676","-5736","3","150","150.49","117.84","32.65","31.79","36.4","15.04","91772","31.31","DUALSPOT-UV-BLUE-GREEN-RED-IR","734207","709576","905190","16.494843","4.469461","0.001122","732307","902030","765235","11.309008","2.986490","0.000053","833995","908062","815060","9.145654","2.383202","-0.007004","832017","927619","861323","7.063753","1.824050","-0.047282","719056","854733","952471","4.719490","1.160088","-0.102436","4813","4880","4904","3672","3674","3675","3269","3123","3072","2904","2364","2177","2073","1563","1397",""
"MA200-0416","25060","67","1","1.10","1.4","2023-05-13T14:40:30","120","2023/05/13","14:40:30","-15.745489954948425","35.00487666623667","2.0","16","30","64","56","1188","24228","-4272","3","150","150.06","118.22","31.84","31.80","36.4","15.05","91720","31.31","DUALSPOT-UV-BLUE-GREEN-RED-IR","733479","709463","905393","16.625198","4.507330","0.005856","731821","901922","765295","11.386821","3.007240","-0.001196","832792","907094","814319","9.202881","2.398121","-0.004918","831872","927713","861462","7.103703","1.833218","-0.035081","718857","854685","952439","4.746656","1.166410","-0.046326","6476","6985","7174","4879","4831","4813","4018","3890","3844","3390","2888","2713","3210","2773","2631",""
"MA200-0416","25061","67","1","1.10","1.4","2023-05-13T14:41:00","120","2023/05/13","14:41:00","-15.745465636253357","35.00563383195549","2.7","16","30","64","57","2560","24276","-5108","3","150","149.99","117.69","32.29","31.81","36.4","15.06","91652","31.31","DUALSPOT-UV-BLUE-GREEN-RED-IR","684453","662461","845596","16.707594","4.530910","0.003336","726308","895483","759970","11.441719","3.023481","0.008396","833382","908045","815262","9.245659","2.409100","-0.010365","832244","928346","862116","7.135878","1.841968","-0.001695","719045","855038","952911","4.766144","1.170715","-0.073094","4112","4288","4354","3457","3728","3825","3017","2822","2753","2742","2718","2709","2313","1862","1715",""
"MA200-0416","25062","67","1","1.10","1.4","2023-05-13T14:41:30","120","2023/05/13","14:41:30","-15.745647013187408","35.0064491648227","2.9","16","30","64","57","1428","24416","-5736","3","150","149.57","117.18","32.38","31.82","36.4","15.07","91604","31.31","DUALSPOT-UV-BLUE-GREEN-RED-IR","732490","709730","906303","16.853124","4.572490","0.002642","726305","896105","760651","11.533790","3.048187","-0.003550","832272","907288","814741","9.313316","2.427536","-0.002061","831592","927968","861881","7.185135","1.854115","-0.023593","718729","854857","952754","4.799762","1.177502","-0.115658","7294","7542","7634","5824","5656","5595","4793","4726","4703","4217","3763","3605","4007","2928","2577",""
"MA200-0416","25063","67","1","1.10","1.4","2023-05-13T14:42:00","120","2023/05/13","14:42:00","-15.745686173439026","35.00715299881995","3.1","16","30","64","57","-479","24192","-4712","3","150","149.51","117.38","32.12","31.83","36.4","15.09","91580","31.31","DUALSPOT-UV-BLUE-GREEN-RED-IR","732021","709985","906963","16.993582","4.610780","-0.000311","731698","903311","766895","11.616638","3.068382","-0.015010","831925","907366","814916","9.378410","2.441972","-0.036748","831135","927778","861791","7.228792","1.863688","-0.050601","718727","855061","953059","4.830681","1.185728","-0.007932","7028","7001","6991","5232","4660","4455","4604","3731","3423","3731","2989","2732","3679","3577","3543",""
"MA200-0416","25064","67","1","1.10","1.4","2023-05-13T14:42:30","120","2023/05/13","14:42:30","-15.745529353618622","35.00782433152199","4.4","16","30","64","57","152","24316","-4438","3","150","149.57","117.46","32.10","31.84","36.5","15.13","91556","31.38","DUALSPOT-UV-BLUE-GREEN-RED-IR","731375","709950","907243","17.108102","4.644104","0.004765","725997","896773","761500","11.685327","3.085147","-0.014547","831289","907051","814746","9.430266","2.453851","-0.029693","831199","928181","862235","7.267820","1.872050","-0.056464","718212","854607","952650","4.855732","1.191348","-0.064113","5726","6096","6234","4335","3871","3705","3665","3072","2863","3333","2613","2363","2979","2445","2271",""
"MA200-0416","25065","67","1","1.10","1.4","2023-05-13T14:43:00","120","2023/05/13","14:43:00","-15.74529653787613","35.00870566535741","2.2","16","30","64","57","-220","24024","-6164","3","150","149.47","117.10","32.37","31.85","36.6","15.17","91536","31.38","DUALSPOT-UV-BLUE-GREEN-RED-IR","730842","710003","907576","17.228622","4.678093","0.001569","725578","896732","761642","11.764597","3.106851","-0.001114","831060","907199","814997","9.494007","2.469760","-0.015918","831122","928424","862543","7.317797","1.883732","-0.035862","718063","854662","952758","4.890413","1.198870","-0.081604","6045","6167","6213","5018","4970","4953","4519","4080","3925","4281","3620","3391","4137","3246","2957",""
"MA200-0416","25066","67","1","1.10","1.4","2023-05-13T14:43:30","120","2023/05/13","14:43:30","-15.745124399662018","35.009276831522584","2.3","15","30","64","57","136","23924","-4520","3","150","150.03","117.54","32.49","31.86","36.7","15.23","91512","31.38","DUALSPOT-UV-BLUE-GREEN-RED-IR","730742","710396","908379","17.327132","4.706976","0.004450","725554","897130","762113","11.827540","3.122532","-0.013087","831299","907794","815599","9.541661","2.480853","-0.028393","831788","929421","863527","7.352824","1.891839","-0.038137","718791","855716","953968","4.913608","1.202962","-0.187047","4922","5222","5333","3969","3578","3437","3365","2834","2648","2989","2503","2334","2756","1759","1436",""
"MA200-0416","25067","67","1","1.10","1.4","2023-05-13T14:44:00","120","2023/05/13","14:44:00","-15.744960010051727","35.00976949837059","1.8","15","30","64","56","900","24468","-3496","3","150","149.76","117.10","32.66","31.87","36.7","15.26","91488","31.44","DUALSPOT-UV-BLUE-GREEN-RED-IR","730754","710796","909142","17.413062","4.732937","0.005893","725884","897836","762806","11.882305","3.137762","-0.000325","830894","907645","815571","9.583564","2.490878","-0.024806","832159","930033","864165","7.383321","1.898347","-0.062561","718501","855474","953734","4.933918","1.207281","-0.093030","4309","4668","4802","3466","3457","3453","2970","2548","2400","2612","1999","1787","2422","1847","1660",""
"MA200-0416","25068","67","1","1.10","1.4","2023-05-13T14:44:30","120","2023/05/13","14:44:30","-15.744876325130463","35.01021749805659","1.2","15","30","64","57","-412","24136","-3148","3","150","150.14","117.09","33.06","31.89","36.9","15.33","91464","31.50","DUALSPOT-UV-BLUE-GREEN-RED-IR","730690","711025","909568","17.471030","4.751552","0.009085","725785","897950","762961","11.921233","3.148126","-0.007049","831437","908466","816358","9.615971","2.500332","0.004462","832659","930759","864894","7.407389","1.905006","-0.003786","719008","856192","954568","4.948869","1.210990","-0.038641","2907","3307","3456","2464","2324","2273","2297","2374","2400","2062","2020","2006","1783","1567","1497",""
"MA200-0416","25069","67","1","1.10","1.4","2023-05-13T14:45:00","120","2023/05/13","14:45:00","-15.744780957698822","35.010563496500254","1.9","15","30","64","56","-412","23576","-6747","3","150","149.58","116.63","32.95","31.90","37.0","15.40","91448","31.50","DUALSPOT-UV-BLUE-GREEN-RED-IR","729838","710487","909067","17.529506","4.769441","0.005815","725110","897427","762621","11.960917","3.158867","-0.005081","830838","908013","816043","9.648091","2.508193","-0.022893","831612","929751","864026","7.432328","1.910424","-0.060781","718676","855889","954261","4.965255","1.214538","-0.090270","2945","3188","3279","2522","2416","2377","2286","1980","1872","2145","1649","1477","1962","1503","1355",""
"MA200-0416","25070","67","1","1.10","1.4","2023-05-13T14:45:30","120","2023/05/13","14:45:30","-15.744665503501892","35.01096482947469","2.2","15","30","64","56","1719","23700","-5940","3","150","150.28","117.50","32.78","31.93","37.1","15.47","91420","31.56","DUALSPOT-UV-BLUE-GREEN-RED-IR","725065","706139","903629","17.589386","4.787151","0.004337","726356","899220","764248","12.000903","3.169309","-0.007926","828443","905605","813926","9.680021","2.515631","-0.029627","827311","925120","859731","7.454711","1.914387","-0.129606","715713","852481","950491","4.981086","1.218579","-0.025493","2993","3173","3240","2522","2361","2303","2256","1883","1753","1911","1213","972","1882","1721","1670",""
"MA200-0416","25071","67","1","1.10","1.4","2023-05-13T14:46:00","120","2023/05/13","14:46:00","-15.744415640830994","35.011453163810074","3.2","15","30","64","56","372","23556","-5052","3","150","150.78","117.97","32.81","31.95","37.1","15.50","91396","31.56","DUALSPOT-UV-BLUE-GREEN-RED-IR","723278","704809","902175","17.670516","4.812326","0.007758","725598","898611","763810","12.048398","3.183550","0.007949","830775","908412","816561","9.716965","2.526343","0.005579","832465","931095","865380","7.482984","1.922864","0.012662","718667","856131","954609","5.000557","1.223935","-0.002972","4039","4506","4681","2984","3217","3300","2599","2710","2748","2404","2591","2656","2305","2280","2271",""
"MA200-0416","25072","67","1","1.10","1.4","2023-05-13T14:46:30","120","2023/05/13","14:46:30","-15.744032144546509","35.01197316404432","1.7","15","30","64","56","176","24768","-3336","3","150","150.06","117.30","32.77","31.97","37.2","15.55","91384","31.63","DUALSPOT-UV-BLUE-GREEN-RED-IR","725120","707211","905641","17.794796","4.852602","0.010137","727320","901295","766268","12.132878","3.208095","0.004257","828789","906676","815157","9.784276","2.544987","-0.001185","827598","926017","860752","7.536602","1.935124","-0.042863","715698","852811","950997","5.036617","1.232468","-0.050390","6223","7219","7592","5339","5553","5630","4764","4723","4709","4586","3753","3466","4294","3638","3425",""
"MA200-0416","25073","67","1","1.10","1.4","2023-05-13T14:47:00","120","2023/05/13","14:47:00","-15.74383133649826","35.01239099726081","2.1","15","30","64","56","1696","25412","-3056","3","150","150.49","116.63","33.86","31.99","37.2","15.57","91364","31.63","DUALSPOT-UV-BLUE-GREEN-RED-IR","723867","706388","904820","17.881500","4.879928","0.005880","720545","893183","759494","12.182923","3.221708","-0.007716","827751","905791","814417","9.824015","2.554249","-0.037004","826994","925510","860362","7.564328","1.941985","-0.032808","715315","852471","950690","5.057813","1.237482","-0.064324","4366","4739","4879","3181","2980","2907","2828","2270","2074","2385","2032","1910","2538","2068","1915",""
"MA200-0416","25074","67","1","1.10","1.4","2023-05-13T14:47:30","120","2023/05/13","14:47:30","-15.743710219860077","35.01287816464901","2.4","15","30","64","56","-368","24016","-6380","3","150","149.51","116.98","32.52","32.01","37.3","15.61","91336","31.69","DUALSPOT-UV-BLUE-GREEN-RED-IR","725892","708686","907998","17.951384","4.902008","0.008809","721945","895222","761319","12.227185","3.235399","0.010869","829155","907563","816087","9.857142","2.564364","0.011899","830003","929075","863707","7.588922","1.948773","-0.001264","716889","854475","952956","5.073911","1.242612","0.032028","3508","3987","4167","2804","3120","3234","2351","2582","2663","2109","2094","2089","1922","2203","2295",""
"MA200-0416","25075","67","1","1.10","1.4","2023-05-13T14:48:00","120","2023/05/13","14:48:00","-15.743625402450562","35.01350183226168","2.1","15","30","64","56","-712","22748","-8780","3","150","151.11","118.06","33.05","32.03","37.3","15.66","91324","31.69","DUALSPOT-UV-BLUE-GREEN-RED-IR","724286","707593","906800","18.035328","4.927532","0.005878","720674","893981","760388","12.279768","3.249967","-0.001156","828009","906627","815333","9.897054","2.573591","-0.031099","828697","927830","862616","7.619888","1.956343","-0.026977","715995","853543","951949","5.094352","1.245909","-0.250907","4176","4536","4671","3301","3267","3255","2806","2317","2146","2631","2297","2182","2418","1393","1061",""
"MA200-0416","25076","67","1","1.10","1.4","2023-05-13T14:48:30","120","2023/05/13","14:48:30","-15.743559718132019","35.01400449872017","1.4","15","30","64","56","-2384","25084","-4300","3","150","149.49","117.35","32.14","32.07","37.4","15.70","91336","31.75","DUALSPOT-UV-BLUE-GREEN-RED-IR","724454","709717","910480","18.426686","5.035543","0.000575","722132","897179","763471","12.484801","3.298627","-0.017737","829478","909291","818001","10.049665","2.608066","-0.030822","830200","930281","865107","7.727947","1.977896","-0.074426","717041","855251","954014","5.163969","1.260949","-0.075074","19588","19740","19797","12952","11224","10604","10797","8906","8243","9238","6728","5865","8287","6537","5972",""
"MA200-0416","25077","67","1","1.10","1.4","2023-05-13T14:49:00","120","2023/05/13","14:49:00","-15.74361664056778","35.014374998398125","1.5","15","30","64","56","-21","24408","-6045","3","150","150.69","117.38","33.31","32.09","37.3","15.68","91352","31.81","DUALSPOT-UV-BLUE-GREEN-RED-IR","718481","704086","903399","18.476310","5.051162","0.007074","722754","898161","764392","12.522592","3.310918","0.013244","825646","905211","814405","10.078449","2.616924","0.010171","831511","931885","866612","7.748482","1.983719","-0.000089","717880","856352","955259","5.180292","1.264617","-0.073230","2483","2754","2856","2386","2735","2861","2035","2207","2268","1755","1754","1753","1942","1538","1408",""
"MA200-0416","25078","67","1","1.10","1.4","2023-05-13T14:49:30","120","2023/05/13","14:49:30","-15.743246972560883","35.015064330771565","2.2","15","30","64","56","-236","24564","-3076","3","150","149.90","116.95","32.95","32.12","37.2","15.69","91344","31.81","DUALSPOT-UV-BLUE-GREEN-RED-IR","718345","704467","904132","18.570388","5.077625","-0.000127","722907","898852","765103","12.587452","3.327156","-0.014194","825103","905055","814371","10.130353","2.629775","-0.019339","831670","932397","867220","7.788944","1.993388","-0.032956","717740","856384","955354","5.207531","1.271040","-0.052839","4725","4717","4714","4111","3653","3488","3684","3237","3081","3471","2943","2762","3253","2723","2551",""
"MA200-0416","25079","67","1","1.10","1.4","2023-05-13T14:50:00","120","2023/05/13","14:50:00","-15.743669509887695","35.01587933115661","3.7","15","30","64","56","-863","24176","-4736","3","150","149.53","117.00","32.52","32.15","37.1","15.68","91336","31.81","DUALSPOT-UV-BLUE-GREEN-RED-IR","717852","704392","904268","18.656774","5.102398","0.002237","722383","898577","765003","12.648024","3.343301","-0.004676","825255","905541","814897","10.179264","2.641314","-0.025219","825283","925454","860814","7.828936","2.003705","-0.013669","713605","851606","950068","5.235252","1.277078","-0.076630","4336","4473","4525","3837","3680","3623","3470","2945","2761","3429","3182","3097","3309","2593","2362",""
"MA200-0416","25080","67","1","1.10","1.4","2023-05-13T14:50:30","120","2023/05/13","14:50:30","-15.744065821170807","35.01645749807358","2.2","15","30","64","56","720","24212","-6108","3","150","149.34","116.79","32.54","32.17","37.0","15.62","91328","31.88","DUALSPOT-UV-BLUE-GREEN-RED-IR","717533","705036","905684","18.859996","5.168190","0.009667","716927","892716","760372","12.806520","3.392923","0.011239","824691","905739","815385","10.312760","2.681410","0.009238","824412","925203","860835","7.934433","2.032774","-0.001910","717927","857271","956579","5.309255","1.295486","-0.031155","10220","11874","12498","10060","11303","11751","9489","10229","10488","9062","8961","8927","8851","7901","7595",""
"MA200-0416","25081","67","1","1.10","1.4","2023-05-13T14:51:00","120","2023/05/13","14:51:00","-15.744202256202698","35.01666449569166","0.5","15","30","64","56","8","24312","-4408","3","150","150.09","117.50","32.59","32.19","36.9","15.61","91324","31.94","DUALSPOT-UV-BLUE-GREEN-RED-IR","717816","705525","906490","18.908274","5.184452","0.012060","716860","892840","760567","12.841167","3.401470","-0.013802","824938","906198","815882","10.340769","2.687543","-0.038451","825746","926846","862380","7.955322","2.037125","-0.063249","713741","852338","951128","5.324630","1.301379","0.063037","2413","2930","3126","2185","1944","1856","1978","1562","1415","1783","1339","1186","1827","2525","2751",""
"MA200-0416","25082","67","1","1.10","1.4","2023-05-13T14:51:30","120","2023/05/13","14:51:30","-15.744435667991638","35.016989497467875","1.4","15","30","64","56","-188","24003","-6288","3","150","150.29","117.54","32.75","32.23","36.9","15.66","91308","31.94","DUALSPOT-UV-BLUE-GREEN-RED-IR","717679","705880","907138","18.994516","5.208837","0.001051","717073","893588","761321","12.903235","3.417253","-0.010453","825595","907308","816985","10.391803","2.700829","-0.009372","826640","928166","863698","7.994372","2.044778","-0.082894","714430","853359","952326","5.351701","1.306860","-0.105814","4309","4373","4397","3914","3572","3449","3604","3367","3284","3333","2344","2004","3217","2338","2054",""
"MA200-0416","25083","67","1","1.10","1.4","2023-05-13T14:52:00","120","2023/05/13","14:52:00","-15.7447230219841","35.017379665747285","2.6","15","30","64","56","652","24068","-6488","3","150","150.05","117.16","32.89","32.26","36.8","15.63","91296","32.00","DUALSPOT-UV-BLUE-GREEN-RED-IR","718930","707322","909137","19.048856","5.227482","0.012309","717580","894421","762099","12.939271","3.428442","0.009744","825335","907192","816924","10.421521","2.708220","-0.017483","827530","929294","864781","8.017479","2.051031","-0.006359","714327","853294","952315","5.368513","1.311954","0.017695","2724","3329","3558","2280","2521","2609","2105","1865","1781","1978","1907","1882","2004","2163","2214",""
"MA200-0416","25084","67","1","1.10","1.4","2023-05-13T14:52:30","120","2023/05/13","14:52:30","-15.745081007480621","35.01794949546456","1.5","15","30","64","56","254","23970","-5070","3","150","150.16","117.30","32.86","32.29","36.8","15.66","91268","32.00","DUALSPOT-UV-BLUE-GREEN-RED-IR","712319","701165","901390","19.113620","5.245411","-0.000856","717953","895211","762873","12.982679","3.437954","-0.032402","822719","904553","814592","10.455162","2.715200","-0.051552","828176","930248","865711","8.042160","2.054768","-0.200349","715099","854377","953549","5.386076","1.315668","-0.089130","3242","3205","3190","2743","2146","1930","2380","1763","1547","2110","1141","808","2091","1578","1413",""
"MA200-0416","25085","67","1","1.10","1.4","2023-05-13T14:53:00","120","2023/05/13","14:53:00","-15.745162189006805","35.01838416233659","1.9","15","30","64","56","-188","24012","-6604","3","150","149.51","116.43","33.08","32.32","36.8","15.68","91268","32.06","DUALSPOT-UV-BLUE-GREEN-RED-IR","712201","701767","902593","19.248936","5.286949","0.005190","717686","895558","763370","13.076802","3.465927","0.004513","821588","903869","814184","10.530055","2.736414","-0.000386","828484","931016","866566","8.099620","2.069312","-0.021198","714876","854376","953669","5.427013","1.326313","-0.023272","6826","7376","7584","5993","6269","6368","5340","5324","5318","4951","4411","4225","4911","4495","4361",""
"MA200-0416","25086","67","1","1.10","1.4","2023-05-13T14:53:30","120","2023/05/13","14:53:30","-15.74510282278061","35.01871982589364","0.7","15","30","64","55","1123","24107","-6453","3","150","150.14","117.04","33.10","32.34","36.7","15.67","91272","32.06","DUALSPOT-UV-BLUE-GREEN-RED-IR","712825","702890","904299","19.364274","5.322708","0.006052","718302","896749","764520","13.154163","3.486097","-0.009036","822783","905561","815806","10.593808","2.751523","-0.026445","821926","924014","860118","8.149954","2.080732","-0.044355","715627","855496","954942","5.459095","1.332698","-0.118019","5788","6345","6556","4899","4517","4379","4522","3789","3532","4314","3461","3168","3829","2694","2328",""
"MA200-0416","25087","67","1","1.10","1.4","2023-05-13T14:54:00","120","2023/05/13","14:54:00","-15.745063841342926","35.01925132982433","2.9","15","30","64","55","92","24276","-5012","3","150","150.09","117.31","32.78","32.38","36.6","15.65","91260","32.13","DUALSPOT-UV-BLUE-GREEN-RED-IR","713193","703558","905358","19.431030","5.344547","0.009812","718677","897485","765262","13.197512","3.498315","0.000888","822314","905243","815621","10.627706","2.761059","0.000861","822606","924933","861049","8.174268","2.086800","-0.020506","715629","855591","955087","5.476530","1.337596","0.001287","3342","3913","4129","2739","2763","2771","2399","2415","2421","2079","1857","1780","2076","2087","2090",""
"MA200-0416","25088","67","1","1.10","1.4","2023-05-13T14:54:30","120","2023/05/13","14:54:30","-15.745344698429108","35.01996382698417","3.1","15","30","64","55","3387","24112","-6700","3","150","150.11","117.35","32.76","32.41","36.5","15.64","91232","32.13","DUALSPOT-UV-BLUE-GREEN-RED-IR","711465","703409","906131","19.754674","5.446563","0.007656","713036","891716","760810","13.402431","3.558649","0.005162","821431","905349","816047","10.786969","2.805436","-0.000246","821521","924472","860884","8.290222","2.117043","-0.011686","715205","855500","955178","5.545709","1.355496","-0.019349","16198","18289","19085","12945","13651","13907","11267","11245","11237","9913","9261","9037","8235","7632","7437",""
"MA200-0416","25089","67","1","1.10","1.4","2023-05-13T14:55:00","120","2023/05/13","14:55:00","-15.745952725410461","35.0209453292191","4.4","15","30","64","55","-1134","24688","-3042","3","150","149.96","117.54","32.42","32.44","36.3","15.59","91224","32.19","DUALSPOT-UV-BLUE-GREEN-RED-IR","712039","704270","907358","19.816974","5.465959","0.007615","712999","891936","761083","13.443099","3.570444","0.004882","821662","905781","816509","10.818000","2.811688","-0.052934","822857","926140","862467","8.312760","2.121323","-0.086507","711234","850884","950062","5.563129","1.358676","-0.145470","3113","3513","3666","2564","2697","2745","2191","1601","1393","1923","1324","1119","2070","1370","1144",""
"MA200-0416","25090","67","1","1.10","1.4","2023-05-13T14:55:30","120","2023/05/13","14:55:30","-15.746412634849548","35.0217003300786","2.6","15","30","72","55","-2464","24496","-4076","3","150","149.96","117.18","32.78","32.46","36.2","15.55","91268","32.19","DUALSPOT-UV-BLUE-GREEN-RED-IR","712414","704881","908334","19.867404","5.480970","0.004097","713607","892929","762007","13.476529","3.580427","0.006255","767583","846332","762960","10.844828","2.819377","0.002961","823066","926510","862859","8.331254","2.125990","-0.018154","711887","851764","951079","5.577286","1.362562","-0.004578","2527","2689","2751","2114","2257","2309","1900","1947","1963","1583","1428","1375","1687","1655","1645",""
"MA200-0416","25091","67","1","1.10","1.4","2023-05-13T14:56:00","120","2023/05/13","14:56:00","-15.74675327539444","35.022567162290215","3.8","15","30","64","55","-324","24044","-4364","3","150","150.11","117.24","32.88","32.49","36.0","15.49","91308","32.19","DUALSPOT-UV-BLUE-GREEN-RED-IR","712392","705182","908864","19.926968","5.499649","0.007045","713487","892972","762100","13.513041","3.591150","0.004478","818661","902834","813974","10.871727","2.825874","-0.021207","823282","926892","863250","8.349787","2.130717","-0.016573","711978","851941","951305","5.590204","1.366530","0.020052","2984","3337","3471","2308","2417","2457","1904","1640","1548","1586","1442","1393","1539","1686","1733",""
"MA200-0416","25092","67","1","1.10","1.4","2023-05-13T14:56:30","120","2023/05/13","14:56:30","-15.746603786945343","35.02307782880962","2.4","15","30","64","55","-959","23508","-7068","3","150","150.41","117.04","33.37","32.52","35.8","15.42","91324","32.19","DUALSPOT-UV-BLUE-GREEN-RED-IR","711579","704543","908190","19.974664","5.516197","0.011545","713098","892670","761893","13.542356","3.598190","-0.020204","821149","905741","816625","10.894133","2.831996","-0.005473","822673","926302","862692","8.364900","2.132397","-0.539226","715245","855921","955761","5.602020","1.369126","-0.077819","2393","2912","3111","1856","1563","1457","1589","1523","1499","1295","505","235","1410","1086","982",""
"MA200-0416","25093","67","1","1.10","1.4","2023-05-13T14:57:00","120","2023/05/13","14:57:00","-15.746219873428345","35.02356082946062","2.7","15","30","64","55","-480","24691","-5633","3","150","150.56","117.00","33.56","32.54","35.6","15.36","91336","32.25","DUALSPOT-UV-BLUE-GREEN-RED-IR","712469","705594","909622","20.008018","5.526333","0.003796","713551","893350","762547","13.564405","3.603977","-0.009624","821920","906726","817523","10.910131","2.835160","-0.066200","823496","927330","863692","8.377977","2.133714","-0.802884","711458","851451","950781","5.612674","1.371668","-0.050941","1674","1774","1812","1397","1278","1235","1135","782","659","1121","393","145","1272","1058","989",""
"MA200-0416","25094","67","1","1.10","1.4","2023-05-13T14:57:30","120","2023/05/13","14:57:30","-15.745925843715668","35.02405249513686","2.0","15","30","64","55","-350","23104","-7445","3","150","149.98","117.24","32.73","32.57","35.6","15.38","91336","32.25","DUALSPOT-UV-BLUE-GREEN-RED-IR","711793","705086","909054","20.040034","5.535534","0.001949","713189","893082","762345","13.586613","3.608282","-0.052515","822495","907496","818240","10.927135","2.837360","-0.241003","824618","928721","864978","8.391368","2.136701","-0.044058","711979","852144","951594","5.621282","1.372413","-1.866148","1603","1651","1669","1404","974","819","1204","558","331","1145","915","836","1025","317","89",""
"MA200-0416","25095","67","1","1.10","1.4","2023-05-13T14:58:00","120","2023/05/13","14:58:00","-15.745701014995575","35.02448299527168","2.3","15","30","64","55","1865","24176","-4196","3","150","150.69","117.33","33.36","32.59","35.5","15.37","91320","32.25","DUALSPOT-UV-BLUE-GREEN-RED-IR","712646","706128","910504","20.077382","5.547428","0.007091","713955","894192","763365","13.610431","3.615291","0.003351","818584","903287","814482","10.948027","2.843064","-0.005177","823860","928004","864335","8.406275","2.139467","-0.103844","711435","851600","950994","5.632864","1.375528","-0.013684","1869","2094","2180","1504","1557","1576","1478","1419","1399","1274","831","680","1378","1304","1280",""
"MA200-0416","25096","67","1","1.10","1.4","2023-05-13T14:58:30","120","2023/05/13","14:58:30","-15.745807468891144","35.0247551612556","0.1","15","30","64","55","1404","24125","-2412","3","150","149.76","117.06","32.70","32.61","35.5","15.37","91308","32.31","DUALSPOT-UV-BLUE-GREEN-RED-IR","712614","706421","911018","20.141946","5.562046","-0.017602","714044","894603","763777","13.653214","3.624242","-0.037994","817796","902627","813931","10.978133","2.848058","-0.110599","824514","928871","865189","8.427362","2.142530","-0.214167","711415","851664","951122","5.649168","1.377725","-0.383961","3239","2625","2391","2709","2029","1783","2135","1268","964","1807","939","644","1945","938","613",""
"MA200-0416","25097","67","1","1.10","1.4","2023-05-13T14:59:00","120","2023/05/13","14:59:00","-15.742955565452576","35.02547249570489","18.5","16","30","64","55","-1904","23641","-5958","3","150","150.68","117.31","33.37","32.64","35.5","15.39","91368","32.31","DUALSPOT-UV-BLUE-GREEN-RED-IR","705241","700216","903586","20.343446","5.616867","-0.003145","713613","895014","764419","13.788269","3.660059","-0.007361","817213","902747","814294","11.083604","2.875948","-0.009476","824518","929454","865911","8.503908","2.161121","-0.028665","711263","851843","951469","5.705412","1.391745","-0.034276","10088","9649","9482","8534","7956","7748","7464","6938","6754","6546","5589","5263","6697","5869","5602",""
"MA200-0416","25098","67","1","1.10","1.4","2023-05-13T14:59:30","120","2023/05/13","14:59:30","-15.739708364009857","35.024157997220755","15.3","16","30","64","55","-2016","24291","-5112","3","150","150.49","117.46","33.03","32.66","35.3","15.34","91520","32.31","DUALSPOT-UV-BLUE-GREEN-RED-IR","703805","700027","904040","20.593136","5.696758","0.007775","712372","894747","764677","13.992956","3.722484","0.007386","815870","902412","814421","11.258495","2.926784","0.003873","824030","929899","866661","8.645703","2.201515","0.002002","710789","851957","951867","5.807163","1.420667","0.002442","12485","14207","14865","12918","14011","14407","12361","12778","12924","12111","12270","12324","12101","12232","12275",""
"MA200-0416","25099","67","1","1.10","1.4","2023-05-13T15:00:00","120","2023/05/13","15:00:00","-15.737253189086914","35.02314482815564","7.8","16","30","64","55","-2312","24056","-6204","3","150","150.09","117.06","33.03","32.68","35.2","15.30","91600","32.31","DUALSPOT-UV-BLUE-GREEN-RED-IR","694878","695690","901338","21.429598","5.971967","0.008734","704633","890490","763111","14.744105","3.956516","0.008458","808124","898830","813122","11.934062","3.129440","0.006610","815973","925287","864109","9.229153","2.370953","0.004105","705702","849066","950018","6.254831","1.547366","0.000650","41968","48939","51632","47567","52526","54345","47911","50938","52014","50003","51466","51972","53421","53585","53639",""
"MA200-0416","25100","67","1","1.10","1.4","2023-05-13T15:00:30","120","2023/05/13","15:00:30","-15.737238824367523","35.02319249510765","15.3","16","30","64","55","2228","24032","-5176","3","150","149.76","117.06","32.70","32.70","35.1","15.29","91560","32.31","DUALSPOT-UV-BLUE-GREEN-RED-IR","694460","697570","905229","22.020936","6.162044","0.007860","703947","892155","765493","15.251872","4.112310","0.007787","807702","900683","815684","12.386667","3.264594","0.006920","808825","919235","859240","9.616798","2.482480","0.004039","706068","850910","952728","6.546444","1.628438","-0.000963","29669","34142","35880","32155","35320","36488","32099","34315","35108","33222","34218","34565","34798","34634","34580",""
"MA200-0416","25101","67","1","1.10","1.4","2023-05-13T15:01:00","120","2023/05/13","15:01:00","-15.740339457988739","35.02502833120525","14.2","16","30","64","55","128","24096","-4468","3","150","150.11","116.82","33.29","32.71","35.0","15.25","91444","32.31","DUALSPOT-UV-BLUE-GREEN-RED-IR","692020","696904","905437","22.440498","6.298004","0.007128","701792","891394","765593","15.607045","4.219145","0.004520","805106","899598","815395","12.701910","3.357106","0.003050","807485","919280","859850","9.885480","2.558028","-0.001868","704833","850571","952802","6.746090","1.681809","-0.013354","21095","23985","25112","22539","23787","24250","22404","23068","23307","23075","22765","22657","23874","22393","21901",""
"MA200-0416","25102","67","1","1.10","1.4","2023-05-13T15:01:30","120","2023/05/13","15:01:30","-15.742693603038788","35.025624331086874","15.6","16","30","64","55","2068","23900","-5672","3","150","150.03","116.87","33.16","32.73","34.9","15.21","91356","32.31","DUALSPOT-UV-BLUE-GREEN-RED-IR","691023","696630","905611","22.548482","6.334760","0.009633","700879","891064","765637","15.698128","4.248966","0.011092","804249","899365","815454","12.779339","3.380799","0.007533","806477","918810","859628","9.950588","2.576184","-0.002405","703892","849886","952238","6.795664","1.694802","-0.016672","5427","6510","6933","5777","6666","6995","5500","5931","6086","5589","5492","5458","5925","5473","5322",""
"MA200-0416","25103","67","1","1.10","1.4","2023-05-13T15:02:00","120","2023/05/13","15:02:00","-15.747098803520203","35.024617997929454","16.7","16","30","64","55","1400","24045","-5816","3","150","149.47","116.42","33.05","32.75","34.7","15.15","91128","32.38","DUALSPOT-UV-BLUE-GREEN-RED-IR","685668","693589","903119","23.013180","6.487943","0.007962","696598","888251","764268","16.093889","4.373050","0.007788","799626","896565","813865","13.125168","3.484857","0.005740","809754","924617","865885","10.241743","2.661132","0.003520","701060","847942","950637","7.011867","1.755079","-0.003507","23444","27221","28704","25200","27830","28811","24661","26137","26671","25090","25785","26028","25942","25475","25319",""
"MA200-0416","25104","67","1","1.10","1.4","2023-05-13T15:02:30","120","2023/05/13","15:02:30","-15.750945508480072","35.02392182871699","12.8","16","30","64","55","1624","24024","-6479","3","150","150.62","117.02","33.60","32.76","34.5","15.06","90952","32.31","DUALSPOT-UV-BLUE-GREEN-RED-IR","681983","693222","904876","23.832478","6.760233","0.007565","693039","887629","765284","16.813632","4.600496","0.007239","796669","896845","815577","13.773095","3.683662","0.006225","800872","917737","860740","10.801593","2.825986","0.003104","699972","848942","952828","7.434479","1.875190","-0.001838","41121","47600","50166","45594","50184","51913","45967","49125","50278","47996","49226","49662","50448","49939","49767",""
"MA200-0416","25105","67","1","1.10","1.4","2023-05-13T15:03:00","120","2023/05/13","15:03:00","-15.75426185131073","35.02413182891905","11.5","16","30","64","54","1824","24456","-5228","3","150","150.49","115.75","34.74","32.78","34.4","15.02","90740","32.38","DUALSPOT-UV-BLUE-GREEN-RED-IR","648536","680150","903543","26.278504","7.622719","0.007522","661337","872343","763764","19.037404","5.346132","0.007363","765266","884748","815308","15.710340","4.312706","0.006460","771944","905513","858665","12.446894","3.341066","0.004473","680674","840960","951638","8.701046","2.255289","-0.000008","124118","145827","154697","142420","159118","165638","138948","150335","154643","142605","148756","151013","152855","152847","152845",""
"MA200-0416","25106","67","1","1.10","1.4","2023-05-13T15:03:30","120","2023/05/13","15:03:30","-15.75827944278717","35.02488332986832","18.8","16","30","64","55","-1336","24708","-4888","3","150","149.32","116.17","33.15","32.78","34.2","14.95","90508","32.31","DUALSPOT-UV-BLUE-GREEN-RED-IR","624223","671538","905857","32.797162","10.049561","0.009310","638896","863189","765783","25.020008","7.455600","0.010050","738936","874403","815507","21.290960","6.210882","0.010023","749343","897993","860469","17.426630","4.972481","0.009858","664636","835422","952649","12.601986","3.462735","0.008313","329584","430058","474445","381773","471808","510026","398827","475462","507025","430061","493817","519272","469088","508898","523981",""
"MA200-0416","25107","67","1","1.10","1.4","2023-05-13T15:04:00","120","2023/05/13","15:04:00","-15.761491894721985","35.02646283060312","15.4","17","30","64","55","620","23776","-5016","3","150","149.40","116.52","32.87","32.79","34.0","14.88","90312","32.31","DUALSPOT-UV-BLUE-GREEN-RED-IR","622134","670884","906263","33.124698","10.172951","0.009846","631729","855285","759621","25.303894","7.557358","0.011003","737378","874207","816125","21.543472","6.298393","0.011329","747815","897702","860887","17.646404","5.043387","0.009489","663766","835454","953267","12.770874","3.515368","0.009885","16510","22047","24501","18060","22948","25029","17991","22102","23800","18922","21640","22728","20247","22367","23172",""
"MA200-0416","25108","67","1","1.10","1.4","2023-05-13T15:04:30","120","2023/05/13","15:04:30","-15.764947474002838","35.028235994279385","9.4","17","30","64","54","568","25488","2612","3","150","150.09","117.02","33.07","32.81","33.9","14.82","90136","32.31","DUALSPOT-UV-BLUE-GREEN-RED-IR","619088","669511","905941","33.644968","10.365711","0.009216","629581","854491","759976","25.741004","7.712515","0.010398","734091","872257","815266","21.928754","6.429130","0.010083","744837","895856","859932","17.975860","5.151397","0.010191","661709","834094","952349","13.018105","3.592526","0.009670","26114","34235","37850","27692","34780","37812","27335","32820","35095","28247","32766","34582","29514","32592","33765",""
"MA200-0416","25109","67","1","1.10","1.4","2023-05-13T15:05:00","120","2023/05/13","15:05:00","-15.768451452255249","35.027110662311316","18.5","17","30","64","54","1164","23976","-4604","3","150","149.39","116.39","33.00","32.82","33.6","14.71","89880","32.31","DUALSPOT-UV-BLUE-GREEN-RED-IR","617070","668821","906242","33.974664","10.489731","0.009449","627279","853060","759535","26.021364","7.811737","0.010065","732761","872202","815990","22.180084","6.516320","0.010843","743759","895965","860689","18.190008","5.221963","0.010193","660995","834241","953051","13.185165","3.643907","0.007957","16638","22075","24504","17857","22291","24194","17928","21937","23605","18459","21455","22661","20051","21752","22401",""
"MA200-0416","25110","67","1","1.10","1.4","2023-05-13T15:05:30","120","2023/05/13","15:05:30","-15.773119747638702","35.0245311614126","19.3","17","30","64","54","156","23708","-5264","3","150","149.26","116.45","32.81","32.83","33.3","14.57","89676","32.31","DUALSPOT-UV-BLUE-GREEN-RED-IR","614289","666340","903260","34.118344","10.543962","0.009660","629991","857326","763617","26.143916","7.855619","0.010677","730337","869841","814031","22.288064","6.552947","0.010055","741234","893367","858429","18.280894","5.250883","0.008406","658725","831720","950350","13.255547","3.665410","0.007878","7246","9708","10809","7801","9914","10822","7698","9268","9921","7830","8843","9251","8442","9155","9427",""
"MA200-0416","25111","67","1","1.10","1.4","2023-05-13T15:06:00","120","2023/05/13","15:06:00","-15.777919888496399","35.02363716252148","20.3","17","30","64","54","-612","23720","-7611","3","150","150.23","117.22","33.00","32.83","33.1","14.46","89764","32.31","DUALSPOT-UV-BLUE-GREEN-RED-IR","612337","666378","905193","34.494484","10.688524","0.010030","623245","850663","758973","26.473778","7.976377","0.011355","728215","869664","815054","22.579424","6.654042","0.010977","739941","893937","860034","18.531256","5.333990","0.010841","657756","832055","951596","13.448021","3.726245","0.010785","18846","25727","28817","20860","27125","29826","20635","25431","27435","21427","25264","26814","22937","25750","26828",""
"MA200-0416","25112","67","1","1.10","1.4","2023-05-13T15:06:30","120","2023/05/13","15:06:30","-15.78230106830597","35.023434828966856","9.4","17","30","64","54","-5108","23652","-5792","3","150","149.86","117.24","32.62","32.84","32.9","14.41","90008","32.31","DUALSPOT-UV-BLUE-GREEN-RED-IR","608828","664751","904931","35.098692","10.923758","0.010452","620223","849139","758950","27.009078","8.172119","0.011496","724829","868125","814878","23.063220","6.825417","0.012114","743146","900127","867096","18.952742","5.476922","0.012410","655588","831014","951300","13.776520","3.832161","0.013081","30271","42352","47811","33849","44480","49092","34261","43613","47545","36069","43956","47162","39143","45354","47748",""
"MA200-0416","25113","67","1","1.10","1.4","2023-05-13T15:07:00","120","2023/05/13","15:07:00","-15.78392618894577","35.02297916263342","5.0","17","30","64","54","-1508","24040","-7384","3","150","149.43","116.74","32.69","32.84","32.8","14.37","90120","32.31","DUALSPOT-UV-BLUE-GREEN-RED-IR","603819","661385","902351","35.713240","11.176952","0.011394","620362","852262","763245","27.599272","8.388519","0.011151","720011","865304","813618","23.627174","7.016778","0.009799","737651","896457","864857","19.475202","5.641371","0.007636","651834","828664","949654","14.204441","3.954040","0.001636","30919","45494","52133","37478","49076","54140","40107","48601","52190","44900","50472","52744","51206","52085","52424",""
"MA200-0416","25114","67","1","1.10","1.4","2023-05-13T15:07:30","120","2023/05/13","15:07:30","-15.784798383712769","35.02459483034909","7.3","17","30","64","54","644","24096","-5876","3","150","150.03","117.06","32.96","32.84","32.8","14.37","90188","32.25","DUALSPOT-UV-BLUE-GREEN-RED-IR","604693","662974","905158","35.863820","11.242115","0.012236","616349","847488","759395","27.748080","8.443344","0.011069","719687","865726","814418","23.773170","7.065767","0.009013","731841","890151","859137","19.612104","5.682426","0.004275","652147","829678","951099","14.322979","3.986312","-0.003364","7555","11610","13462","9423","12329","13600","10354","12338","13177","11732","12495","12806","14145","13676","13495",""
"MA200-0416","25115","67","1","1.10","1.4","2023-05-13T15:08:00","120","2023/05/13","15:08:00","-15.78563916683197","35.02670216187835","7.1","17","30","64","54","1064","24276","-5500","3","150","150.31","116.03","34.28","32.84","32.7","14.31","90096","32.25","DUALSPOT-UV-BLUE-GREEN-RED-IR","555044","639509","905855","41.886820","13.763638","0.009144","570428","821663","759844","33.174282","10.602726","0.010177","671464","842973","814871","28.611928","8.919114","0.010517","689089","870880","859760","23.812720","7.222891","0.010796","621633","816159","951412","17.632904","5.122264","0.010514","304904","431994","494192","346700","466930","523406","346241","448813","495270","363228","450799","488925","398516","462863","489208",""
"MA200-0416","25116","67","1","1.10","1.4","2023-05-13T15:08:30","120","2023/05/13","15:08:30","-15.786262392997742","35.02826332859695","6.1","17","30","64","54","1024","24416","-4996","3","150","149.93","116.29","33.64","32.85","32.6","14.25","90016","32.31","DUALSPOT-UV-BLUE-GREEN-RED-IR","508628","613349","905821","52.791672","18.866012","0.009282","527036","792819","759906","43.058040","14.981003","0.010428","623487","816241","814754","37.771112","12.808777","0.010977","644637","847231","859686","32.011376","10.536976","0.011621","588931","799491","951254","24.240272","7.591297","0.012300","550799","890918","1080058","630091","964886","1143522","653920","960001","1117058","707347","988429","1126349","793743","1025345","1130947",""
"MA200-0416","25117","67","1","1.10","1.4","2023-05-13T15:09:00","120","2023/05/13","15:09:00","-15.786329209804535","35.029749827459455","9.5","17","30","68","54","2400","24552","-3832","4","150","149.73","118.61","31.13","32.88","32.6","14.27","89944","32.44","DUALSPOT-UV-BLUE-GREEN-RED-IR","833703","730357","904799","0.000000","0.000000","0.000000","797546","918490","764771","0.000000","0.000000","0.000000","893024","921715","816184","0.000000","0.000000","0.000000","878720","940900","865922","0.000000","0.000000","0.000000","738223","856309","950862","0.000000","0.000000","0.000000","0","0","0","0","0","0","0","0","0","0","0","0","0","0","0","Tape advance"
"MA200-0416","25118","67","1","1.10","1.4","2023-05-13T15:09:30","120","2023/05/13","15:09:30","-15.786426663398743","35.03144432976842","6.5","18","30","68","53","2280","24312","-5652","4","150","150.36","119.21","31.15","32.89","32.4","14.23","89864","32.44","DUALSPOT-UV-BLUE-GREEN-RED-IR","831281","728633","902816","0.000000","0.000000","0.000000","795496","916443","763150","0.000000","0.000000","0.000000","890691","919537","814318","0.000000","0.000000","0.000000","875908","938108","863474","0.000000","0.000000","0.000000","736441","854465","948889","0.000000","0.000000","0.000000","","","","","","","","","","","","","","","","Tape advance"
"MA200-0416","25119","67","1","1.10","1.4","2023-05-13T15:10:00","120","2023/05/13","15:10:00","-15.786656022071838","35.03356548771262","6.6","18","30","64","54","1436","24056","-6647","4","150","149.99","118.87","31.11","32.89","32.4","14.19","89716","32.44","DUALSPOT-UV-BLUE-GREEN-RED-IR","832480","730114","904854","0.082829","0.020725","0.000000","796079","917532","764187","0.059866","0.015478","0.000000","891871","921110","815846","0.051039","0.013649","0.000000","878682","941359","866529","0.040048","0.010591","0.000000","737778","856192","950901","0.031532","0.007571","0.000000","4092","3912","4092","3733","3687","3733","3564","3642","3564","3380","3415","3380","3705","3399","3705",""
"MA200-0416","25120","67","1","1.10","1.4","2023-05-13T15:10:30","120","2023/05/13","15:10:30","-15.787455201148987","35.03564865514636","5.2","18","30","64","54","-332","24296","-5780","4","150","149.83","119.01","30.82","32.90","32.3","14.16","0","0.00","DUALSPOT-UV-BLUE-GREEN-RED-IR","829475","727941","902332","0.161954","0.040048","0.000000","794113","915662","762744","0.116133","0.030517","0.000000","890651","920180","815124","0.098020","0.026101","0.000000","875798","938558","864039","0.077128","0.020396","0.000000","741201","860356","955611","0.060331","0.014310","0.000000","3905","3682","3905","3504","3617","3504","3277","3354","3277","3125","3192","3125","3380","3055","3380",""
"MA200-0416","25121","67","1","1.10","1.4","2023-05-13T15:11:00","120","2023/05/13","15:11:00","-15.787429094314575","35.03541249409318","5.0","17","30","64","54","-1896","24240","-5244","4","150","150.23","119.21","31.01","32.90","32.2","14.14","0","0.00","DUALSPOT-UV-BLUE-GREEN-RED-IR","829853","728893","903818","0.278520","0.071348","0.000000","794440","916652","763747","0.205386","0.056051","0.000000","890651","920709","815765","0.172245","0.047212","0.000000","876802","940031","865551","0.140005","0.039088","0.000000","741609","861140","956532","0.104042","0.024890","0.000000","5743","5927","5743","5550","6103","5550","5169","5651","5169","5291","6046","5291","5122","4765","5122",""
"MA200-0416","25122","67","1","1.10","1.4","2023-05-13T15:11:30","120","2023/05/13","15:11:30","-15.786760687828064","35.03391499444842","6.0","18","30","64","54","-2160","24260","-5508","4","150","150.17","119.06","31.11","32.90","32.2","14.10","89692","32.38","DUALSPOT-UV-BLUE-GREEN-RED-IR","828911","728483","903481","0.360631","0.092176","0.000000","793950","916425","763699","0.265926","0.073419","0.000000","889624","919922","815174","0.222332","0.060230","0.000000","875185","938557","864297","0.178128","0.049239","0.000000","740810","860395","955767","0.132535","0.030861","0.000000","4050","3932","4050","3769","4138","3769","3492","3473","3492","3212","3273","3212","3343","2681","3343",""
