"Serial number","Datum ID","Session ID","Data format version","Firmware version","App version","Date / time local","Timezone offset (mins)","Date local (yyyy/MM/dd)","Time local (hh:mm:ss)","GPS lat (ddmm.mmmmm)","GPS long (dddmm.mmmmm)","GPS speed (km/h)","GPS sat count","Timebase (s)","Status","Battery remaining (%)","Accel X","Accel Y","Accel Z","Tape position","Flow setpoint (mL/min)","Flow total (mL/min)","Flow1 (mL/min)","Flow2 (mL/min)","Sample temp (C)","Sample RH (%)","Sample dewpoint (C)","Internal pressure (Pa)","Internal temp (C)","Optical config","UV Sen1","UV Sen2","UV Ref","UV ATN1","UV ATN2","UV K","Blue Sen1","Blue Sen2","Blue Ref","Blue ATN1","Blue ATN2","Blue K","Green Sen1","Green Sen2","Green Ref","Green ATN1","Green ATN2","Green K","Red Sen1","Red Sen2","Red Ref","Red ATN1","Red ATN2","Red K","IR Sen1","IR Sen2","IR Ref","IR ATN1","IR ATN2","IR K","UV BC1","UV BC2","UV BCc","Blue BC1","Blue BC2","Blue BCc","Green BC1","Green BC2","Green BCc","Red BC1","Red BC2","Red BCc","IR BC1","IR BC2","IR BCc","Readable status"
"MA200-0416","23440","65","1","1.10","1.4","2023-05-12T08:37:30","120","2023/05/12","08:37:30","0","0","0.0","6","30","66","92","-25216","-564","-3952","13","150","149.68","115.12","34.56","22.08","58.4","13.53","90548","21.44","DUALSPOT-UV-BLUE-GREEN-RED-IR","862425","742489","909019","0.000000","0.000000","0.000000","810191","923990","764535","0.000000","0.000000","0.000000","902619","923395","814263","0.000000","0.000000","0.000000","882303","937847","861854","0.000000","0.000000","0.000000","750479","860644","949873","0.000000","0.000000","0.000000","","","","","","","","","","","","","","","","Start up"
"MA200-0416","23441","65","1","1.10","1.4","2023-05-12T08:38:00","120","2023/05/12","08:38:00","0","0","0.0","6","30","66","92","-25172","560","-3892","13","150","149.93","115.80","34.12","22.23","59.4","13.93","90536","21.88","DUALSPOT-UV-BLUE-GREEN-RED-IR","862439","743479","910720","0.000000","0.000000","0.000000","810112","924531","765194","0.000000","0.000000","0.000000","905771","927131","817691","0.000000","0.000000","0.000000","882872","938809","862850","0.000000","0.000000","0.000000","750325","860875","950117","0.000000","0.000000","0.000000","","","","","","","","","","","","","","","","Start up"
"MA200-0416","23442","65","1","1.10","1.4","2023-05-12T08:38:30","120","2023/05/12","08:38:30","0","0","0.0","6","30","66","92","-25084","479","-4204","13","150","149.53","115.23","34.30","22.37","59.9","14.21","90552","22.25","DUALSPOT-UV-BLUE-GREEN-RED-IR","859559","741992","909265","0.000000","0.000000","0.000000","808450","923308","764283","0.000000","0.000000","0.000000","902039","923845","814835","0.000000","0.000000","0.000000","886840","943473","867162","0.000000","0.000000","0.000000","752446","863584","953105","0.000000","0.000000","0.000000","","","","","","","","","","","","","","","","Start up"
"MA200-0416","23443","65","1","1.10","1.4","2023-05-12T08:39:00","120","2023/05/12","08:39:00","0","0","0.0","8","30","66","91","-25092","296","-4050","13","150","149.42","115.58","33.84","22.50","60.1","14.38","90544","22.50","DUALSPOT-UV-BLUE-GREEN-RED-IR","859787","743179","911153","0.000000","0.000000","0.000000","803912","918787","760732","0.000000","0.000000","0.000000","901246","923535","814695","0.000000","0.000000","0.000000","881178","937821","862041","0.000000","0.000000","0.000000","752653","864115","953752","0.000000","0.000000","0.000000","","","","","","","","","","","","","","","","Start up"
"MA200-0416","23444","65","1","1.10","1.4","2023-05-12T08:39:30","120","2023/05/12","08:39:30","0","0","0.0","8","30","66","91","-25065","330","-4134","13","150","149.70","116.31","33.39","22.63","60.1","14.50","90544","22.75","DUALSPOT-UV-BLUE-GREEN-RED-IR","856425","741212","909184","0.000000","0.000000","0.000000","807761","923799","765044","0.000000","0.000000","0.000000","904059","926906","817786","0.000000","0.000000","0.000000","879686","936600","860986","0.000000","0.000000","0.000000","750266","861614","951081","0.000000","0.000000","0.000000","","","","","","","","","","","","","","","","Start up"
"MA200-0416","23445","65","1","1.10","1.4","2023-05-12T08:40:00","120","2023/05/12","08:40:00","0","0","0.0","8","30","64","91","-25008","424","-4156","13","150","149.66","116.34","33.32","22.76","60.1","14.61","90548","22.94","DUALSPOT-UV-BLUE-GREEN-RED-IR","853454","739563","907597","0.000000","0.000000","0.000000","805605","921973","763687","0.000000","0.000000","0.000000","901042","924274","815604","0.000000","0.000000","0.000000","882958","940493","864643","0.000000","0.000000","0.000000","752222","864088","953915","0.000000","0.000000","0.000000","","","","","","","","","","","","","","","",""
"MA200-0416","23446","65","1","1.10","1.4","2023-05-12T08:40:30","120","2023/05/12","08:40:30","-15.795661568641663","35.00289999996312","0.0","8","30","64","91","-25008","496","-4372","13","150","150.24","116.28","33.95","22.88","60.1","14.74","90552","23.06","DUALSPOT-UV-BLUE-GREEN-RED-IR","851945","739210","907595","0.177076","0.045150","0.000000","805192","922156","764038","0.094604","0.021976","0.000000","899175","922879","814486","0.070780","0.014233","0.000000","883248","941194","865351","0.051242","0.008379","0.000000","750863","862791","952531","0.035636","0.006896","0.000000","8944","7810","8944","6031","4798","6031","5053","3480","5053","4421","2476","4421","4281","2837","4281",""
"MA200-0416","23447","65","1","1.10","1.4","2023-05-12T08:41:00","120","2023/05/12","08:41:00","-15.795648217201233","35.00287833320908","0.0","8","30","64","90","-25168","448","-4172","13","150","149.23","116.53","32.70","23.00","60.1","14.83","90556","23.19","DUALSPOT-UV-BLUE-GREEN-RED-IR","845454","734502","902193","0.345730","0.089166","0.000000","800286","917184","760084","0.186270","0.044340","0.000000","900173","924384","815931","0.137955","0.029021","0.000000","878276","936240","860875","0.099670","0.017619","0.000000","751696","863936","953890","0.070419","0.014516","0.000000","8500","7905","8500","5831","5069","5831","4785","3754","4785","4169","2834","4169","4169","3255","4169",""
"MA200-0416","23448","65","1","1.10","1.4","2023-05-12T08:41:30","120","2023/05/12","08:41:30","-15.795641601085663","35.00288933282718","0.0","8","30","64","91","-25152","400","-3912","13","150","150.03","116.03","34.00","23.13","59.9","14.91","90556","23.31","DUALSPOT-UV-BLUE-GREEN-RED-IR","850602","739875","909221","0.514706","0.134977","0.000000","803537","921572","763893","0.278759","0.066173","0.000000","898213","922874","814712","0.205540","0.043129","0.000000","877912","936248","860951","0.148683","0.025522","0.000000","750250","862543","952388","0.105852","0.022070","0.000000","8553","7914","8553","5909","4760","5909","4835","3445","4835","4237","2332","4237","4265","3103","4265",""
"MA200-0416","23449","65","1","1.10","1.4","2023-05-12T08:42:00","120","2023/05/12","08:42:00","-15.795654356479645","35.00289516639896","0.0","8","30","64","90","-24988","435","-4644","13","150","149.76","115.87","33.89","23.23","59.8","14.97","90556","23.44","DUALSPOT-UV-BLUE-GREEN-RED-IR","839421","731079","898806","0.684874","0.179605","0.000000","800944","919209","762131","0.373744","0.090175","0.000000","899718","924930","816645","0.276083","0.057816","0.000000","880261","939147","863713","0.198745","0.034171","0.000000","751340","864034","954115","0.141162","0.030362","0.000000","8625","7734","8625","6077","5249","6077","5054","3597","5054","4334","2560","4334","4257","3417","4257",""
"MA200-0416","23450","65","1","1.10","1.4","2023-05-12T08:42:30","120","2023/05/12","08:42:30","-15.795651197433472","35.00287799956277","0.0","8","30","64","90","-24965","461","-4292","13","150","150.29","115.79","34.50","23.35","59.7","15.07","90556","23.56","DUALSPOT-UV-BLUE-GREEN-RED-IR","845740","737561","907210","0.864370","0.224426","0.000000","801604","920754","763563","0.474101","0.111759","0.000000","899376","925154","816976","0.353282","0.073432","0.000000","881585","940990","865504","0.256413","0.043648","0.000000","746600","858867","948497","0.184089","0.038262","0.000000","9105","7630","9105","6425","4637","6425","5535","3757","5535","4996","2756","4996","5178","3198","5178",""
"MA200-0416","23451","65","1","1.10","1.4","2023-05-12T08:43:00","120","2023/05/12","08:43:00","-15.795635521411896","35.00288549950346","0.1","8","30","64","90","-25028","420","-4208","13","150","149.73","116.06","33.68","23.45","59.7","15.15","90556","23.69","DUALSPOT-UV-BLUE-GREEN-RED-IR","843806","736792","906616","1.032524","0.269638","0.000000","800096","919637","762839","0.570076","0.135862","0.000000","896938","923144","815332","0.423026","0.087976","0.000000","880038","939764","864410","0.307768","0.052052","0.000000","749401","862349","952431","0.219348","0.046188","0.000000","8510","7885","8510","6130","5306","6130","4989","3585","4989","4439","2503","4439","4244","3287","4244",""
"MA200-0416","23452","65","1","1.10","1.4","2023-05-12T08:43:30","120","2023/05/12","08:43:30","-15.795640170574188","35.002867499832064","0.1","8","30","64","90","-25024","160","-6012","13","150","149.98","115.91","34.07","23.55","59.5","15.21","90556","23.75","DUALSPOT-UV-BLUE-GREEN-RED-IR","845790","739352","910185","1.190750","0.311054","0.000000","801989","922467","765335","0.659519","0.156057","0.000000","898568","925325","817345","0.491374","0.102210","0.000000","876297","936116","861186","0.358390","0.061237","0.000000","750755","864182","954539","0.255121","0.053981","0.000000","8018","7139","8018","5720","4394","5720","4895","3468","4895","4381","2704","4381","4311","3195","4311",""
"MA200-0416","23453","65","1","1.10","1.4","2023-05-12T08:44:00","120","2023/05/12","08:44:00","-15.795646011829376","35.00286366650835","0.3","9","30","64","89","-25000","448","-4160","13","150","149.95","115.92","34.03","23.65","59.3","15.24","90552","23.88","DUALSPOT-UV-BLUE-GREEN-RED-IR","840378","735390","905644","1.335393","0.350606","0.000000","797293","917672","761482","0.744903","0.177818","0.000000","894037","921103","813749","0.555867","0.116652","0.000000","876195","936423","861490","0.406497","0.070214","0.000000","750635","864225","954631","0.290166","0.062066","0.000000","7329","6826","7329","5460","4740","5460","4619","3523","4619","4163","2646","4163","4223","3318","4223",""
"MA200-0416","23454","65","1","1.10","1.4","2023-05-12T08:44:30","120","2023/05/12","08:44:30","-15.79598468542099","35.00282583292574","0.1","8","30","64","90","-24936","-332","-5340","13","150","149.76","116.15","33.61","23.74","59.0","15.26","90548","23.94","DUALSPOT-UV-BLUE-GREEN-RED-IR","844887","740199","911930","1.489792","0.391614","0.000000","800595","922062","765304","0.832730","0.199401","0.000000","896102","923753","816219","0.624603","0.131898","0.000000","881791","942773","867443","0.456923","0.079184","0.000000","748624","862184","952476","0.328922","0.071877","0.000000","7807","7165","7807","5605","4760","5605","4913","3765","4913","4355","2677","4355","4661","4077","4661",""
"MA200-0416","23455","65","1","1.10","1.4","2023-05-12T08:45:00","120","2023/05/12","08:45:00","-15.796110808849335","35.00304599967785","2.2","8","30","64","90","-25269","1823","-5384","13","150","149.73","116.59","33.14","23.84","58.6","15.24","90564","24.06","DUALSPOT-UV-BLUE-GREEN-RED-IR","837716","734719","905562","1.641864","0.433242","0.000000","801005","923117","766373","0.923061","0.224006","0.000000","897111","925266","817669","0.691587","0.147616","0.000000","877821","938925","863973","0.507372","0.089120","0.000000","749689","863653","954195","0.365903","0.081583","0.000000","7661","7377","7661","5743","5503","5743","4770","3937","4770","4341","3007","4341","4431","4090","4431",""
"MA200-0416","23456","65","1","1.10","1.4","2023-05-12T08:45:30","120","2023/05/12","08:45:30","-15.79690420627594","35.00326416664757","9.6","8","30","64","89","-24876","-3596","-1320","13","150","149.81","116.68","33.13","23.94","58.3","15.26","90508","24.13","DUALSPOT-UV-BLUE-GREEN-RED-IR","836660","734681","905880","1.802826","0.475112","0.000000","796100","918113","762433","1.018416","0.247913","0.000000","896208","924867","817452","0.764745","0.163835","0.000000","877115","938580","863734","0.562089","0.098997","0.000000","749140","863238","953871","0.404233","0.092028","0.000000","8102","7423","8102","6058","5349","6058","5205","4064","5205","4704","2990","4704","4589","4404","4589",""
"MA200-0416","23457","65","1","1.10","1.4","2023-05-12T08:46:00","120","2023/05/12","08:46:00","-15.799723327159882","35.002709332853556","13.2","8","30","64","89","-25148","-1160","-1476","13","150","149.63","116.75","32.89","24.03","57.8","15.21","90396","24.19","DUALSPOT-UV-BLUE-GREEN-RED-IR","835331","734457","906036","1.965754","0.519536","0.000000","794424","916857","761555","1.111954","0.271474","0.000000","893617","922672","815682","0.835186","0.181203","0.000000","874420","936079","861529","0.613266","0.108736","0.000000","746481","860420","950824","0.442852","0.102013","0.000000","8197","7934","8197","5939","5311","5939","5009","4384","5009","4397","2971","4397","4620","4241","4620",""
"MA200-0416","23458","65","1","1.10","1.4","2023-05-12T08:46:30","120","2023/05/12","08:46:30","-15.803537011146545","35.002263999776915","12.7","8","30","64","89","-24868","3412","-1188","13","150","149.53","116.54","32.98","24.12","57.4","15.16","90332","24.25","DUALSPOT-UV-BLUE-GREEN-RED-IR","833882","734624","906932","2.250857","0.596822","0.000000","793913","917118","761993","1.234948","0.302577","0.000000","894315","923996","817003","0.921654","0.200468","0.000000","877075","939380","864703","0.676864","0.123763","0.000000","747464","861846","952509","0.487426","0.113658","0.000000","14368","13763","14368","7823","6991","7823","6159","4849","6159","5474","4570","5474","5342","4932","5342",""
"MA200-0416","23459","65","1","1.10","1.4","2023-05-12T08:47:00","120","2023/05/12","08:47:00","-15.805195391178131","35.00262799975462","7.3","8","30","64","89","-25944","1004","576","13","150","149.83","116.43","33.40","24.20","56.9","15.12","90400","24.31","DUALSPOT-UV-BLUE-GREEN-RED-IR","834218","735818","908799","2.419464","0.641319","0.000000","794528","918492","763328","1.334005","0.327564","0.000000","893312","923531","816711","0.998271","0.217437","0.000000","875897","938587","864035","0.732815","0.132762","0.000000","746642","861154","951831","0.528947","0.124331","0.000000","8505","7824","8505","6307","5545","6307","5463","4217","5463","4821","2703","4821","4981","4463","4981",""
"MA200-0416","23460","65","1","1.10","1.4","2023-05-12T08:47:30","120","2023/05/12","08:47:30","-15.80573582649231","35.00468016602099","9.7","9","30","64","89","-25580","-252","-2800","13","150","150.49","116.70","33.79","24.29","56.5","15.10","90424","24.44","DUALSPOT-UV-BLUE-GREEN-RED-IR","828774","732082","904643","2.607072","0.690372","0.000000","791190","915557","761103","1.457792","0.356859","0.000000","889778","920602","814315","1.094550","0.238370","0.000000","872723","935731","861570","0.806319","0.147676","0.000000","748391","863569","954656","0.584005","0.137126","0.000000","9442","8527","9442","7863","6427","7863","6849","5143","6849","6319","4428","6319","6590","5290","6590",""
"MA200-0416","23461","65","1","1.10","1.4","2023-05-12T08:48:00","120","2023/05/12","08:48:00","-15.806709706783295","35.00742799928412","11.3","9","30","64","89","-25276","-424","772","13","150","149.43","116.09","33.34","24.38","56.3","15.10","90332","24.44","DUALSPOT-UV-BLUE-GREEN-RED-IR","829231","733611","907040","2.799803","0.739097","0.000000","791930","917344","762808","1.579344","0.384456","0.000000","890194","921732","815482","1.189130","0.258517","0.000000","874341","938099","863856","0.878208","0.161015","0.000000","749132","864792","956110","0.635881","0.148710","0.000000","9750","8585","9750","7761","6137","7761","6763","5017","6763","6212","4014","6212","6242","4854","6242",""
"MA200-0416","23462","65","1","1.10","1.4","2023-05-12T08:48:30","120","2023/05/12","08:48:30","-15.805142939090729","35.00989049766213","11.7","9","30","64","89","-25580","124","-2716","13","150","149.70","116.71","32.99","24.45","55.9","15.07","90288","24.50","DUALSPOT-UV-BLUE-GREEN-RED-IR","829320","734652","908761","2.997635","0.790941","0.000000","791673","917855","763486","1.707208","0.415229","0.000000","890443","922704","816534","1.291722","0.282251","0.000000","876380","940748","866445","0.955343","0.176959","0.000000","744742","860071","951015","0.691724","0.161917","0.000000","9956","9230","9956","8122","6914","8122","7298","5972","7298","6630","4848","6630","6684","5592","6684",""
"MA200-0416","23463","65","1","1.10","1.4","2023-05-12T08:49:00","120","2023/05/12","08:49:00","-15.80562138557434","35.01094766333699","9.4","10","30","64","89","-25360","3371","-1472","13","150","150.69","116.31","34.38","24.53","55.6","15.06","90364","24.56","DUALSPOT-UV-BLUE-GREEN-RED-IR","830605","736583","911486","3.147559","0.830535","-0.053777","792639","919558","765070","1.804388","0.440692","0.000000","890844","923609","817441","1.366877","0.298672","0.000000","876967","941802","867501","1.014053","0.189148","0.000000","745322","860949","952083","0.734703","0.173951","0.000000","7571","6764","6475","6194","5490","6194","5364","3965","5364","5064","3556","5064","5161","4889","5161",""
"MA200-0416","23464","65","1","1.10","1.4","2023-05-12T08:49:30","120","2023/05/12","08:49:30","-15.80738615989685","35.011468331329525","6.0","9","30","64","89","-25300","-2712","-2296","13","150","150.49","116.86","33.64","24.60","55.5","15.11","90464","24.63","DUALSPOT-UV-BLUE-GREEN-RED-IR","824384","732284","906659","3.380157","0.892166","-0.035813","788048","915403","761932","1.971656","0.480514","0.000000","885435","918988","813603","1.505464","0.329410","0.000000","871044","936287","862574","1.122254","0.211154","0.000000","745066","861181","952540","0.814695","0.193081","0.000000","11691","10762","10428","10611","8776","10611","9846","7586","9846","9289","6563","9289","9562","7945","9562",""
"MA200-0416","23465","65","1","1.10","1.4","2023-05-12T08:50:00","120","2023/05/12","08:50:00","-15.809020221233368","35.01241716556251","6.0","9","30","64","89","-24824","1028","-3512","13","150","149.85","116.57","33.28","24.68","55.3","15.11","90360","24.69","DUALSPOT-UV-BLUE-GREEN-RED-IR","822607","731142","905436","3.461047","0.911991","-0.068759","786901","914428","761199","2.023274","0.491167","0.000000","885205","919029","813688","1.544321","0.335180","0.000000","871374","936858","863125","1.152569","0.214206","0.000000","745026","861289","952708","0.837133","0.197129","0.000000","4075","3498","3292","3282","2372","3282","2767","1439","2767","2609","919","2609","2688","1698","2688",""
"MA200-0416","23466","65","1","1.10","1.4","2023-05-12T08:50:30","120","2023/05/12","08:50:30","-15.809701085090637","35.01305249705911","3.2","9","30","64","89","-25212","2212","-1320","13","150","150.03","116.27","33.76","24.75","55.2","15.14","90384","24.75","DUALSPOT-UV-BLUE-GREEN-RED-IR","822203","731534","906298","3.592737","0.948282","-0.020670","791033","919919","765915","2.112734","0.511301","0.000000","887494","921995","816455","1.616096","0.350618","0.000000","875314","941543","867545","1.205694","0.222736","0.000000","746947","863814","955554","0.876754","0.206413","0.000000","6652","6314","6192","5703","4421","5703","5125","3796","5125","4584","2534","4584","4760","3841","4760",""
"MA200-0416","23467","65","1","1.10","1.4","2023-05-12T08:51:00","120","2023/05/12","08:51:00","-15.809210240840912","35.01374366506934","7.6","9","30","64","89","-26172","-56","-2560","13","150","149.45","115.87","33.57","24.82","55.0","15.16","90388","24.88","DUALSPOT-UV-BLUE-GREEN-RED-IR","822924","732690","907919","3.691312","0.970718","-0.111204","786673","915248","762123","2.173495","0.523847","0.000000","883907","918531","813453","1.662356","0.358301","0.000000","871261","937433","863785","1.241308","0.227212","0.000000","743805","860372","951803","0.904743","0.210633","0.000000","4996","3925","3542","3887","2770","3887","3314","1899","3314","3083","1337","3083","3374","1755","3374",""
"MA200-0416","23468","65","1","1.10","1.4","2023-05-12T08:51:30","120","2023/05/12","08:51:30","-15.808808386325836","35.016147496178746","10.8","10","30","64","88","-24636","-536","-2432","13","150","149.92","116.36","33.56","24.90","54.9","15.20","90344","25.00","DUALSPOT-UV-BLUE-GREEN-RED-IR","816303","727292","901417","3.787681","0.997100","-0.019561","787082","916117","762932","2.232295","0.536590","0.000000","883687","918646","813609","1.707601","0.365781","0.000000","865043","930992","857890","1.273512","0.231801","0.000000","743461","860117","951582","0.931043","0.217372","0.000000","4864","4617","4528","3746","2814","3746","3228","1850","3228","2776","1371","2776","3157","2805","3157",""
"MA200-0416","23469","65","1","1.10","1.4","2023-05-12T08:52:00","120","2023/05/12","08:52:00","-15.808125078678131","35.01922882720828","11.7","10","30","64","88","-25224","388","-212","13","150","149.63","115.91","33.72","24.98","54.7","15.23","90300","25.06","DUALSPOT-UV-BLUE-GREEN-RED-IR","820345","731336","906640","3.866438","1.016176","-0.076004","785399","914555","761722","2.280343","0.545406","0.000000","885668","921035","815762","1.744270","0.371753","0.000000","869183","935723","862274","1.300448","0.232970","0.000000","745672","862807","954586","0.950622","0.220180","0.000000","3990","3322","3084","3072","1938","3072","2626","1470","2626","2331","347","2331","2359","1163","2359",""
"MA200-0416","23470","65","1","1.10","1.4","2023-05-12T08:52:30","120","2023/05/12","08:52:30","-15.807848334312439","35.02205416187644","11.4","10","30","64","89","-24992","536","-928","13","150","149.83","116.23","33.60","25.06","54.6","15.28","90252","25.19","DUALSPOT-UV-BLUE-GREEN-RED-IR","821880","733311","909364","3.968500","1.043994","-0.021187","787165","917125","764000","2.348429","0.563383","0.000000","886887","922727","817361","1.797837","0.384420","0.000000","871543","938634","864980","1.340735","0.240575","0.000000","746523","864076","956041","0.983739","0.228819","0.000000","5157","4862","4757","4342","3966","4342","3826","3129","3826","3477","2270","3477","3980","3591","3980",""
"MA200-0416","23471","65","1","1.10","1.4","2023-05-12T08:53:00","120","2023/05/12","08:53:00","-15.807049989700317","35.02417549677193","1.2","10","30","64","88","-24246","3726","-2434","13","150","150.49","116.51","33.98","25.15","54.4","15.30","90156","25.25","DUALSPOT-UV-BLUE-GREEN-RED-IR","816412","729249","904669","4.119348","1.083822","-0.035856","786614","917172","764228","2.451128","0.588268","0.000000","882308","918581","813853","1.882416","0.402921","0.000000","865608","932689","859678","1.409757","0.253957","0.000000","742125","859326","950930","1.035993","0.240836","0.000000","7604","6883","6626","6534","5428","6534","6027","4519","6027","5943","3950","5943","6265","4939","6265",""
"MA200-0416","23472","65","1","1.10","1.4","2023-05-12T08:53:30","120","2023/05/12","08:53:30","-15.807051956653595","35.024159997701645","0.2","10","30","64","88","-24536","3855","-2868","13","150","150.16","116.15","34.01","25.21","54.2","15.31","90160","25.38","DUALSPOT-UV-BLUE-GREEN-RED-IR","819631","732682","909208","4.231202","1.113876","-0.029759","784441","915134","762642","2.524179","0.602556","0.000000","884402","921166","816229","1.943063","0.412744","0.000000","870622","938476","865054","1.457494","0.261878","0.000000","744533","862309","954307","1.073223","0.249294","0.000000","5656","5190","5023","4662","3114","4662","4335","2397","4335","4123","2336","4123","4477","3474","4477",""
"MA200-0416","23473","65","1","1.10","1.4","2023-05-12T08:54:00","120","2023/05/12","08:54:00","-15.806909024715424","35.024135161191225","0.2","10","30","64","88","-24444","3124","871","13","150","149.51","115.87","33.63","25.29","54.3","15.41","90176","25.44","DUALSPOT-UV-BLUE-GREEN-RED-IR","814494","728726","904526","4.344465","1.142046","-0.055488","786008","917477","764672","2.589941","0.613803","0.000000","885698","922895","817792","1.992155","0.419992","0.000000","866375","934202","861134","1.490950","0.264536","0.000000","745618","863746","955972","1.099166","0.254042","0.000000","5741","4919","4626","4207","2479","4207","3517","1789","3517","2896","792","2896","3127","1972","3127",""
"MA200-0416","23474","65","1","1.10","1.4","2023-05-12T08:54:30","120","2023/05/12","08:54:30","-15.806907951831818","35.02413149550557","0.0","9","30","64","88","-24360","5140","708","13","150","150.43","116.59","33.84","25.37","54.4","15.51","90176","25.50","DUALSPOT-UV-BLUE-GREEN-RED-IR","816598","731351","908126","4.477430","1.176879","-0.033988","782968","914444","762262","2.660000","0.628894","0.000000","881291","918725","814178","2.045530","0.430196","0.000000","868008","936269","863089","1.529979","0.268787","0.000000","741547","859256","951020","1.126545","0.257881","0.000000","6698","6046","5813","4454","3306","4454","3800","2503","3800","3358","1260","3358","3280","1584","3280",""
"MA200-0416","23475","65","1","1.10","1.4","2023-05-12T08:55:00","120","2023/05/12","08:55:00","-15.806897819042206","35.02413766272366","0.0","9","30","64","88","-24232","5132","800","13","150","150.23","116.15","34.08","25.46","54.5","15.61","90180","25.63","DUALSPOT-UV-BLUE-GREEN-RED-IR","818560","733618","911159","4.584749","1.206235","-0.022047","784738","916959","764441","2.724135","0.642234","0.000000","882967","920831","816107","2.092988","0.437217","0.000000","870448","939193","865792","1.566153","0.272208","0.000000","743114","861275","953298","1.153986","0.262894","0.000000","5427","5059","4928","4093","2902","4093","3392","1710","3392","3124","1007","3124","3300","2055","3300",""
"MA200-0416","23476","65","1","1.10","1.4","2023-05-12T08:55:30","120","2023/05/12","08:55:30","-15.806889653205872","35.0241266656667","0.0","9","30","64","88","-24197","5172","1005","13","150","149.57","116.79","32.78","25.53","54.5","15.69","90180","25.69","DUALSPOT-UV-BLUE-GREEN-RED-IR","814067","730018","906927","4.666381","1.228229","-0.012332","786304","919190","766392","2.777940","0.653493","0.000000","883575","921840","817026","2.136094","0.443696","0.000000","866391","935082","862023","1.596856","0.276088","0.000000","743681","862082","954272","1.179115","0.268925","0.000000","4105","3940","3882","3415","2546","3415","3064","1641","3064","2637","1187","2637","3005","2570","3005",""
"MA200-0416","23477","65","1","1.10","1.4","2023-05-12T08:56:00","120","2023/05/12","08:56:00","-15.806896328926086","35.02411766536534","0.0","9","30","64","88","-24236","5168","920","13","150","150.30","116.63","33.67","25.62","54.6","15.79","90184","25.75","DUALSPOT-UV-BLUE-GREEN-RED-IR","815244","731688","909279","4.769556","1.255985","-0.021424","782097","914740","762805","2.840507","0.667142","0.000000","879772","918198","813919","2.183956","0.452959","0.000000","868584","937737","864545","1.633626","0.280547","0.000000","744794","863574","955950","1.207508","0.274441","0.000000","5196","4841","4714","3977","3004","3977","3407","2283","3407","3163","1328","3163","3400","2288","3400",""
"MA200-0416","23478","65","1","1.10","1.4","2023-05-12T08:56:30","120","2023/05/12","08:56:30","-15.8069007396698","35.02412116341293","0.0","9","30","64","88","-24288","5125","847","13","150","150.09","116.51","33.59","25.69","54.6","15.85","90188","25.88","DUALSPOT-UV-BLUE-GREEN-RED-IR","817676","734267","912680","4.858680","1.281004","-0.007601","784073","917398","765095","2.895969","0.680362","0.000000","880618","919420","815061","2.227551","0.459355","0.000000","870971","940579","867177","1.665669","0.283098","0.000000","741104","859446","951436","1.233318","0.279733","0.000000","4493","4375","4333","3529","2917","3529","3106","1581","3106","2759","762","2759","3094","2201","3094",""
"MA200-0416","23479","65","1","1.10","1.4","2023-05-12T08:57:00","120","2023/05/12","08:57:00","-15.806898295879364","35.02410766296089","0.1","9","30","64","88","-24100","5276","752","13","150","150.43","116.79","33.64","25.78","54.5","15.92","90188","25.94","DUALSPOT-UV-BLUE-GREEN-RED-IR","812891","730331","907966","4.930429","1.299442","-0.034788","780504","913552","761966","2.942115","0.689573","0.000000","882109","921253","816711","2.264476","0.466161","0.000000","866890","936403","863363","1.694130","0.287503","0.000000","742360","861070","953291","1.255792","0.284694","0.000000","3608","3219","3080","2929","2029","2929","2625","1679","2625","2445","1313","2445","2688","2060","2688",""
"MA200-0416","23480","65","1","1.10","1.4","2023-05-12T08:57:30","120","2023/05/12","08:57:30","-15.806893050670624","35.02410749532282","0.0","9","30","64","88","-24116","5280","812","13","150","149.33","116.71","32.62","25.87","54.4","15.95","90192","26.06","DUALSPOT-UV-BLUE-GREEN-RED-IR","809335","727532","904624","5.000005","1.318927","0.000543","782724","916498","764498","2.989066","0.699836","0.000000","878450","917673","813603","2.300722","0.473075","0.000000","869334","939269","866032","1.720184","0.290476","0.000000","743466","862497","954898","1.278249","0.290053","0.000000","3501","3508","3511","2982","2332","2982","2578","1759","2578","2239","914","2239","2688","2294","2688",""
"MA200-0416","23481","65","1","1.10","1.4","2023-05-12T08:58:00","120","2023/05/12","08:58:00","-15.806889951229095","35.02410832978785","0.1","9","30","64","88","-24320","5076","628","13","150","149.43","116.70","32.73","25.96","54.3","16.03","90196","26.13","DUALSPOT-UV-BLUE-GREEN-RED-IR","811448","729828","907695","5.076337","1.339429","-0.011980","779499","913080","761745","3.039437","0.710702","-0.141795","879965","919597","815347","2.341169","0.478273","0.000000","864999","934847","861973","1.750701","0.293296","0.000000","740218","858924","951008","1.304370","0.294962","0.000000","3841","3679","3621","3199","2461","2236","2877","1318","2877","2623","864","2623","3126","2095","3126",""
"MA200-0416","23482","65","1","1.10","1.4","2023-05-12T08:58:30","120","2023/05/12","08:58:30","-15.806901693344116","35.024127162992954","0.0","10","30","64","88","-24176","5256","720","13","150","150.08","116.79","33.28","26.04","54.3","16.08","90196","26.19","DUALSPOT-UV-BLUE-GREEN-RED-IR","812664","731350","909795","5.155927","1.360200","-0.025043","780343","914478","762979","3.094059","0.721437","-0.219731","880962","920963","816642","2.384860","0.486308","0.000000","867714","938077","864995","1.784539","0.296747","0.000000","740890","859904","952122","1.331079","0.299924","0.000000","4002","3665","3544","3467","2391","2063","3105","2004","3105","2906","1040","2906","3194","2082","3194",""
"MA200-0416","23483","65","1","1.10","1.4","2023-05-12T08:59:00","120","2023/05/12","08:59:00","-15.806899666786194","35.02413132973015","0.0","10","30","64","88","-24304","5184","1404","13","150","149.70","117.10","32.59","26.12","54.2","16.13","90196","26.31","DUALSPOT-UV-BLUE-GREEN-RED-IR","808091","727708","905461","5.238853","1.381914","-0.016703","781974","916783","765023","3.151280","0.734424","-0.100545","876961","917151","813308","2.431322","0.494724","0.000000","865057","935493","862625","1.818579","0.301104","0.000000","742121","861490","953934","1.356901","0.305336","0.000000","4159","3912","3824","3622","2953","2750","3294","2143","3294","2916","1341","2916","3080","2319","3080",""
"MA200-0416","23484","65","1","1.10","1.4","2023-05-12T08:59:30","120","2023/05/12","08:59:30","-15.80689913034439","35.02412883006036","0.0","10","30","64","87","-24164","5136","592","13","150","149.44","116.86","32.58","26.21","54.1","16.20","90192","26.38","DUALSPOT-UV-BLUE-GREEN-RED-IR","809392","729716","908391","5.390868","1.424415","0.000735","778459","913317","762259","3.237587","0.753980","-0.099705","878126","918864","814950","2.496469","0.507468","0.000000","867167","938175","865162","1.866227","0.308054","0.000000","743191","862967","955673","1.391763","0.313773","0.000000","7640","7662","7670","5475","4450","4139","4628","3247","4628","4090","2140","4090","4167","3617","4167",""
"MA200-0416","23485","65","1","1.10","1.4","2023-05-12T09:00:00","120","2023/05/12","09:00:00","-15.806903660297394","35.024127496406436","0.0","10","30","64","88","-24136","5072","312","13","150","149.73","116.79","32.94","26.28","54.1","16.27","90192","26.44","DUALSPOT-UV-BLUE-GREEN-RED-IR","805728","727089","905413","5.526654","1.461982","-0.004775","779953","915586","764277","3.314936","0.770700","-0.131877","879583","920794","816732","2.554000","0.518571","0.000000","862950","933915","861308","1.907712","0.314461","0.000000","739633","859004","951320","1.420612","0.319858","0.000000","6828","6699","6653","4909","3763","3416","4089","2798","4089","3563","1951","3563","3450","2581","3450",""
"MA200-0416","23486","65","1","1.10","1.4","2023-05-12T09:00:30","120","2023/05/12","09:00:30","-15.806900203227997","35.02413266338408","0.0","10","30","64","87","-24072","5220","544","13","150","149.83","116.15","33.68","26.37","54.0","16.32","90192","26.56","DUALSPOT-UV-BLUE-GREEN-RED-IR","808126","729770","908996","5.625478","1.488983","-0.015161","777261","912905","762171","3.385043","0.786668","-0.114572","875959","917430","813876","2.611226","0.528961","0.000000","864679","936167","863448","1.953011","0.320869","0.000000","740859","860711","953274","1.457376","0.327159","0.000000","4997","4708","4604","4474","3514","3224","4090","2561","4090","3912","1908","3912","4421","3028","4421",""
"MA200-0416","23487","65","1","1.10","1.4","2023-05-12T09:01:00","120","2023/05/12","09:01:00","-15.806901574134827","35.02414149418473","0.1","10","30","64","87","-24219","5203","1050","13","150","149.70","116.51","33.19","26.46","54.0","16.39","90196","26.63","DUALSPOT-UV-BLUE-GREEN-RED-IR","803023","725638","904093","5.723746","1.514494","-0.023963","778512","914884","763934","3.455174","0.801408","-0.150019","876328","918270","814668","2.669961","0.540203","0.000000","867149","939177","866254","1.998871","0.327271","0.000000","741110","861229","953933","1.494815","0.335675","0.000000","4954","4514","4356","4462","3292","2938","4185","2812","4185","3949","1935","3949","4489","3584","4489",""
"MA200-0416","23488","65","1","1.10","1.4","2023-05-12T09:01:30","120","2023/05/12","09:01:30","-15.806890487670898","35.024142829701304","0.1","10","30","64","87","-24125","5100","475","13","150","149.73","116.21","33.52","26.53","53.8","16.42","90192","26.75","DUALSPOT-UV-BLUE-GREEN-RED-IR","804945","727847","907008","5.803073","1.537162","-0.002194","779967","916980","765799","3.510886","0.815444","-0.056199","877450","919775","816109","2.716982","0.550198","0.000000","862275","934198","861727","2.036410","0.333606","0.000000","742645","863203","956201","1.524509","0.342806","0.000000","4009","3972","3958","3554","3104","2968","3359","2475","3359","3240","1896","3240","3569","2972","3569",""
"MA200-0416","23489","65","1","1.10","1.4","2023-05-12T09:02:00","120","2023/05/12","09:02:00","-15.80688738822937","35.02415332943201","0.0","10","30","64","87","-24216","5096","828","13","150","150.62","116.98","33.64","26.62","53.7","16.46","90196","26.81","DUALSPOT-UV-BLUE-GREEN-RED-IR","806084","729433","909318","5.907027","1.567354","0.002281","775863","912718","762401","3.589076","0.835096","-0.054711","873329","915912","812812","2.780098","0.564068","0.000000","865481","938066","865383","2.085477","0.342571","0.000000","738923","859137","951812","1.564291","0.353079","0.000000","5219","5271","5290","4954","4330","4141","4479","3423","4479","4208","2673","4208","4750","4266","4750",""
"MA200-0416","23490","65","1","1.10","1.4","2023-05-12T09:02:30","120","2023/05/12","09:02:30","-15.80687689781189","35.024171164259315","0.0","10","30","64","86","-24160","5244","1180","13","150","150.36","117.18","33.18","26.70","53.5","16.48","90192","26.88","DUALSPOT-UV-BLUE-GREEN-RED-IR","801895","726100","905368","6.002608","1.595365","0.007618","777734","915379","764737","3.662109","0.852985","-0.058214","874726","917786","814553","2.841371","0.577831","0.000000","861635","934287","861956","2.134941","0.350820","0.000000","739830","860466","953332","1.601297","0.362734","0.000000","4790","4959","5020","4620","3997","3808","4341","3444","4341","4234","2494","4234","4411","4065","4411",""
"MA200-0416","23491","65","1","1.10","1.4","2023-05-12T09:03:00","120","2023/05/12","09:03:00","-15.806865155696869","35.02417833171785","0.6","10","30","64","87","-24184","4824","1652","13","150","150.17","116.67","33.51","26.79","53.3","16.51","90196","27.00","DUALSPOT-UV-BLUE-GREEN-RED-IR","803442","728282","908514","6.145762","1.636041","-0.002420","773879","911662","761875","3.775239","0.881553","-0.049567","875345","919187","815998","2.939058","0.600218","0.000000","863734","937132","864736","2.212837","0.367093","0.000000","740883","862080","955291","1.659715","0.378004","0.000000","7207","7129","7101","7188","6320","6055","6951","5546","6951","6698","4871","6698","6995","6365","6995",""
"MA200-0416","23492","65","1","1.10","1.4","2023-05-12T09:03:30","120","2023/05/12","09:03:30","-15.807018518447876","35.0245259962976","5.1","10","30","64","86","-24948","-1108","-604","13","150","149.46","116.38","33.09","26.86","53.1","16.50","90152","27.06","DUALSPOT-UV-BLUE-GREEN-RED-IR","799306","725023","904654","6.235989","1.661485","-0.001787","775809","914379","764248","3.841043","0.897645","-0.058099","876212","920450","817191","2.991826","0.611114","0.000000","864619","938415","865972","2.255819","0.374597","0.000000","736725","857407","950211","1.692855","0.386459","0.000000","4553","4516","4503","4191","3605","3426","3764","2734","3764","3705","2275","3705","3978","3570","3978",""
"MA200-0416","23493","65","1","1.10","1.4","2023-05-12T09:04:00","120","2023/05/12","09:04:00","-15.806937992572784","35.02608149498701","6.8","10","30","64","86","-24748","-1084","444","13","150","150.25","116.34","33.91","26.95","52.7","16.48","90064","27.19","DUALSPOT-UV-BLUE-GREEN-RED-IR","792578","721330","901147","6.704578","1.790445","-0.012322","774520","915380","765823","4.213298","0.995082","-0.036623","870575","916679","814478","3.308433","0.691598","-0.058341","859335","934500","862892","2.513049","0.437277","0.000000","737697","859733","953234","1.880739","0.435349","0.000000","23658","22335","21853","23721","21299","20550","22594","19703","18939","22183","18543","22183","22560","20138","22560",""
"MA200-0416","23494","65","1","1.10","1.4","2023-05-12T09:04:30","120","2023/05/12","09:04:30","-15.807161629199982","35.028204495087266","8.7","10","30","64","86","-24880","-2556","871","13","150","149.51","116.71","32.80","27.04","52.3","16.42","90016","27.25","DUALSPOT-UV-BLUE-GREEN-RED-IR","800335","728798","910727","6.789724","1.815111","0.005939","771453","912111","763245","4.270435","1.009559","-0.034660","870889","917300","815123","3.353852","0.700611","-0.176299","861430","937011","865265","2.549036","0.442708","0.000000","737696","859918","953507","1.908714","0.442752","0.000000","4285","4417","4465","3629","3272","3161","3231","2281","2030","3093","1661","3093","3348","3153","3348",""
"MA200-0416","23495","65","1","1.10","1.4","2023-05-12T09:05:00","120","2023/05/12","09:05:00","-15.807758510112762","35.03035632893443","9.5","10","30","64","86","-24808","-688","-552","13","150","149.67","116.09","33.57","27.11","51.8","16.35","89980","27.31","DUALSPOT-UV-BLUE-GREEN-RED-IR","790359","720113","900092","6.871179","1.839304","0.005175","773505","914874","765592","4.318869","1.021915","-0.042293","872486","919259","816931","3.392059","0.708675","-0.152890","863322","939296","867389","2.576304","0.446695","0.000000","734614","856444","949688","1.932552","0.449031","0.000000","4121","4232","4273","3092","2728","2615","2732","1994","1799","2356","1191","2356","2868","2612","2868",""
"MA200-0416","23496","65","1","1.10","1.4","2023-05-12T09:05:30","120","2023/05/12","09:05:30","-15.808616757392883","35.03298982977867","9.9","10","30","64","86","-24480","1192","-742","13","150","149.33","116.55","32.78","27.20","51.4","16.29","89964","27.38","DUALSPOT-UV-BLUE-GREEN-RED-IR","796037","725572","907055","6.920644","1.852674","-0.008105","767523","908039","759935","4.351634","1.029081","-0.094423","872125","919116","816834","3.418034","0.713038","-0.303227","857602","933278","861873","2.595122","0.448245","0.000000","734114","856038","949295","1.952711","0.453960","0.000000","2492","2395","2360","2084","1620","1477","1850","1105","908","1619","474","1619","2416","2100","2416",""
"MA200-0416","23497","65","1","1.10","1.4","2023-05-12T09:06:00","120","2023/05/12","09:06:00","-15.807664036750793","35.034158658236265","10.5","10","30","64","86","-25568","-1048","-936","13","150","149.96","116.23","33.73","27.27","51.0","16.25","89980","27.44","DUALSPOT-UV-BLUE-GREEN-RED-IR","792690","723694","905271","7.122954","1.910266","-0.003769","770487","912697","764201","4.505182","1.068014","-0.044058","868367","916126","814466","3.544760","0.742864","-0.088681","853838","929951","859015","2.694264","0.470137","0.000000","735298","857914","951575","2.024738","0.473038","0.000000","10223","10028","9956","9793","8556","8171","9052","7340","6887","8557","6511","8557","8656","7900","8656",""
"MA200-0416","23498","65","1","1.10","1.4","2023-05-12T09:06:30","120","2023/05/12","09:06:30","-15.8048015832901","35.03471465781331","12.5","10","30","64","86","-24996","-388","-863","13","150","149.47","115.91","33.57","27.35","50.7","16.23","89820","27.50","DUALSPOT-UV-BLUE-GREEN-RED-IR","790473","723085","905243","7.381464","1.981477","-0.009688","768944","912279","764263","4.700554","1.118570","-0.034556","867362","916248","814910","3.704548","0.782167","-0.063736","859868","937536","866310","2.821128","0.498527","0.000000","735631","858937","952972","2.114568","0.494092","0.000000","13100","12460","12225","12495","11165","10749","11445","9720","9259","10981","8485","10981","10826","8761","10826",""
"MA200-0416","23499","65","1","1.10","1.4","2023-05-12T09:07:00","120","2023/05/12","09:07:00","-15.802917838096619","35.03569816052914","6.2","10","30","64","86","-25072","704","-2072","13","150","150.43","116.09","34.33","27.44","50.3","16.18","89776","27.63","DUALSPOT-UV-BLUE-GREEN-RED-IR","788070","721677","903815","7.556713","2.030147","-0.012027","766357","909976","762520","4.833299","1.151365","-0.057038","864923","914339","813377","3.818262","0.807929","-0.110511","857918","936003","864984","2.914354","0.516819","0.000000","732790","855960","949812","2.187112","0.514090","0.000000","8866","8326","8127","8476","7081","6644","8132","6229","5718","8056","5345","8056","8729","8136","8729",""
"MA200-0416","23500","65","1","1.10","1.4","2023-05-12T09:07:30","120","2023/05/12","09:07:30","-15.801808297634125","35.0362908244133","9.0","11","30","64","86","-24812","-2484","408","13","150","150.29","116.43","33.86","27.52","50.0","16.15","89792","27.69","DUALSPOT-UV-BLUE-GREEN-RED-IR","784675","721756","905460","8.080038","2.175476","-0.008169","764219","910863","764276","5.264187","1.263374","-0.030884","861641","913874","813892","4.191249","0.902372","-0.047140","855799","936235","865974","3.223517","0.592601","-0.074048","731283","855893","950410","2.415386","0.573102","0.000000","26400","25206","24766","27435","24519","23599","26597","23153","22209","26640","22451","21507","27389","24342","27389",""
"MA200-0416","23501","65","1","1.10","1.4","2023-05-12T09:08:00","120","2023/05/12","09:08:00","-15.802284121513367","35.03894715756178","6.6","10","30","64","86","-24736","871","672","13","150","149.87","116.38","33.49","27.59","49.6","16.11","89616","27.75","DUALSPOT-UV-BLUE-GREEN-RED-IR","784241","721942","905969","8.300215","2.237449","-0.003726","763682","910753","764331","5.433538","1.307607","-0.025491","861021","913667","813818","4.333091","0.936686","-0.058890","848757","928950","859313","3.339758","0.618868","-0.107180","731203","856094","950716","2.501957","0.594625","0.000000","11112","10868","10779","10787","9791","9475","10118","8506","8061","10020","7868","7379","10391","8977","10391",""
"MA200-0416","23502","65","1","1.10","1.4","2023-05-12T09:08:30","120","2023/05/12","09:08:30","-15.803101003170013","35.04012615978718","7.8","11","30","64","86","-25112","-1684","-456","13","150","149.90","116.07","33.83","27.66","49.2","16.05","89536","27.75","DUALSPOT-UV-BLUE-GREEN-RED-IR","777014","720911","907526","9.266352","2.511606","-0.004037","757398","909211","764897","6.227498","1.520675","-0.018781","854934","912421","814382","5.012733","1.115554","-0.028411","845580","929850","861575","3.896608","0.761473","-0.045535","728531","855809","951584","2.900070","0.702972","0.000000","48890","47605","47127","50709","46696","45399","48613","43901","42553","48132","42296","40879","47914","44745","47914",""
"MA200-0416","23503","65","1","1.10","1.4","2023-05-12T09:09:00","120","2023/05/12","09:09:00","-15.804079294204712","35.04193349182606","8.6","11","30","64","86","-24700","2520","-52","13","150","149.83","115.83","34.00","27.73","48.9","16.02","89448","27.88","DUALSPOT-UV-BLUE-GREEN-RED-IR","748688","707710","897996","11.187311","3.080206","0.001031","738234","900762","762744","7.880371","1.985193","-0.007646","840740","910274","817012","6.436146","1.507126","-0.013869","835321","929855","865538","5.078910","1.079755","-0.023144","721091","854568","953500","3.768432","0.947185","-0.015709","97408","98232","98545","105784","101287","99773","102024","95620","93663","102405","93923","91633","104726","100344","98873",""
"MA200-0416","23504","65","1","1.10","1.4","2023-05-12T09:09:30","120","2023/05/12","09:09:30","-15.804256796836853","35.04446482658386","15.8","11","30","64","86","-25084","-624","-20","13","150","149.51","115.63","33.87","27.81","48.5","15.96","89368","27.88","DUALSPOT-UV-BLUE-GREEN-RED-IR","751037","712789","906078","12.576290","3.505476","0.004689","735490","900448","763531","9.041656","2.324974","-0.000175","837171","909161","817005","7.489110","1.809209","-0.003735","833424","930162","866697","5.981446","1.330905","-0.011503","719565","854327","953987","4.424211","1.136316","-0.004800","70553","73742","74975","74450","74363","74333","75601","74041","73544","78307","74388","73266","79224","77999","77576",""
"MA200-0416","23505","65","1","1.10","1.4","2023-05-12T09:10:00","120","2023/05/12","09:10:00","-15.802579045295715","35.0482269898057","14.7","11","30","64","86","-24772","1300","-1100","13","150","149.46","115.67","33.79","27.87","48.1","15.87","89432","27.88","DUALSPOT-UV-BLUE-GREEN-RED-IR","750536","713596","907802","12.873146","3.594326","0.002548","735421","901755","765097","9.284753","2.392208","-0.008341","832583","905438","814026","7.701260","1.863801","-0.024242","828000","925183","862393","6.156362","1.374638","-0.037048","715044","849686","949056","4.554823","1.171596","-0.024826","15074","15442","15585","15580","14748","14460","15227","13411","12831","15171","12983","12354","15774","14583","14171",""
"MA200-0416","23506","65","1","1.10","1.4","2023-05-12T09:10:30","120","2023/05/12","09:10:30","-15.801338911056519","35.05127015337348","11.4","12","30","64","86","-24916","-452","532","13","150","150.24","115.83","34.41","27.93","47.7","15.80","89372","27.94","DUALSPOT-UV-BLUE-GREEN-RED-IR","750545","714714","909811","13.078432","3.653158","-0.003940","730719","897161","761556","9.454019","2.437103","-0.017854","831842","905658","814535","7.845307","1.900612","-0.028829","826498","924448","861916","6.275132","1.400536","-0.082990","719392","855479","955775","4.644138","1.194340","-0.051252","10409","10042","9899","10833","9672","9268","10324","8881","8420","10287","7550","6764","10771","9233","8700",""
"MA200-0416","23507","65","1","1.10","1.4","2023-05-12T09:11:00","120","2023/05/12","09:11:00","-15.801310777664185","35.054004825651646","13.8","12","30","64","86","-24744","-16","-2464","13","150","149.94","115.54","34.39","27.98","47.4","15.76","89328","27.94","DUALSPOT-UV-BLUE-GREEN-RED-IR","741968","707447","900931","13.274906","3.709875","-0.003296","728488","895368","760307","9.616044","2.479541","-0.020071","829439","903930","813220","7.987881","1.935667","-0.037324","825449","923947","861666","6.392874","1.428568","-0.054322","713527","848937","948664","4.732471","1.217194","-0.045170","9987","9685","9568","10395","9147","8713","10244","8461","7891","10223","8177","7588","10679","9282","8798",""
"MA200-0416","23508","65","1","1.10","1.4","2023-05-12T09:11:30","120","2023/05/12","09:11:30","-15.80352783203125","35.0573526583612","15.1","12","30","64","86","-24345","-787","-2137","13","150","149.66","115.75","33.91","28.03","47.1","15.69","89204","27.94","DUALSPOT-UV-BLUE-GREEN-RED-IR","743662","713471","911178","13.775297","3.863449","0.004513","725048","896081","762612","10.041405","2.601617","-0.002803","825153","903498","814346","8.347380","2.035742","-0.008429","822909","924722","863662","6.685165","1.506561","-0.019444","716097","854431","955876","4.949146","1.279251","-0.006263","25391","26602","27074","27242","26689","26496","25785","24503","24090","25334","23076","22419","26149","25566","25363",""
"MA200-0416","23509","65","1","1.10","1.4","2023-05-12T09:12:00","120","2023/05/12","09:12:00","-15.804011523723602","35.06131682544947","14.6","12","30","64","86","-25632","-16","-1356","13","150","150.29","115.67","34.62","28.09","46.7","15.60","89140","28.00","DUALSPOT-UV-BLUE-GREEN-RED-IR","735862","707683","904722","14.526161","4.094671","0.002662","723166","895536","762784","10.675301","2.788597","-0.001869","823597","903517","815000","8.916307","2.198487","-0.006995","822435","925774","865196","7.167209","1.638454","-0.017464","710697","849018","950248","5.299349","1.377855","-0.016422","38127","39228","39661","40625","40038","39830","40834","39027","38436","41809","38221","37158","42293","39787","38907",""
"MA200-0416","23510","65","1","1.10","1.4","2023-05-12T09:12:30","120","2023/05/12","09:12:30","-15.804487466812134","35.064925000071526","13.1","11","30","64","86","-24704","-376","-1376","13","150","149.51","115.79","33.71","28.13","46.4","15.54","89092","28.00","DUALSPOT-UV-BLUE-GREEN-RED-IR","736188","708256","905566","14.576336","4.107870","-0.010650","723168","895796","763066","10.715893","2.796613","-0.071941","823523","903679","815178","8.949811","2.203661","-0.184672","822877","926476","865871","7.194450","1.643115","-0.159510","710940","849505","950867","5.322157","1.381630","-0.262601","2545","2299","2203","2598","1762","1467","2402","1274","905","2360","1387","1099","2751","1564","1147",""
"MA200-0416","23511","65","1","1.10","1.4","2023-05-12T09:13:00","120","2023/05/12","09:13:00","-15.804917633533478","35.06808214634657","11.2","11","30","64","85","-25108","632","-1504","13","150","149.61","115.98","33.63","28.17","46.2","15.52","89008","28.00","DUALSPOT-UV-BLUE-GREEN-RED-IR","734534","707594","905209","14.735765","4.153560","-0.001105","722409","895839","763394","10.842567","2.829338","-0.015948","822761","903753","815508","9.059317","2.230536","-0.028222","822475","926797","866381","7.283948","1.661562","-0.082178","710528","849509","951035","5.389021","1.398243","-0.044395","8074","7981","7944","8096","7214","6903","7838","6635","6242","7741","5504","4842","8053","6902","6498",""
"MA200-0416","23512","65","1","1.10","1.4","2023-05-12T09:13:30","120","2023/05/12","09:13:30","-15.804459035396576","35.071005150675774","14.4","11","30","64","85","-24596","-1564","-1008","13","150","149.34","116.21","33.13","28.21","46.0","15.48","88812","28.00","DUALSPOT-UV-BLUE-GREEN-RED-IR","735243","708677","906756","14.835339","4.178600","-0.013227","722374","896223","763839","10.925140","2.847488","-0.041045","822379","903735","815543","9.131170","2.244091","-0.089043","822321","926973","866571","7.342016","1.671081","-0.166597","709977","849058","950565","5.433367","1.406745","-0.145689","5032","4439","4207","5267","4061","3636","5133","3397","2831","5013","2882","2255","5330","3585","2975",""
"MA200-0416","23513","65","1","1.10","1.4","2023-05-12T09:14:00","120","2023/05/12","09:14:00","-15.803343415260315","35.073976807296276","9.1","11","30","64","85","-24800","-534","-1084","13","150","149.67","116.44","33.23","28.25","45.7","15.43","88696","28.00","DUALSPOT-UV-BLUE-GREEN-RED-IR","733376","707156","904942","14.892082","4.193735","-0.006733","721301","895174","763003","10.968646","2.857280","-0.036490","820950","902402","814399","9.169138","2.251696","-0.071266","819463","923967","863834","7.371993","1.676029","-0.163050","708522","847516","948908","5.458921","1.411109","-0.216660","2862","2674","2601","2769","2184","1978","2707","1900","1637","2582","1493","1173","3065","1834","1404",""
"MA200-0416","23514","65","1","1.10","1.4","2023-05-12T09:14:30","120","2023/05/12","09:14:30","-15.802399098873138","35.07598315179348","8.2","11","30","64","86","-25172","-248","-828","13","150","150.56","116.75","33.81","28.28","45.5","15.38","88580","28.00","DUALSPOT-UV-BLUE-GREEN-RED-IR","733507","707832","906093","14.986982","4.220922","-0.001006","722010","896654","764454","11.047500","2.878673","-0.008447","820997","902984","815105","9.239269","2.268690","-0.029879","821030","926244","866038","7.428894","1.687711","-0.081292","709309","848713","950348","5.502340","1.422094","-0.037299","4774","4723","4703","5006","4690","4579","4987","4173","3908","4889","3466","3048","5195","4539","4310",""
"MA200-0416","23515","65","1","1.10","1.4","2023-05-12T09:15:00","120","2023/05/12","09:15:00","-15.801375269889832","35.07769764959812","7.1","11","30","64","85","-24672","320","-1952","13","150","149.66","116.38","33.28","28.30","45.3","15.33","88564","28.00","DUALSPOT-UV-BLUE-GREEN-RED-IR","734169","708734","907410","15.061007","4.242759","0.002790","721522","896356","764270","11.105617","2.893257","-0.017883","821393","903688","815801","9.288884","2.280765","-0.026490","821981","927487","867291","7.469096","1.695972","-0.076681","709066","848651","950329","5.535194","1.429783","-0.058586","3736","3853","3899","3702","3248","3088","3539","3012","2840","3465","2490","2203","3943","3227","2977",""
"MA200-0416","23516","65","1","1.10","1.4","2023-05-12T09:15:30","120","2023/05/12","09:15:30","-15.800443351268768","35.07926998287439","6.1","11","30","64","85","-25384","-168","524","13","150","150.20","116.22","33.98","28.33","45.2","15.34","88532","28.00","DUALSPOT-UV-BLUE-GREEN-RED-IR","733368","708073","906557","15.078569","4.247720","-0.003288","721477","896403","764321","11.118180","2.894516","-0.720563","821393","903772","815864","9.298558","2.279472","0.223130","815688","920498","860708","7.477272","1.693630","0.219495","709283","848958","950680","5.543443","1.428970","0.405407","887","857","845","801","274","88","691","-315","-642","705","-691","-1100","991","-334","-794",""
"MA200-0416","23517","65","1","1.10","1.4","2023-05-12T09:16:00","120","2023/05/12","09:16:00","-15.799258887767792","35.0796108096838","6.8","11","30","64","85","-24720","971","-328","13","150","150.11","116.17","33.94","28.38","45.2","15.36","88512","28.06","DUALSPOT-UV-BLUE-GREEN-RED-IR","733660","708620","907406","15.127254","4.259838","-0.017169","721516","896712","764675","11.158045","2.902193","-0.076550","821261","903907","816041","9.333814","2.286207","-0.090705","816023","921091","861318","7.505012","1.698845","-0.113884","708979","848729","950470","5.565239","1.433254","-0.141628","2461","2096","1954","2543","1676","1371","2519","1647","1364","2395","1541","1291","2620","1763","1465",""
"MA200-0416","23518","65","1","1.10","1.4","2023-05-12T09:16:30","120","2023/05/12","09:16:30","-15.798603653907776","35.07854214310646","4.3","11","30","64","85","-24408","1596","-1536","13","150","149.90","116.31","33.59","28.40","45.0","15.32","88588","28.06","DUALSPOT-UV-BLUE-GREEN-RED-IR","734879","709926","909143","15.155300","4.264816","-0.076291","722412","898003","765792","11.181317","2.907867","-0.023832","821035","903780","815969","9.352053","2.288585","-0.283478","816018","921232","861428","7.518010","1.698124","0.379384","708535","848282","949976","5.576996","1.434564","-0.855350","1416","870","656","1483","1252","1171","1301","587","356","1121","-215","-605","1412","544","244",""
"MA200-0416","23519","65","1","1.10","1.4","2023-05-12T09:17:00","120","2023/05/12","09:17:00","-15.798256814479828","35.07794180512428","0.1","11","30","64","85","-25036","1624","-2584","13","150","149.98","116.47","33.51","28.42","45.0","15.33","88636","28.13","DUALSPOT-UV-BLUE-GREEN-RED-IR","735101","710303","909674","15.180296","4.270113","-0.038101","722683","898508","766243","11.198771","2.908992","1.954975","821944","904948","817026","9.369338","2.290016","-1.756794","817159","922630","862730","7.531803","1.699060","-9.943172","709382","849379","951240","5.588636","1.436377","-0.288545","1260","928","798","1110","249","-53","1232","354","70","1188","280","15","1396","755","534",""
"MA200-0416","23520","65","1","1.10","1.4","2023-05-12T09:17:30","120","2023/05/12","09:17:30","-15.79811030626297","35.077695325016975","2.6","11","30","64","85","-24980","756","-1803","13","150","150.68","116.32","34.36","28.44","45.0","15.37","88636","28.13","DUALSPOT-UV-BLUE-GREEN-RED-IR","730575","706052","904288","15.208828","4.277364","-0.015837","719110","894183","762573","11.219916","2.913183","-0.071315","817817","900522","813026","9.386016","2.292156","-0.316752","817521","923160","863269","7.545535","1.699185","0.661090","710168","850437","952419","5.601230","1.438567","-0.221359","1440","1239","1161","1347","904","748","1190","517","299","1184","36","-296","1512","890","675",""
"MA200-0416","23521","65","1","1.10","1.4","2023-05-12T09:18:00","120","2023/05/12","09:18:00","-15.797878384590149","35.077299647033215","1.6","11","30","64","85","-25104","372","-1536","13","150","150.66","116.42","34.24","28.47","45.0","15.39","88644","28.19","DUALSPOT-UV-BLUE-GREEN-RED-IR","730471","706095","904397","15.231823","4.283348","-0.012543","719128","894361","762772","11.238450","2.916902","-0.066863","817869","900665","813171","9.399862","2.293163","-23.977137","819141","925045","865009","7.554510","1.699214","0.612411","710245","850579","952583","5.608959","1.438903","1.400667","1160","1026","974","1180","805","673","987","244","4","773","8","-213","927","137","-135",""
"MA200-0416","23522","65","1","1.10","1.4","2023-05-12T09:18:30","120","2023/05/12","09:18:30","-15.797403514385223","35.07647632062435","5.2","11","30","64","85","-24776","600","-2061","13","150","149.87","116.38","33.49","28.49","45.0","15.40","88644","28.19","DUALSPOT-UV-BLUE-GREEN-RED-IR","729382","706482","905514","15.439598","4.336651","-0.011514","717788","894100","762915","11.398140","2.955383","-0.024685","816963","900903","813752","9.536875","2.325951","-0.030051","818288","925180","865421","7.666900","1.724905","-0.047133","709902","851007","953342","5.700916","1.458796","-0.087838","10486","9348","8903","10172","8517","7938","9774","8128","7597","9689","7695","7117","11038","8297","7355",""
"MA200-0416","23523","65","1","1.10","1.4","2023-05-12T09:19:00","120","2023/05/12","09:19:00","-15.796808302402496","35.075455494225025","4.1","11","30","64","85","-24553","1150","-4500","13","150","150.62","117.34","33.28","28.52","44.9","15.39","88732","28.19","DUALSPOT-UV-BLUE-GREEN-RED-IR","726576","705677","905589","15.758520","4.429422","0.002186","715714","893559","763185","11.652754","3.026188","-0.002322","814776","900363","813925","9.754939","2.384424","-0.007978","815718","923869","864755","7.845588","1.770025","-0.021031","708008","849818","952462","5.841789","1.496873","-0.011539","15963","16373","16533","16085","15771","15661","15428","14586","14314","15277","13602","13113","16770","15983","15711",""
"MA200-0416","23524","65","1","1.10","1.4","2023-05-12T09:19:30","120","2023/05/12","09:19:30","-15.795206665992737","35.07613015174866","7.1","11","30","64","85","-24640","3207","-2016","13","150","150.56","116.39","34.17","28.53","44.8","15.36","88796","28.19","DUALSPOT-UV-BLUE-GREEN-RED-IR","726295","705598","905570","15.933905","4.484197","0.005120","715470","893443","763143","11.801687","3.070974","0.002696","818878","905022","818210","9.890009","2.423638","-0.001506","816150","924473","865359","7.960644","1.801663","-0.011201","708273","850262","953016","5.927772","1.520934","-0.011344","8850","9415","9637","9486","9716","9798","9634","9528","9493","9917","9289","9105","10320","9836","9669",""
"MA200-0416","23525","65","1","1.10","1.4","2023-05-12T09:20:00","120","2023/05/12","09:20:00","-15.794340014457703","35.0753969848156","7.0","11","30","64","85","-24852","2212","1216","13","150","149.39","116.15","33.24","28.55","44.7","15.35","88944","28.19","DUALSPOT-UV-BLUE-GREEN-RED-IR","725196","704912","904824","16.001970","4.497980","-0.042834","714939","893125","762953","11.847829","3.081035","-0.040012","814021","899957","813660","9.925038","2.429151","-0.148520","815878","924382","865323","7.988405","1.807600","-0.060703","708233","850349","953151","5.949829","1.525116","-0.139593","3442","2435","2042","2944","2244","1997","2503","1377","1012","2397","1792","1614","2652","1757","1449",""
"MA200-0416","23526","65","1","1.10","1.4","2023-05-12T09:20:30","120","2023/05/12","09:20:30","-15.793662190437317","35.07404864579439","4.1","11","30","64","85","-24760","1028","1076","13","150","149.51","116.27","33.24","28.56","44.6","15.34","89008","28.13","DUALSPOT-UV-BLUE-GREEN-RED-IR","724691","704556","904400","16.028061","4.503690","-0.030162","714447","892623","762549","11.868426","3.083885","-0.193992","818138","904620","817876","9.945555","2.434712","-0.007404","815466","924004","864986","8.002301","1.808780","-1.235919","707224","849204","951879","5.960785","1.526012","-3.960530","1318","1009","888","1313","635","397","1464","1389","1364","1199","356","110","1316","376","53",""
"MA200-0416","23527","65","1","1.10","1.4","2023-05-12T09:21:00","120","2023/05/12","09:21:00","-15.792583048343658","35.07313581556082","6.6","11","30","64","85","-24940","844","-1096","13","150","150.16","116.35","33.81","28.57","44.7","15.36","88900","28.19","DUALSPOT-UV-BLUE-GREEN-RED-IR","725199","705155","905221","16.047384","4.508188","-0.023859","715134","893616","763410","11.883033","3.085315","-0.721276","813016","899074","812887","9.956141","2.433806","0.241245","814678","923233","864268","8.012949","1.808291","0.376693","707460","849567","952296","5.971134","1.526547","1.770429","975","781","705","930","313","97","755","-222","-538","918","-145","-454","1242","221","-129",""
"MA200-0416","23528","65","1","1.10","1.4","2023-05-12T09:21:30","120","2023/05/12","09:21:30","-15.791561663150787","35.071905978024006","6.7","11","30","64","85","-25188","-352","107","13","150","149.57","116.19","33.38","28.59","44.6","15.36","88864","28.19","DUALSPOT-UV-BLUE-GREEN-RED-IR","725381","705467","905692","16.076910","4.516374","-0.003162","714967","893553","763392","11.906704","3.091699","-0.007560","813745","900017","813779","9.978116","2.439236","-0.022755","816194","925058","866018","8.028251","1.812338","-0.014208","708103","850409","953238","5.979965","1.528711","-0.041145","1492","1440","1420","1510","1417","1385","1570","1350","1279","1321","1216","1186","1061","905","852",""
"MA200-0416","23529","65","1","1.10","1.4","2023-05-12T09:22:00","120","2023/05/12","09:22:00","-15.789850890636444","35.07274130731821","6.2","11","30","64","85","-25188","2688","-268","13","150","150.59","116.51","34.08","28.61","44.5","15.34","88932","28.25","DUALSPOT-UV-BLUE-GREEN-RED-IR","723920","704166","904113","16.100340","4.524027","0.008670","714289","892818","762822","11.923661","3.096145","-0.013639","816872","903554","817029","9.990980","2.441930","-0.060265","814136","922831","863929","8.038649","1.812624","0.857585","706673","848784","951429","5.989698","1.530890","-0.076797","1181","1318","1372","1078","967","928","916","656","572","895","84","-151","1167","893","799",""
"MA200-0416","23530","65","1","1.10","1.4","2023-05-12T09:22:30","120","2023/05/12","09:22:30","-15.788352608680725","35.07355581223965","5.5","12","30","64","85","-24352","1968","-892","13","150","149.70","116.43","33.27","28.64","44.3","15.30","89052","28.25","DUALSPOT-UV-BLUE-GREEN-RED-IR","727042","707583","908693","16.175756","4.547662","0.007335","715675","894968","764792","11.986214","3.114647","0.003774","814765","901619","815365","10.045506","2.456569","-0.008661","811309","919936","861296","8.084450","1.824677","-0.014081","708857","851605","954700","6.024305","1.540269","-0.012347","3804","4172","4316","3982","4122","4171","3888","3653","3576","3946","3634","3543","4152","3938","3864",""
"MA200-0416","23531","65","1","1.10","1.4","2023-05-12T09:23:00","120","2023/05/12","09:23:00","-15.787045776844025","35.07402581721544","6.2","11","30","64","85","-24612","2072","-1108","13","150","150.16","116.83","33.33","28.67","44.2","15.27","89152","28.31","DUALSPOT-UV-BLUE-GREEN-RED-IR","721001","701828","901341","16.200521","4.554332","-0.005224","716995","896729","766310","12.003004","3.117956","-0.059857","815422","902449","816147","10.059596","2.458846","-0.133994","811875","920656","862012","8.095094","1.825374","-23.509642","709267","852135","955325","6.032608","1.541994","-0.095547","1245","1175","1147","1065","735","620","1001","566","426","914","209","4","992","722","629",""
"MA200-0416","23532","65","1","1.10","1.4","2023-05-12T09:23:30","120","2023/05/12","09:23:30","-15.785654723644257","35.07474897801876","5.8","11","30","64","85","-24620","1743","-384","13","150","149.76","115.95","33.81","28.69","44.1","15.25","89216","28.38","DUALSPOT-UV-BLUE-GREEN-RED-IR","721311","702253","901975","16.226526","4.561332","-0.007385","712318","891036","761477","12.022053","3.121502","-0.079368","815243","902369","816092","10.077709","2.463221","-0.029165","813073","922114","863363","8.107372","1.827234","-0.201601","708636","851466","954574","6.043047","1.543999","-0.139973","1317","1215","1176","1217","777","623","1296","1074","1002","1062","551","403","1257","828","681",""
"MA200-0416","23533","65","1","1.10","1.4","2023-05-12T09:24:00","120","2023/05/12","09:24:00","-15.784638941287994","35.07559113949537","3.8","11","30","64","85","-24752","3932","812","13","150","150.01","116.16","33.85","28.72","44.0","15.24","89340","28.38","DUALSPOT-UV-BLUE-GREEN-RED-IR","722380","703701","904092","16.311111","4.587194","0.003938","718109","898641","768095","12.078367","3.136390","-0.011840","815563","903029","816813","10.120152","2.473211","-0.033713","813542","922875","864148","8.141518","1.835096","-0.045620","705333","847642","950344","6.067646","1.549451","-0.078054","4277","4488","4570","3593","3261","3144","3033","2450","2261","2949","2330","2150","2958","2250","2007",""
"MA200-0416","23534","65","1","1.10","1.4","2023-05-12T09:24:30","120","2023/05/12","09:24:30","-15.784998536109924","35.076368652284145","3.2","11","30","64","84","-24992","1272","-196","13","150","150.16","116.83","33.33","28.75","43.8","15.22","89400","28.44","DUALSPOT-UV-BLUE-GREEN-RED-IR","720822","702470","902622","16.367714","4.605436","0.009327","712695","892076","762555","12.111650","3.146827","0.009741","814833","902404","816262","10.145573","2.479302","-0.026524","812679","922046","863397","8.159462","1.837420","-0.292398","704842","847116","949779","6.078184","1.551243","-0.195097","2845","3214","3358","2111","2321","2394","1806","1517","1423","1540","699","455","1260","750","576",""
"MA200-0416","23535","65","1","1.10","1.4","2023-05-12T09:25:00","120","2023/05/12","09:25:00","-15.78539913892746","35.076831981539726","2.7","11","30","64","85","-25257","626","561","13","150","150.36","116.31","34.05","28.79","43.9","15.29","89404","28.50","DUALSPOT-UV-BLUE-GREEN-RED-IR","722615","704395","905216","16.405573","4.616226","-0.002332","714127","894021","764250","12.135671","3.150922","-0.106653","816373","904224","817959","10.163678","2.481400","-0.391841","809695","918759","860353","8.172646","1.839208","-0.275712","706558","849247","952166","6.086492","1.551631","1.442842","1911","1861","1841","1531","891","667","1292","511","259","1137","526","349","997","158","-128",""
"MA200-0416","23536","65","1","1.10","1.4","2023-05-12T09:25:30","120","2023/05/12","09:25:30","-15.785876393318176","35.07743398100138","3.2","12","30","64","84","-24640","-2660","-1072","13","150","150.49","116.38","34.11","28.82","43.8","15.27","89400","28.50","DUALSPOT-UV-BLUE-GREEN-RED-IR","723930","705780","907056","16.425947","4.623379","0.013131","715074","895296","765384","12.148123","3.154964","0.010396","812223","899692","813837","10.174774","2.483969","-0.037842","810204","919400","860938","8.180691","1.839584","1.564098","706324","849033","951948","6.093029","1.552753","-0.205377","1028","1231","1311","793","878","907","791","625","571","693","110","-58","784","459","348",""
"MA200-0416","23537","65","1","1.10","1.4","2023-05-12T09:26:00","120","2023/05/12","09:26:00","-15.786670744419098","35.07808081060648","4.6","11","30","64","84","-24780","-2372","-740","13","150","149.45","116.51","32.94","28.85","43.8","15.30","89264","28.56","DUALSPOT-UV-BLUE-GREEN-RED-IR","725305","707176","908917","16.444139","4.627590","-0.020499","716087","896676","766550","12.162477","3.155077","0.345312","813650","901382","815380","10.185453","2.484136","0.491760","812372","921967","863335","8.188341","1.838964","0.307380","708162","851253","954467","6.100214","1.554050","-0.154412","917","750","685","913","25","-285","761","42","-189","658","-188","-434","861","550","443",""
"MA200-0416","23538","65","1","1.10","1.4","2023-05-12T09:26:30","120","2023/05/12","09:26:30","-15.787953078746796","35.07768449187279","5.7","11","30","64","84","-24756","100","272","13","150","149.59","116.21","33.38","28.89","43.7","15.31","89216","28.63","DUALSPOT-UV-BLUE-GREEN-RED-IR","720462","702552","902987","16.459047","4.632524","0.010626","712986","892839","763291","12.171780","3.158516","0.022951","814000","901811","815790","10.194353","2.485561","-0.138513","813071","922808","864114","8.193928","1.838535","0.314527","708462","851672","954932","6.107057","1.554987","-0.386552","753","868","913","593","763","823","635","354","263","482","-128","-305","822","391","244",""
"MA200-0416","23539","65","1","1.10","1.4","2023-05-12T09:27:00","120","2023/05/12","09:27:00","-15.789497673511505","35.07762731611729","6.6","11","30","64","84","-24872","-1803","36","13","150","150.62","116.39","34.23","28.90","43.5","15.26","89136","28.69","DUALSPOT-UV-BLUE-GREEN-RED-IR","725727","707747","909709","16.475021","4.637630","0.006535","711440","890956","761707","12.182412","3.161312","-0.013750","813293","901097","815159","10.203422","2.487177","-0.106795","812627","922347","863693","8.201467","1.838731","0.820651","707884","851062","954237","6.113756","1.555641","-1.408265","806","876","903","677","605","580","646","391","309","649","57","-113","804","266","83",""
"MA200-0416","23540","65","1","1.10","1.4","2023-05-12T09:27:30","120","2023/05/12","09:27:30","-15.790222823619843","35.0783881470561","4.8","12","30","64","84","-24408","-2340","-88","13","150","150.16","115.95","34.21","28.95","43.4","15.26","89008","28.69","DUALSPOT-UV-BLUE-GREEN-RED-IR","721908","704134","905153","16.495392","4.642559","-0.020252","714119","894447","764697","12.195521","3.163087","-0.221644","810832","898459","812772","10.213172","2.487575","0.803356","814901","925028","866188","8.209209","1.838988","0.966417","709265","852753","956154","6.121418","1.557069","-0.159205","1031","846","773","838","385","226","698","96","-96","669","75","-96","923","583","467",""
"MA200-0416","23541","65","1","1.10","1.4","2023-05-12T09:28:00","120","2023/05/12","09:28:00","-15.790975570678711","35.07887281477451","7.2","11","30","64","84","-24620","-1132","-172","13","150","149.47","116.01","33.46","28.99","43.3","15.24","88900","28.75","DUALSPOT-UV-BLUE-GREEN-RED-IR","719663","702640","903480","16.604710","4.668108","-0.021605","712633","893190","763761","12.265230","3.178138","-0.041916","813893","902321","816360","10.263085","2.496611","-0.094418","814645","925051","866276","8.244632","1.844943","-0.140962","704160","846831","949568","6.146831","1.561307","-0.211753","5534","4484","4073","4454","3333","2942","3572","2241","1814","3063","1785","1416","3060","1769","1329",""
"MA200-0416","23542","65","1","1.10","1.4","2023-05-12T09:28:30","120","2023/05/12","09:28:30","-15.792485058307648","35.07800365239382","7.6","11","30","64","84","-24492","1372","-188","13","150","149.96","116.23","33.73","29.02","43.1","15.22","88888","28.75","DUALSPOT-UV-BLUE-GREEN-RED-IR","719411","704140","906701","17.002724","4.809377","0.013949","707869","889257","761311","12.622701","3.296226","0.012486","808704","898522","813766","10.587772","2.601033","0.011841","809459","920935","863202","8.524178","1.931322","0.009053","704159","848047","951562","6.354669","1.625757","0.013256","20113","24598","26366","22800","25951","27065","23192","25700","26516","24130","25690","26147","24979","26689","27277",""
"MA200-0416","23543","65","1","1.10","1.4","2023-05-12T09:29:00","120","2023/05/12","09:29:00","-15.793985068798065","35.076856322586536","5.8","11","30","64","84","-25691","-25","1495","13","150","149.67","116.06","33.61","29.06","43.0","15.21","88892","28.81","DUALSPOT-UV-BLUE-GREEN-RED-IR","720282","705258","908286","17.066708","4.831535","0.012565","708267","890056","762098","12.675930","3.311611","-0.000227","809100","899203","814465","10.633889","2.613079","-0.014063","810121","921917","864142","8.563678","1.939946","-0.054500","704629","848756","952398","6.385999","1.634516","-0.007648","3238","3871","4122","3400","3392","3390","3299","2975","2869","3414","2574","2328","3771","3640","3595",""
"MA200-0416","23544","65","1","1.10","1.4","2023-05-12T09:29:30","120","2023/05/12","09:29:30","-15.795295715332031","35.07611481100321","6.9","11","30","64","84","-25020","-1176","-1380","13","150","149.90","116.11","33.79","29.09","42.9","15.19","88824","28.88","DUALSPOT-UV-BLUE-GREEN-RED-IR","720601","705757","909018","17.096506","4.839277","-0.010276","708716","890765","762751","12.695851","3.316887","-0.010911","809219","899493","814754","10.651410","2.616495","-0.073002","810915","922993","865200","8.576039","1.940596","2.095629","705187","849527","953300","6.396389","1.637153","-0.032407","1507","1345","1282","1271","1157","1117","1252","839","704","1068","192","-62","1249","1090","1035",""
"MA200-0416","23545","65","1","1.10","1.4","2023-05-12T09:30:00","120","2023/05/12","09:30:00","-15.796797215938568","35.07550431787968","3.6","11","30","64","84","-25465","-7","1573","13","150","149.51","116.03","33.48","29.14","42.8","15.19","88748","28.88","DUALSPOT-UV-BLUE-GREEN-RED-IR","715393","700959","903027","17.162900","4.860681","0.008201","709745","892374","764200","12.740623","3.328336","-0.014257","809706","900227","815506","10.686570","2.625023","-0.025033","811606","923890","866112","8.603920","1.947081","-0.038839","705491","850010","953899","6.414861","1.641594","-0.044989","3360","3755","3911","2860","2535","2420","2515","2115","1984","2410","1943","1806","2224","1853","1725",""
"MA200-0416","23546","65","1","1.10","1.4","2023-05-12T09:30:30","120","2023/05/12","09:30:30","-15.7972452044487","35.076289154589176","3.9","11","30","64","84","-24968","-1735","-2060","13","150","150.23","115.63","34.59","29.16","42.7","15.18","88684","28.94","DUALSPOT-UV-BLUE-GREEN-RED-IR","711130","699892","903186","17.708076","5.011154","-0.006836","706628","891490","764396","13.158836","3.439361","-0.013672","807116","899992","816089","11.035851","2.713233","-0.023604","804179","917702","860943","8.887203","2.016872","-0.033293","704543","850417","954950","6.634105","1.698624","-0.032075","27692","25548","24702","26811","23792","22723","25077","21169","19895","24578","20240","18966","26486","23029","21839",""
"MA200-0416","23547","65","1","1.10","1.4","2023-05-12T09:31:00","120","2023/05/12","09:31:00","-15.798013031482697","35.07761248201132","7.0","12","30","64","84","-23708","-644","-2596","13","150","149.94","115.75","34.18","29.20","42.6","15.19","88656","28.94","DUALSPOT-UV-BLUE-GREEN-RED-IR","711143","701317","905685","18.056806","5.105678","-0.007168","706452","892643","765800","13.414516","3.504921","-0.016187","806351","900348","816791","11.256009","2.768755","-0.021345","803333","917701","861257","9.066963","2.059054","-0.039926","703726","850198","954984","6.779844","1.732725","-0.057083","17695","16241","15667","16375","14216","13453","15790","13484","12731","15580","12379","11439","17588","13935","12680",""
"MA200-0416","23548","65","1","1.10","1.4","2023-05-12T09:31:30","120","2023/05/12","09:31:30","-15.798887014389038","35.07910680770874","5.3","11","30","64","84","-24872","-780","-1996","13","150","149.55","115.55","34.01","29.23","42.5","15.17","88560","29.00","DUALSPOT-UV-BLUE-GREEN-RED-IR","711981","702438","907334","18.119102","5.124693","0.002717","702019","887358","761352","13.460074","3.517521","-0.006588","807178","901508","817937","11.293411","2.778965","-0.009412","804996","919815","863264","9.095442","2.065074","-0.063048","700071","845909","950249","6.803955","1.739312","-0.015665","3166","3284","3330","2922","2747","2684","2687","2492","2429","2472","1776","1571","2914","2706","2634",""
"MA200-0416","23549","65","1","1.10","1.4","2023-05-12T09:32:00","120","2023/05/12","09:32:00","-15.7997407913208","35.07980764657259","3.8","11","30","64","84","-24855","516","-138","13","150","150.09","115.71","34.38","29.27","42.3","15.13","88516","29.00","DUALSPOT-UV-BLUE-GREEN-RED-IR","711778","702662","907883","18.179182","5.143985","0.005566","702828","888840","762795","13.510337","3.531969","-0.003416","806115","900777","817417","11.335142","2.789622","-0.020210","804485","919613","863198","9.129874","2.072650","-0.055376","699671","845710","950110","6.831318","1.746557","-0.025086","3049","3295","3393","3220","3115","3078","2994","2573","2436","2985","2210","1982","3303","2943","2820",""
"MA200-0416","23550","65","1","1.10","1.4","2023-05-12T09:32:30","120","2023/05/12","09:32:30","-15.800196588039398","35.080443643033504","6.2","11","30","64","84","-25270","720","-1316","13","150","149.66","116.13","33.53","29.30","42.0","15.07","88556","29.06","DUALSPOT-UV-BLUE-GREEN-RED-IR","710101","702569","908752","18.521644","5.257303","0.009138","700991","888207","762901","13.796046","3.621364","0.007376","800954","896509","814125","11.588144","2.867001","0.006289","804857","921389","865398","9.342040","2.134812","0.001994","699597","846531","951442","6.989050","1.792407","0.001269","17321","19848","20850","18239","19762","20305","18087","19158","19509","18330","18598","18677","18974","19100","19144",""
"MA200-0416","23551","65","1","1.10","1.4","2023-05-12T09:33:00","120","2023/05/12","09:33:00","-15.799340009689331","35.08234365284443","8.5","11","30","64","84","-24772","1568","-520","13","150","149.73","116.21","33.52","29.34","41.9","15.06","88660","29.06","DUALSPOT-UV-BLUE-GREEN-RED-IR","708743","701520","907566","18.600772","5.281162","0.003194","699824","886984","761961","13.860365","3.640575","0.003303","800092","895833","813587","11.644761","2.881527","-0.014804","803334","919864","864029","9.388854","2.146887","-0.016931","698378","845206","950046","7.027536","1.804169","0.010540","3999","4180","4252","4103","4248","4299","4044","3597","3450","4041","3614","3487","4626","4901","4996",""
"MA200-0416","23552","65","1","1.10","1.4","2023-05-12T09:33:30","120","2023/05/12","09:33:30","-15.79742181301117","35.083376817405224","8.2","11","30","64","84","-24652","1788","-540","13","150","150.21","116.67","33.55","29.36","41.7","15.01","88760","29.13","DUALSPOT-UV-BLUE-GREEN-RED-IR","704723","697724","902731","18.636912","5.292127","0.003846","701673","889514","764176","13.885703","3.646833","-0.017010","800965","896943","814629","11.665928","2.886647","-0.022905","806162","923219","867220","9.404433","2.149963","-0.072762","699854","847110","952186","7.040209","1.805269","-2.186517","1819","1919","1959","1610","1383","1302","1506","1267","1188","1339","919","795","1517","457","92",""
"MA200-0416","23553","65","1","1.10","1.4","2023-05-12T09:34:00","120","2023/05/12","09:34:00","-15.79550451040268","35.08378432691097","7.0","11","30","64","84","-25204","992","-832","13","150","150.49","115.68","34.82","29.39","41.6","14.98","88844","29.13","DUALSPOT-UV-BLUE-GREEN-RED-IR","704876","698028","903211","18.658350","5.298370","-0.002548","702005","890084","764709","13.901376","3.650474","-0.032215","801143","897244","814950","11.677665","2.887529","-26.204571","800284","916610","861039","9.416500","2.150922","-2.186015","699938","847284","952432","7.049209","1.808137","0.010420","1088","1053","1039","1004","775","693","842","210","2","1046","276","48","1086","1151","1173",""
"MA200-0416","23554","65","1","1.10","1.4","2023-05-12T09:34:30","120","2023/05/12","09:34:30","-15.793712794780731","35.0838553160429","6.0","11","30","64","83","-24904","388","164","13","150","149.92","116.02","33.90","29.43","41.4","14.94","88836","29.19","DUALSPOT-UV-BLUE-GREEN-RED-IR","703609","697224","902490","18.759890","5.331430","0.007332","701221","889614","764465","13.980406","3.673275","-0.001261","799986","896431","814325","11.744307","2.906066","-0.005820","798350","914747","859366","9.468840","2.163291","-0.034833","698810","846163","951253","7.088098","1.818187","-0.025993","5140","5727","5960","5049","4985","4962","4768","4539","4463","4526","3660","3403","4682","4140","3954",""
"MA200-0416","23555","65","1","1.10","1.4","2023-05-12T09:35:00","120","2023/05/12","09:35:00","-15.792352735996246","35.08424047380686","4.8","11","30","64","84","-25572","-32","152","13","150","150.43","116.47","33.95","29.46","41.4","14.96","88828","29.19","DUALSPOT-UV-BLUE-GREEN-RED-IR","705859","699785","905976","18.823102","5.349453","-0.001681","698196","886075","761505","14.027291","3.683799","-0.032289","801492","898364","816176","11.783943","2.914964","-0.037308","801754","918916","863338","9.499487","2.168548","-0.120286","700695","848576","954040","7.112062","1.824700","-0.014089","3187","3117","3089","2984","2298","2053","2825","2175","1962","2639","1553","1232","2874","2679","2612",""
"MA200-0416","23556","65","1","1.10","1.4","2023-05-12T09:35:30","120","2023/05/12","09:35:30","-15.791072130203247","35.08491798490286","5.4","11","30","64","84","-25184","2072","584","13","150","150.16","116.19","33.97","29.49","41.4","14.99","88880","29.25","DUALSPOT-UV-BLUE-GREEN-RED-IR","705560","700181","906899","18.982114","5.403066","0.009292","698544","887185","762740","14.137705","3.716011","-0.000214","800828","898212","816232","11.875584","2.939951","-0.008291","801100","918623","863206","9.571380","2.186263","-0.026740","699680","847623","953081","7.160492","1.835999","-0.052093","8038","9269","9759","7044","7029","7023","6548","6106","5961","6207","5231","4942","5822","4646","4240",""
"MA200-0416","23557","65","1","1.10","1.4","2023-05-12T09:36:00","120","2023/05/12","09:36:00","-15.789680540561676","35.085837319493294","7.2","11","30","64","83","-24248","928","352","13","150","150.03","116.51","33.52","29.52","41.2","14.97","88972","29.25","DUALSPOT-UV-BLUE-GREEN-RED-IR","703022","698633","905531","19.141978","5.453443","0.006143","696357","885409","761487","14.263983","3.751791","-0.001472","799667","897766","816107","11.982511","2.967702","-0.012486","800400","918588","863392","9.660629","2.207392","-0.030849","699543","848012","953705","7.228973","1.853653","-0.022486","8059","8827","9133","8034","7913","7869","7619","6873","6627","7685","6324","5920","8211","7357","7062",""
"MA200-0416","23558","65","1","1.10","1.4","2023-05-12T09:36:30","120","2023/05/12","09:36:30","-15.788333296775818","35.08704648911953","5.6","11","30","64","83","-24220","1179","20","13","150","149.45","115.95","33.49","29.56","41.2","14.98","89008","29.25","DUALSPOT-UV-BLUE-GREEN-RED-IR","705079","700993","908723","19.246250","5.486183","0.005633","698521","888406","764201","14.336272","3.772247","-0.001986","796027","893929","812701","12.044657","2.982825","-0.022006","802018","920654","865405","9.711295","2.219337","-0.032223","700337","849136","954998","7.266535","1.862005","-0.061732","5282","5741","5924","4621","4527","4493","4449","3748","3517","4383","3577","3339","4525","3483","3123",""
"MA200-0416","23559","65","1","1.10","1.4","2023-05-12T09:37:00","120","2023/05/12","09:37:00","-15.788141667842865","35.08748031407595","9.7","12","30","64","84","-24548","-4039","-984","13","150","150.36","116.19","34.17","29.59","41.1","14.99","88992","29.31","DUALSPOT-UV-BLUE-GREEN-RED-IR","705867","701851","909902","19.266612","5.492271","0.001190","698285","888228","764040","14.349940","3.773147","1.387873","796634","894715","813398","12.056377","2.984124","-0.399671","803273","922173","866838","9.720800","2.219468","0.540465","696508","844558","949871","7.275638","1.863949","-0.080013","1029","1046","1053","872","195","-46","837","315","143","820","38","-192","1094","794","691",""
"MA200-0416","23560","65","1","1.10","1.4","2023-05-12T09:37:30","120","2023/05/12","09:37:30","-15.790510535240173","35.08542814850807","11.2","11","30","64","84","-24604","-420","-855","13","150","149.96","115.67","34.29","29.61","41.1","14.99","88908","29.31","DUALSPOT-UV-BLUE-GREEN-RED-IR","696191","694929","902645","19.785332","5.663112","0.006804","695546","887583","764599","14.770331","3.903770","0.004161","794308","894605","814299","12.418425","3.093778","0.002263","795091","914975","860890","10.019734","2.306562","-0.002276","699737","849918","956593","7.489935","1.927052","-0.001207","26339","29264","30436","26942","28240","28706","25985","26549","26737","25927","25482","25349","25880","25707","25648",""
"MA200-0416","23561","65","1","1.10","1.4","2023-05-12T09:38:00","120","2023/05/12","09:38:00","-15.792383015155792","35.08430231362581","4.6","11","30","64","83","-24548","1632","-479","13","150","149.40","115.86","33.54","29.63","40.9","14.96","88836","29.31","DUALSPOT-UV-BLUE-GREEN-RED-IR","694120","694144","902471","20.114794","5.774137","0.009297","694428","887475","765004","15.022381","3.981990","0.005934","792420","893634","813850","12.634746","3.157102","0.001156","793720","914397","860689","10.197587","2.355957","-0.005481","698812","849419","956328","7.617746","1.963670","-0.001865","16703","19442","20545","16128","17288","17706","15501","15674","15731","15401","14774","14586","15411","15251","15195",""
"MA200-0416","23562","65","1","1.10","1.4","2023-05-12T09:38:30","120","2023/05/12","09:38:30","-15.793991923332214","35.0839234739542","8.9","11","30","64","83","-25112","164","-256","13","150","149.80","115.79","34.01","29.67","40.7","14.92","88820","29.38","DUALSPOT-UV-BLUE-GREEN-RED-IR","694214","694811","903649","20.189692","5.795032","-0.003740","694655","888353","765944","15.076062","3.995979","-0.012006","792470","894174","814486","12.678816","3.167486","-0.028227","793791","914852","861244","10.230554","2.363366","-0.042958","694132","843981","950288","7.644060","1.969225","-0.079744","3799","3609","3532","3436","3049","2910","3159","2535","2327","2856","2185","1984","3174","2282","1972",""
"MA200-0416","23563","65","1","1.10","1.4","2023-05-12T09:39:00","120","2023/05/12","09:39:00","-15.796715378761292","35.0837279856205","12.9","11","30","64","83","-24496","-1292","1436","13","150","150.09","116.03","34.06","29.70","40.6","14.90","88788","29.38","DUALSPOT-UV-BLUE-GREEN-RED-IR","691680","692854","901501","20.370372","5.855585","0.008136","692773","886537","764652","15.217333","4.039634","0.004389","790865","892902","813550","12.801835","3.203249","-0.001031","792759","914131","860735","10.331598","2.390325","-0.013028","693515","843573","949969","7.717186","1.989898","-0.006808","9146","10440","10963","9025","9500","9671","8802","8716","8687","8736","7940","7700","8804","8477","8364",""
"MA200-0416","23564","65","1","1.10","1.4","2023-05-12T09:39:30","120","2023/05/12","09:39:30","-15.799933195114136","35.08183314651251","15.2","11","30","64","83","-25584","-724","-1827","13","150","150.11","116.47","33.64","29.73","40.5","14.87","88552","29.38","DUALSPOT-UV-BLUE-GREEN-RED-IR","693344","695093","904806","20.481784","5.891603","0.007012","689770","883296","762026","15.306773","4.064716","-0.002681","791791","894448","815145","12.876409","3.224534","-0.001226","794979","917175","863752","10.393485","2.406824","-0.010694","694574","845225","951948","7.763834","2.002342","-0.014762","5618","6289","6560","5692","5527","5468","5315","5253","5232","5330","4920","4797","5594","5167","5019",""
"MA200-0416","23565","65","1","1.10","1.4","2023-05-12T09:40:00","120","2023/05/12","09:40:00","-15.800656378269196","35.079121984541416","13.2","11","30","64","83","-25336","-744","32","13","150","149.99","115.60","34.39","29.75","40.4","14.84","88524","29.44","DUALSPOT-UV-BLUE-GREEN-RED-IR","691331","694924","905774","20.889146","6.030521","0.008174","687559","882528","762216","15.653947","4.176134","0.006209","790179","894557","816028","13.182523","3.318792","0.003407","793631","917248","864493","10.653723","2.484477","0.000386","693626","845150","952424","7.960975","2.063073","0.005768","20697","23729","24960","22263","24021","24660","21984","22758","23018","22585","22657","22678","23823","24672","24970",""
"MA200-0416","23566","65","1","1.10","1.4","2023-05-12T09:40:30","120","2023/05/12","09:40:30","-15.80273848772049","35.07557798177004","14.0","11","30","64","83","-25092","1460","604","13","150","150.09","115.59","34.50","29.76","40.3","14.82","88588","29.38","DUALSPOT-UV-BLUE-GREEN-RED-IR","689331","693159","903608","20.936502","6.044660","0.000023","685881","880564","760602","15.691284","4.186649","-0.005324","788212","892524","814227","13.214373","3.326809","-0.020049","790988","914369","861820","10.679372","2.490311","-0.042093","691870","843176","950248","7.979904","2.065479","-0.430672","2406","2407","2407","2394","2259","2209","2287","1929","1808","2226","1696","1535","2287","974","515",""
"MA200-0416","23567","65","1","1.10","1.4","2023-05-12T09:41:00","120","2023/05/12","09:41:00","-15.805120766162872","35.075085148215294","13.0","12","30","64","83","-24436","996","479","13","150","150.23","115.75","34.47","29.78","40.2","14.79","88644","29.38","DUALSPOT-UV-BLUE-GREEN-RED-IR","690151","694149","905002","20.977768","6.056476","-0.002734","687252","882547","762365","15.723901","4.195398","-0.009959","788361","892869","814592","13.243314","3.334951","-0.006031","791695","915345","862773","10.701128","2.493894","-0.130640","692226","843699","950858","7.997045","2.070434","-0.005160","2093","2013","1980","2088","1881","1806","2075","1960","1922","1885","1042","786","2068","2007","1986",""
"MA200-0416","23568","65","1","1.10","1.4","2023-05-12T09:41:30","120","2023/05/12","09:41:30","-15.807364642620087","35.0760854780674","11.1","11","30","64","83","-24554","-1145","920","13","150","149.81","115.05","34.76","29.78","40.1","14.75","0","0.00","DUALSPOT-UV-BLUE-GREEN-RED-IR","687523","691594","901710","20.999444","6.063328","0.002905","689259","885220","764709","15.739440","4.199774","-0.006497","786816","891230","813068","13.256518","3.337574","-0.063725","789361","912729","860305","10.712262","2.495885","-0.106196","690730","841948","948910","8.005167","2.071027","5.584633","1106","1157","1178","1001","933","908","952","626","516","970","574","454","986","238","-22",""
"MA200-0416","23569","65","1","1.10","1.4","2023-05-12T09:42:00","120","2023/05/12","09:42:00","-15.809387028217316","35.075517654418945","11.6","12","30","64","83","-24612","1380","-644","13","150","149.45","115.31","34.13","29.79","39.8","14.67","0","0.00","DUALSPOT-UV-BLUE-GREEN-RED-IR","688936","693121","903803","21.021610","6.070659","0.006744","690391","886837","766143","15.756384","4.205316","0.007965","787873","892476","814312","13.271598","3.342491","0.009018","790914","914600","862122","10.723151","2.498459","-0.033133","691644","843093","950243","8.016271","2.074103","-0.011837","1129","1261","1315","1089","1203","1245","1085","1196","1233","947","756","699","1345","1258","1228",""
"MA200-0416","23570","65","1","1.10","1.4","2023-05-12T09:42:30","120","2023/05/12","09:42:30","-15.810551881790161","35.07454548031092","6.4","11","30","64","83","-25025","-2066","-666","13","150","149.59","115.59","34.01","29.80","39.9","14.72","88596","29.38","DUALSPOT-UV-BLUE-GREEN-RED-IR","688847","693220","904043","21.055304","6.081066","0.003110","690703","887375","766641","15.778846","4.209150","-0.084975","787618","892364","814232","13.291842","3.345507","-0.145744","790756","914512","862054","10.737522","2.499938","-0.518558","691468","842985","950121","8.027000","2.075770","-0.218092","1712","1797","1832","1440","835","615","1454","736","495","1247","436","189","1296","684","471",""
"MA200-0416","23571","65","1","1.10","1.4","2023-05-12T09:43:00","120","2023/05/12","09:43:00","-15.811307847499847","35.076028659939766","6.0","11","30","64","83","-24632","2712","780","13","150","150.14","116.34","33.81","29.81","39.9","14.73","88656","29.38","DUALSPOT-UV-BLUE-GREEN-RED-IR","690465","694991","906416","21.087346","6.089876","-0.003888","686810","882524","762501","15.804546","4.217214","0.006203","789020","894062","815776","13.310613","3.349047","-0.066371","792396","916532","863941","10.753912","2.503193","-0.065388","692180","843918","951196","8.039383","2.078683","-0.042976","1617","1530","1495","1637","1768","1815","1339","869","711","1413","965","829","1486","1203","1105",""
"MA200-0416","23572","65","1","1.10","1.4","2023-05-12T09:43:30","120","2023/05/12","09:43:30","-15.812641322612762","35.0760408192873","5.7","11","30","64","83","-24853","561","507","13","150","150.03","115.95","34.08","29.83","39.9","14.76","88708","29.44","DUALSPOT-UV-BLUE-GREEN-RED-IR","690379","695003","906498","21.109832","6.098013","0.011621","687124","883020","762965","15.819806","4.220075","-0.061657","788923","894064","815810","13.324392","3.352904","-0.005111","793648","918057","865432","10.765090","2.505922","-0.026247","693053","845008","952463","8.045837","2.080417","-0.016310","1139","1402","1509","975","622","493","986","939","923","967","803","754","777","710","687",""
"MA200-0416","23573","65","1","1.10","1.4","2023-05-12T09:44:00","120","2023/05/12","09:44:00","-15.814051568508148","35.07596281915903","6.0","11","30","64","83","-24636","2032","608","13","150","149.54","115.49","34.06","29.86","39.9","14.78","88816","29.50","DUALSPOT-UV-BLUE-GREEN-RED-IR","687363","694559","907771","21.611316","6.273346","0.009589","684687","882887","764152","16.268503","4.367519","0.008302","786038","893572","816576","13.717784","3.478551","0.007295","791965","918627","867011","11.096675","2.607215","0.004030","691559","844915","953245","8.297394","2.158636","0.008244","25505","30237","32172","28802","32092","33300","28280","30628","31425","28806","29837","30154","30429","32082","32663",""
"MA200-0416","23574","65","1","1.10","1.4","2023-05-12T09:44:30","120","2023/05/12","09:44:30","-15.815563321113586","35.076133489608765","5.2","11","30","64","82","-24816","712","-215","13","150","149.83","115.79","34.04","29.89","39.9","14.80","88900","29.56","DUALSPOT-UV-BLUE-GREEN-RED-IR","686128","694200","907929","21.866680","6.364795","0.010765","683148","881884","763694","16.483128","4.440464","0.010685","784765","893015","816459","13.916909","3.543287","0.008942","782801","908769","858036","11.268944","2.661770","0.008158","690035","843615","952005","8.424381","2.198661","0.010570","12953","15780","16941","13740","15886","16678","14277","15789","16306","14926","16080","16437","15320","16426","16817",""
"MA200-0416","23575","65","1","1.10","1.4","2023-05-12T09:45:00","120","2023/05/12","09:45:00","-15.817033886909485","35.075906313955784","6.1","12","30","64","83","-25124","1916","-352","13","150","150.58","116.03","34.56","29.91","40.0","14.85","89016","29.63","DUALSPOT-UV-BLUE-GREEN-RED-IR","682737","691035","903959","21.938952","6.390150","0.009146","681872","880531","762625","16.542200","4.458488","0.001959","781757","889848","813654","13.967913","3.558468","-0.000057","785502","912114","861272","11.310943","2.673548","-0.007325","692271","846460","955297","8.456078","2.208522","0.006727","3658","4309","4576","3774","3866","3900","3649","3647","3646","3631","3419","3353","3816","3986","4046",""
"MA200-0416","23576","65","1","1.10","1.4","2023-05-12T09:45:30","120","2023/05/12","09:45:30","-15.818443536758423","35.07605914771557","6.2","11","30","64","83","-25040","1444","-1212","13","150","150.68","116.17","34.51","29.94","40.1","14.93","89096","29.69","DUALSPOT-UV-BLUE-GREEN-RED-IR","683871","692365","905763","21.975624","6.401335","0.001650","682176","881115","763172","16.568628","4.463781","-0.048585","782856","891241","814966","13.990086","3.562676","-0.067218","787727","914847","863868","11.331178","2.676015","-0.298397","688940","842488","950833","8.472099","2.212491","-0.034271","1854","1903","1923","1686","1136","934","1584","1012","816","1747","717","398","1926","1606","1493",""
"MA200-0416","23577","65","1","1.10","1.4","2023-05-12T09:46:00","120","2023/05/12","09:46:00","-15.820045530796051","35.07564448565245","5.4","11","30","64","83","-24670","2641","-470","13","150","150.36","115.98","34.38","29.98","40.2","14.99","89112","29.75","DUALSPOT-UV-BLUE-GREEN-RED-IR","684090","693698","908345","22.169684","6.468071","0.008311","682277","882508","764897","16.731993","4.516090","0.005906","782333","891805","815955","14.129926","3.603941","-0.000446","787993","916162","865530","11.447229","2.709513","-0.003127","688973","843221","952015","8.559799","2.238475","-0.000093","9827","11400","12047","10441","11277","11586","10010","9963","9947","10038","9774","9691","10563","10556","10554",""
"MA200-0416","23578","65","1","1.10","1.4","2023-05-12T09:46:30","120","2023/05/12","09:46:30","-15.821417391300201","35.07544481754303","5.9","11","30","64","83","-24916","2656","640","13","150","150.29","115.71","34.58","30.02","40.1","14.97","89276","29.81","DUALSPOT-UV-BLUE-GREEN-RED-IR","685330","695312","910710","22.300072","6.515760","0.010775","683015","883859","766266","16.845288","4.554636","0.009469","783010","892925","817162","14.235062","3.638368","0.008005","782436","910042","859871","11.537486","2.736544","0.000243","689829","844530","953650","8.629421","2.261032","0.011855","6618","8100","8711","7258","8263","8636","7543","8265","8513","7825","7842","7847","8405","9112","9363",""
"MA200-0416","23579","65","1","1.10","1.4","2023-05-12T09:47:00","120","2023/05/12","09:47:00","-15.822096109390259","35.07578432559967","4.9","12","30","64","83","-24784","1911","550","13","150","149.63","115.31","34.32","30.06","40.1","15.03","89380","29.88","DUALSPOT-UV-BLUE-GREEN-RED-IR","680273","690560","904744","22.385006","6.543848","0.006068","680112","880498","763491","16.911384","4.574371","0.000264","779353","889094","813802","14.292638","3.655654","0.000819","783836","911947","861792","11.584566","2.750063","-0.004170","690251","845276","954573","8.668423","2.270442","-0.039783","4326","4807","5006","4249","4263","4268","4145","4181","4194","4096","3952","3907","4724","3830","3513",""
"MA200-0416","23580","65","1","1.10","1.4","2023-05-12T09:47:30","120","2023/05/12","09:47:30","-15.821947693824768","35.076838821172714","5.6","11","30","64","82","-25188","-19","257","13","150","150.23","115.95","34.28","30.11","40.0","15.04","89432","29.94","DUALSPOT-UV-BLUE-GREEN-RED-IR","679662","690080","904235","22.424280","6.558014","0.010584","679485","879845","762977","16.938152","4.582842","0.005206","778964","888813","813515","14.315381","3.661805","-0.009014","782916","911016","860923","11.602836","2.754259","-0.035620","685036","838947","947419","8.683357","2.274844","-0.000446","1989","2427","2608","1711","1832","1876","1628","1489","1442","1580","1228","1118","1799","1794","1792",""
"MA200-0416","23581","65","1","1.10","1.4","2023-05-12T09:48:00","120","2023/05/12","09:48:00","-15.821805894374847","35.078001491725445","3.3","11","30","64","83","-25248","-1476","-1192","13","150","150.23","116.23","34.00","30.16","40.0","15.05","89384","30.06","DUALSPOT-UV-BLUE-GREEN-RED-IR","682721","693589","909085","22.482030","6.576387","0.004905","681892","883291","766076","16.976840","4.592443","-0.015448","781773","892362","816875","14.345241","3.667611","-0.057126","787539","916689","866353","11.625846","2.757167","-0.250466","688129","842893","951952","8.698895","2.277860","-0.096187","2918","3174","3280","2467","2093","1954","2132","1417","1172","1986","858","507","1867","1239","1016",""
"MA200-0416","23582","65","1","1.10","1.4","2023-05-12T09:48:30","120","2023/05/12","09:48:30","-15.823058545589447","35.07835115492344","5.0","11","30","64","83","-24500","-796","915","13","150","149.59","115.71","33.88","30.20","39.8","15.04","89300","30.13","DUALSPOT-UV-BLUE-GREEN-RED-IR","677586","688871","903192","22.603980","6.615715","0.005547","678880","879856","763257","17.060246","4.616125","-0.002538","781504","892414","817050","14.413322","3.685408","-0.011674","781344","909778","859914","11.678019","2.770376","-0.018475","688774","843925","953195","8.736397","2.287123","-0.030777","6190","6817","7077","5343","5181","5121","4884","4361","4181","4523","3911","3720","4527","3819","3568",""
"MA200-0416","23583","65","1","1.10","1.4","2023-05-12T09:49:00","120","2023/05/12","09:49:00","-15.824442148208618","35.078239813447","5.7","11","30","64","82","-24668","3124","-92","13","150","149.90","115.87","34.02","30.24","39.7","15.01","89452","30.19","DUALSPOT-UV-BLUE-GREEN-RED-IR","672224","687024","903387","23.133502","6.802797","0.009661","673448","877247","762937","17.552514","4.779279","0.008562","772596","886403","813391","14.851387","3.825461","0.007191","777297","908885","860710","12.058766","2.886689","0.004176","685652","842877","953427","9.037010","2.378870","0.005611","26841","32295","34567","31494","35548","37065","31387","34174","35140","32967","34296","34715","36242","37668","38177",""
"MA200-0416","23584","65","1","1.10","1.4","2023-05-12T09:49:30","120","2023/05/12","09:49:30","-15.825831353664398","35.07752798497677","5.2","11","30","64","82","-25064","-144","1280","13","150","150.49","116.03","34.46","30.30","39.4","14.96","89500","30.25","DUALSPOT-UV-BLUE-GREEN-RED-IR","674203","689608","907230","23.559900","6.959781","0.010772","675389","880412","766012","17.939000","4.913122","0.010374","773422","887966","815114","15.222309","3.951227","0.010549","780295","912972","864842","12.392076","2.992945","0.007119","686980","844920","956017","9.295254","2.463888","0.013838","21584","26756","28925","24692","28792","30339","26540","30299","31617","28820","30935","31608","31091","34464","35680",""
"MA200-0416","23585","65","1","1.10","1.4","2023-05-12T09:50:00","120","2023/05/12","09:50:00","-15.82721722126007","35.07727914303541","5.7","11","30","64","82","-24976","-76","728","13","150","149.92","115.71","34.21","30.35","39.1","14.89","89532","30.25","DUALSPOT-UV-BLUE-GREEN-RED-IR","674993","690597","908679","23.603170","6.975574","0.010585","671863","875979","762209","17.967342","4.921974","0.004008","773142","887756","814978","15.244786","3.956026","-0.039386","780408","913238","865129","12.411063","2.998465","-0.001816","686532","844458","955504","9.311169","2.468488","-0.003341","2196","2711","2927","1815","1918","1956","1612","1164","1007","1646","1618","1610","1921","1878","1863",""
"MA200-0416","23586","65","1","1.10","1.4","2023-05-12T09:50:30","120","2023/05/12","09:50:30","-15.828695297241211","35.07747481763363","5.7","11","30","64","82","-24775","929","395","13","150","149.96","115.71","34.25","30.38","38.8","14.79","89592","30.25","DUALSPOT-UV-BLUE-GREEN-RED-IR","674952","690654","908879","23.633956","6.988628","0.016100","671589","875684","762027","17.987360","4.930986","0.023229","773395","888176","815403","15.259151","3.962355","0.026059","781138","914150","866045","12.423247","3.002429","0.009307","682579","839646","950136","9.322598","2.473090","0.035290","1562","2238","2522","1282","1950","2203","1030","1534","1710","1056","1161","1194","1379","1876","2056",""
"MA200-0416","23587","65","1","1.10","1.4","2023-05-12T09:51:00","120","2023/05/12","09:51:00","-15.82965075969696","35.07839681208134","5.2","11","30","64","82","-24716","2284","176","13","150","149.33","115.67","33.65","30.42","38.6","14.76","89644","30.25","DUALSPOT-UV-BLUE-GREEN-RED-IR","675042","690976","909514","23.681864","7.006229","0.011475","671844","876234","762605","18.019894","4.943062","0.015281","773179","888096","815422","15.290111","3.972488","0.009445","780571","913639","865634","12.445362","3.009438","0.008479","681900","838942","949374","9.344120","2.480454","0.020694","2432","3071","3340","2085","2660","2877","2222","2499","2597","1918","2089","2144","2599","3056","3222",""
"MA200-0416","23588","65","1","1.10","1.4","2023-05-12T09:51:30","120","2023/05/12","09:51:30","-15.83027195930481","35.079350151121616","2.8","11","30","64","82","-24892","730","438","13","150","149.83","115.31","34.52","30.45","38.5","14.72","89740","30.25","DUALSPOT-UV-BLUE-GREEN-RED-IR","673673","690226","908853","23.793960","7.043407","0.005593","671059","875804","762454","18.099554","4.966617","-0.000935","772386","887666","815222","15.356084","3.990852","-0.006805","779282","912540","864732","12.497804","3.022337","-0.024596","685572","843736","954967","9.381737","2.491706","-0.000088","5709","6326","6586","5121","5059","5035","4749","4417","4300","4562","3749","3489","4556","4554","4553",""
"MA200-0416","23589","65","1","1.10","1.4","2023-05-12T09:52:00","120","2023/05/12","09:52:00","-15.830811381340027","35.07945415377617","2.8","11","30","64","82","-24932","2524","1456","13","150","150.49","115.99","34.50","30.47","38.5","14.73","89816","30.25","DUALSPOT-UV-BLUE-GREEN-RED-IR","672424","689242","907846","23.888352","7.074499","0.005543","669837","874555","761522","18.174170","4.989231","0.001402","771774","887323","815010","15.417230","4.008049","-0.005153","779851","913526","865732","12.547455","3.035438","-0.013945","680948","838198","948790","9.420963","2.503361","-0.000158","4779","5293","5509","4768","4859","4893","4376","4138","4054","4294","3809","3655","4724","4719","4717",""
"MA200-0416","23590","65","1","1.10","1.4","2023-05-12T09:52:30","120","2023/05/12","09:52:30","-15.83130943775177","35.07997714728117","5.7","11","30","64","82","-24928","1488","-1788","13","150","150.23","115.67","34.55","30.49","38.4","14.72","89856","30.25","DUALSPOT-UV-BLUE-GREEN-RED-IR","672888","689981","908917","23.940650","7.088838","-0.005517","669833","874767","761737","18.206022","4.996860","-0.020642","771694","887392","815106","15.444397","4.014455","-0.025748","779922","913732","865936","12.565743","3.038514","-0.108297","685519","843986","955310","9.435444","2.505198","-0.383259","2655","2437","2345","2041","1636","1483","1949","1539","1395","1586","892","671","1748","742","378",""
"MA200-0416","23591","65","1","1.10","1.4","2023-05-12T09:53:00","120","2023/05/12","09:53:00","-15.831421971321106","35.08145431429148","5.7","11","30","64","82","-24876","1603","-460","13","150","149.96","116.15","33.81","30.52","38.4","14.74","89892","30.25","DUALSPOT-UV-BLUE-GREEN-RED-IR","671978","689538","908662","24.039382","7.121038","0.006072","669486","874910","762036","18.291000","5.020654","-0.003035","771276","887445","815339","15.517189","4.032593","-0.015574","779685","913896","866265","12.628697","3.052950","-0.030787","681155","838926","949726","9.483864","2.516832","-0.032885","4992","5593","5846","5423","5216","5138","5203","4453","4190","5437","4283","3915","5823","4806","4439",""
"MA200-0416","23592","65","1","1.10","1.4","2023-05-12T09:53:30","120","2023/05/12","09:53:30","-15.831805348396301","35.083079650998116","7.3","11","30","64","82","-24444","1036","836","13","150","149.96","115.63","34.33","30.54","38.3","14.72","89956","30.25","DUALSPOT-UV-BLUE-GREEN-RED-IR","671895","689845","909329","24.138574","7.154999","0.007408","669529","875361","762626","18.370102","5.045223","0.003258","770617","887039","815110","15.586968","4.053801","0.001993","778304","912652","865166","12.684986","3.067856","-0.013091","684505","843270","954770","9.528015","2.529758","-0.002019","5038","5810","6135","5071","5305","5394","5010","5128","5170","4883","4356","4188","5333","5259","5233",""
"MA200-0416","23593","65","1","1.10","1.4","2023-05-12T09:54:00","120","2023/05/12","09:54:00","-15.833139657974243","35.084200486540794","6.0","12","30","64","82","-24780","612","1908","13","150","149.76","115.51","34.25","30.55","38.1","14.67","89888","30.19","DUALSPOT-UV-BLUE-GREEN-RED-IR","671592","689832","909480","24.185802","7.170009","0.003836","669084","875103","762470","18.405726","5.055006","-0.006162","770427","887113","815244","15.615936","4.060095","-0.036186","777934","912409","865021","12.708112","3.073001","-0.038662","684427","843346","954877","9.547684","2.534834","-0.022460","2401","2574","2647","2286","2117","2053","2082","1525","1330","2008","1506","1346","2378","2070","1958",""
"MA200-0416","23594","65","1","1.10","1.4","2023-05-12T09:54:30","120","2023/05/12","09:54:30","-15.83306497335434","35.08494547754526","0.7","12","30","64","82","-25084","544","-1456","13","150","150.09","115.99","34.10","30.57","38.3","14.76","89832","30.19","DUALSPOT-UV-BLUE-GREEN-RED-IR","670628","689206","908879","24.264540","7.194622","0.003395","668523","874739","762266","18.467534","5.069359","-0.022091","769349","886195","814470","15.671222","4.073268","-0.021988","777381","912086","864778","12.753903","3.082079","-0.059051","683751","842697","954229","9.579689","2.541610","-0.064226","3987","4238","4345","3950","3119","2805","3957","3206","2943","3960","2670","2259","3854","2775","2386",""
"MA200-0416","23595","65","1","1.10","1.4","2023-05-12T09:55:00","120","2023/05/12","09:55:00","-15.832328379154205","35.08507715165615","4.2","12","30","64","82","-24968","-1020","-1256","13","150","149.57","115.75","33.81","30.57","38.7","14.94","89768","30.19","DUALSPOT-UV-BLUE-GREEN-RED-IR","670529","689348","909248","24.323004","7.212578","0.002798","667760","874007","761710","18.512574","5.081129","-0.009172","770176","887406","815686","15.709087","4.082447","-0.019006","778226","913287","865977","12.784565","3.088343","-0.051347","680092","838354","949369","9.603168","2.547159","-0.036588","2966","3119","3183","2884","2580","2465","2715","2253","2091","2657","1858","1604","2833","2292","2096",""
"MA200-0416","23596","65","1","1.10","1.4","2023-05-12T09:55:30","120","2023/05/12","09:55:30","-15.831140697002411","35.08557998389006","2.8","12","30","64","82","-24560","3332","-68","13","150","149.63","115.71","33.92","30.60","39.0","15.07","89748","30.19","DUALSPOT-UV-BLUE-GREEN-RED-IR","668355","687309","906663","24.370688","7.228521","0.006837","666633","872725","760680","18.549208","5.091173","-0.005280","767915","884993","813507","15.739264","4.089755","-0.019504","775234","909914","862818","12.808470","3.093296","-0.049192","682636","841597","953035","9.621254","2.551047","-0.059174","2420","2760","2904","2347","2195","2137","2165","1788","1656","2072","1464","1271","2183","1601","1391",""
"MA200-0416","23597","65","1","1.10","1.4","2023-05-12T09:56:00","120","2023/05/12","09:56:00","-15.83003455400467","35.08640098571777","5.8","12","30","64","82","-24876","-479","-1336","13","150","150.36","115.79","34.57","30.61","39.1","15.13","89708","30.19","DUALSPOT-UV-BLUE-GREEN-RED-IR","669722","688917","908866","24.402684","7.238928","0.004626","667471","873997","761842","18.569754","5.096948","-0.004709","769211","886614","815063","15.758450","4.095011","-0.007925","777630","912849","865632","12.822867","3.096259","-0.054110","683956","843297","955026","9.633724","2.553598","-0.077745","1623","1768","1829","1315","1238","1209","1375","1262","1222","1247","859","736","1504","1030","860",""
"MA200-0416","23598","65","1","1.10","1.4","2023-05-12T09:56:30","120","2023/05/12","09:56:30","-15.82893180847168","35.08721298724413","5.0","12","30","64","82","-24825","-1295","-1166","13","150","149.67","115.26","34.41","30.62","39.2","15.18","89672","30.25","DUALSPOT-UV-BLUE-GREEN-RED-IR","669148","688490","908411","24.440472","7.251297","0.004930","667422","874085","761976","18.597400","5.106170","0.007475","768902","886399","814894","15.778837","4.100233","-0.015075","777520","912857","865664","12.839931","3.099995","-0.042179","683579","842918","954601","9.645504","2.556257","-0.051522","1925","2111","2189","1778","1986","2065","1468","1259","1186","1485","1089","963","1427","1079","953",""
"MA200-0416","23599","65","1","1.10","1.4","2023-05-12T09:57:00","120","2023/05/12","09:57:00","-15.827630579471588","35.087793327867985","5.8","12","30","64","82","-24900","-1076","435","13","150","150.09","115.51","34.58","30.63","39.3","15.23","89648","30.19","DUALSPOT-UV-BLUE-GREEN-RED-IR","669838","689371","909735","24.484456","7.267236","0.009412","667409","874234","762148","18.626844","5.114263","-0.006819","769612","887362","815844","15.804284","4.105144","-0.058392","778001","913498","866290","12.858528","3.104156","-0.038846","684062","843590","955382","9.658989","2.559119","-0.067868","2236","2707","2906","1889","1735","1676","1828","1179","951","1615","1207","1077","1630","1156","985",""
"MA200-0416","23600","65","1","1.10","1.4","2023-05-12T09:57:30","120","2023/05/12","09:57:30","-15.826349377632141","35.088032484054565","5.4","12","30","64","82","-24908","-1416","-2548","13","150","150.43","115.27","35.15","30.64","39.2","15.19","89568","30.25","DUALSPOT-UV-BLUE-GREEN-RED-IR","669339","689113","909599","24.542996","7.287649","0.006908","667227","874276","762293","18.667226","5.127437","0.004701","769301","887226","815796","15.838017","4.116624","0.008561","777672","913318","866218","12.885213","3.111124","-0.018130","683720","843301","955136","9.680202","2.565709","0.002571","2982","3410","3591","2597","2778","2846","2429","2711","2810","2322","1988","1882","2570","2618","2636",""
"MA200-0416","23601","65","1","1.10","1.4","2023-05-12T09:58:00","120","2023/05/12","09:58:00","-15.82505577802658","35.087983816862106","4.4","12","30","64","82","-25072","-3384","-1792","13","150","149.63","115.63","34.00","30.66","39.0","15.14","89452","30.25","DUALSPOT-UV-BLUE-GREEN-RED-IR","669450","689419","910121","24.579012","7.299433","0.005623","667495","874753","762782","18.691034","5.135578","0.009822","769164","887204","815827","15.857473","4.121714","-0.011040","776735","912345","865323","12.900644","3.114980","-0.019122","683610","843258","955095","9.691589","2.566977","-0.562302","1829","2035","2122","1526","1775","1869","1396","1242","1188","1338","1137","1073","1375","521","213",""
"MA200-0416","23602","65","1","1.10","1.4","2023-05-12T09:58:30","120","2023/05/12","09:58:30","-15.824688017368317","35.08787965029478","4.5","11","30","64","82","-25000","-2166","-591","13","150","150.36","115.95","34.41","30.66","39.0","15.11","89452","30.25","DUALSPOT-UV-BLUE-GREEN-RED-IR","668266","688427","908899","24.627294","7.314319","0.002136","666845","874115","762268","18.725274","5.143762","-0.019576","768343","886440","815167","15.884698","4.128729","-0.013621","777479","913387","866291","12.920645","3.118408","-0.097276","683321","842965","954816","9.705833","2.570946","-0.009317","2445","2541","2581","2189","1763","1601","1949","1692","1602","1730","999","766","1716","1611","1573",""
"MA200-0416","23603","65","1","1.10","1.4","2023-05-12T09:59:00","120","2023/05/12","09:59:00","-15.826200306415558","35.08806364238262","8.8","11","30","64","81","-24596","3496","716","13","150","150.01","115.46","34.55","30.67","38.9","15.11","89544","30.25","DUALSPOT-UV-BLUE-GREEN-RED-IR","667309","687596","907907","24.666046","7.326034","0.000590","665804","872922","761280","18.752176","5.152220","0.003492","766850","884831","813744","15.905706","4.134738","-0.003990","774911","910444","863559","12.937887","3.122127","-0.044969","681747","841099","952716","9.716843","2.572151","-0.646640","1971","1991","2000","1727","1815","1848","1510","1443","1420","1498","1080","947","1332","487","182",""
"MA200-0416","23604","65","1","1.10","1.4","2023-05-12T09:59:30","120","2023/05/12","09:59:30","-15.828125357627869","35.08770814538002","8.2","12","30","64","82","-24691","1150","-562","13","150","149.83","115.75","34.08","30.69","38.8","15.09","89668","30.25","DUALSPOT-UV-BLUE-GREEN-RED-IR","669032","689545","910581","24.698444","7.337646","0.009565","666889","874479","762702","18.772366","5.157829","-0.004492","768219","886555","815381","15.926126","4.140663","-0.001240","777859","914053","867019","12.951331","3.124708","-0.065414","683261","843056","954938","9.727623","2.574498","-0.056398","1643","2001","2152","1293","1220","1192","1464","1443","1436","1165","759","630","1301","962","840",""
"MA200-0416","23605","65","1","1.10","1.4","2023-05-12T10:00:00","120","2023/05/12","10:00:00","-15.829443275928497","35.086847983300686","6.8","12","30","64","82","-24988","-376","132","13","150","150.09","115.24","34.86","30.70","38.8","15.07","89676","30.25","DUALSPOT-UV-BLUE-GREEN-RED-IR","664757","688074","910826","25.359262","7.574756","0.008271","663582","873593","763427","19.361034","5.353874","0.006322","763923","884802","815150","16.457745","4.310142","0.004132","773802","912216","866518","13.416776","3.269619","0.002770","680421","841631","954406","10.085262","2.684647","0.002390","33682","39951","42621","37870","41691","43152","38301","40364","41096","40523","41706","42087","43355","44141","44426",""
"MA200-0416","23606","65","1","1.10","1.4","2023-05-12T10:00:30","120","2023/05/12","10:00:30","-15.831064879894257","35.08563864976168","4.7","12","30","64","82","-24492","4944","-1028","13","150","150.03","115.83","34.20","30.72","38.8","15.10","89740","30.25","DUALSPOT-UV-BLUE-GREEN-RED-IR","658928","685415","910049","26.152684","7.874189","0.010890","658392","870703","762778","20.061880","5.601072","0.010601","759536","883402","815643","17.088758","4.526520","0.010540","770130","911228","867159","13.961271","3.449029","0.009567","678336","841357","955347","10.491646","2.820445","0.014564","40232","51430","56254","44854","53588","56971","45228","52532","55164","47161","52636","54432","49010","55474","57850",""
"MA200-0416","23607","65","1","1.10","1.4","2023-05-12T10:01:00","120","2023/05/12","10:01:00","-15.832722783088684","35.08500666171312","4.5","12","30","64","81","-24254","3250","-575","13","150","149.70","115.43","34.26","30.72","38.8","15.11","89788","30.25","DUALSPOT-UV-BLUE-GREEN-RED-IR","657807","684547","909097","26.224778","7.899353","0.007669","657652","869979","762272","20.112578","5.616535","0.001828","757890","881725","814159","17.132070","4.538178","-0.008467","767766","908624","864715","13.993098","3.456205","-0.033506","676650","839361","953165","10.513779","2.826281","-0.017130","3668","4313","4591","3255","3345","3380","3115","2824","2720","2766","2101","1883","2678","2379","2269",""
"MA200-0416","23608","65","1","1.10","1.4","2023-05-12T10:01:30","120","2023/05/12","10:01:30","-15.833543062210083","35.08450499176979","2.8","12","30","64","81","-24536","2936","52","13","150","149.90","115.39","34.50","30.72","39.0","15.18","89868","30.31","DUALSPOT-UV-BLUE-GREEN-RED-IR","653331","680099","903330","26.270730","7.916025","0.008908","659099","872128","764224","20.144596","5.624426","-0.015999","759464","883742","816099","17.158736","4.545718","-0.004650","769774","911142","867190","14.013736","3.461480","-0.017030","677984","841126","955206","10.529812","2.830872","-0.005832","2338","2838","3053","2057","1695","1555","1918","1814","1776","1794","1533","1448","1940","1858","1828",""
