"Serial number","Datum ID","Session ID","Data format version","Firmware version","App version","Date / time local","Timezone offset (mins)","Date local (yyyy/MM/dd)","Time local (hh:mm:ss)","GPS lat (ddmm.mmmmm)","GPS long (dddmm.mmmmm)","GPS speed (km/h)","GPS sat count","Timebase (s)","Status","Battery remaining (%)","Accel X","Accel Y","Accel Z","Tape position","Flow setpoint (mL/min)","Flow total (mL/min)","Flow1 (mL/min)","Flow2 (mL/min)","Sample temp (C)","Sample RH (%)","Sample dewpoint (C)","Internal pressure (Pa)","Internal temp (C)","Optical config","UV Sen1","UV Sen2","UV Ref","UV ATN1","UV ATN2","UV K","Blue Sen1","Blue Sen2","Blue Ref","Blue ATN1","Blue ATN2","Blue K","Green Sen1","Green Sen2","Green Ref","Green ATN1","Green ATN2","Green K","Red Sen1","Red Sen2","Red Ref","Red ATN1","Red ATN2","Red K","IR Sen1","IR Sen2","IR Ref","IR ATN1","IR ATN2","IR K","UV BC1","UV BC2","UV BCc","Blue BC1","Blue BC2","Blue BCc","Green BC1","Green BC2","Green BCc","Red BC1","Red BC2","Red BCc","IR BC1","IR BC2","IR BCc","Readable status"
"MA200-0420","51922","81","1","1.10","1.6","2023-08-18T08:00:01","120","2023/08/18","08:00:01","-15.795743644237518","35.00269666640088","0.3","10","300","66","98","-564","-26984","408","1","150","149.67","112.77","36.90","24.20","45.6","11.72","90412","24.75","DUALSPOT-UV-BLUE-GREEN-RED-IR","791648","705908","910180","0.000000","0.000000","0.000000","874950","881500","831895","0.000000","0.000000","0.000000","862122","865311","832367","0.000000","0.000000","0.000000","882368","872625","892796","0.000000","0.000000","0.000000","769604","891861","964454","0.000000","0.000000","0.000000","","","","","","","","","","","","","","","","Start up-DualSpot on"
"MA200-0420","51923","81","1","1.10","1.6","2023-08-18T08:05:01","120","2023/08/18","08:05:01","-15.795705497264862","35.00271283299662","0.1","9","300","66","98","-552","-27028","412","1","150","149.89","115.24","34.64","24.51","43.4","11.26","90416","25.00","DUALSPOT-UV-BLUE-GREEN-RED-IR","774128","697435","904635","0.000000","0.000000","0.000000","872893","885448","838992","0.000000","0.000000","0.000000","855225","863337","833288","0.000000","0.000000","0.000000","877318","871554","894173","0.000000","0.000000","0.000000","765947","890489","964571","0.000000","0.000000","0.000000","","","","","","","","","","","","","","","","Start up-DualSpot on"
"MA200-0420","51924","81","1","1.10","1.6","2023-08-18T08:10:01","120","2023/08/18","08:10:01","-15.79563719034195","35.00272299954668","0.1","9","300","64","97","-632","-27056","284","1","150","150.21","115.44","34.77","24.79","42.7","11.26","90428","25.25","DUALSPOT-UV-BLUE-GREEN-RED-IR","758582","693661","907500","0.000000","0.000000","0.000000","860705","882866","841742","0.000000","0.000000","0.000000","842672","859198","833790","0.000000","0.000000","0.000000","865510","867166","893725","0.000000","0.000000","0.000000","758511","887534","964496","0.000000","0.000000","0.000000","","","","","","","","","","","","","","","","DualSpot on"
"MA200-0420","51925","81","1","1.10","1.6","2023-08-18T08:15:01","120","2023/08/18","08:15:01","-15.795613825321198","35.00270616612397","0.1","9","300","64","97","-746","-27057","392","1","150","149.32","115.44","33.87","24.89","42.5","11.28","90444","25.19","DUALSPOT-UV-BLUE-GREEN-RED-IR","747194","689485","907024","1.471674","0.551733","0.000000","846241","873272","835375","0.947183","0.339984","0.000000","835437","856156","833189","0.799661","0.282591","0.000000","854346","859498","887766","0.638063","0.219900","0.000000","754449","885307","963368","0.425354","0.137457","0.000000","7487","9566","7487","6082","7440","6082","5750","6926","5750","5545","6512","5545","5147","5668","5147","DualSpot on"
"MA200-0420","51926","81","1","1.10","1.6","2023-08-18T08:20:01","120","2023/08/18","08:20:01","-15.79566740989685","35.002760666422546","0.1","9","300","64","98","-644","-26896","728","1","150","149.82","115.84","33.98","24.92","42.6","11.33","90456","25.25","DUALSPOT-UV-BLUE-GREEN-RED-IR","737793","685824","906356","2.667844","1.012332","0.000000","844888","876137","840560","1.727563","0.627631","0.000000","829534","853690","832737","1.455367","0.519543","0.000000","855739","863795","893847","1.156987","0.403127","0.000000","751458","883714","962705","0.757259","0.247988","0.000000","6065","7960","6065","4994","6274","4994","4699","5788","4699","4494","5409","4494","4002","4543","4002","DualSpot on"
"MA200-0420","51927","81","1","1.10","1.6","2023-08-18T08:25:01","120","2023/08/18","08:25:01","-15.795695006847382","35.00270299939439","0.2","10","300","64","97","-516","-26908","48","1","150","150.62","115.79","34.83","24.97","42.5","11.35","90464","25.31","DUALSPOT-UV-BLUE-GREEN-RED-IR","731183","683979","907602","3.706518","1.421117","0.089931","833434","868015","834947","2.425923","0.891238","0.000000","825479","852667","833582","2.048557","0.739717","0.000000","846236","856770","888107","1.633534","0.577557","0.000000","750030","883867","963884","1.070673","0.354934","0.000000","5268","6893","7903","4471","5610","4471","4253","5247","4253","4129","5024","4129","3781","4289","3781","DualSpot on"
"MA200-0420","51928","81","1","1.10","1.6","2023-08-18T08:30:01","120","2023/08/18","08:30:01","-15.795578002929688","35.002731166314334","0.1","12","300","64","97","-596","-26916","64","1","150","150.08","115.99","34.09","25.03","42.6","11.44","90476","25.44","DUALSPOT-UV-BLUE-GREEN-RED-IR","725914","683462","910894","4.785406","1.854049","0.078091","829894","868361","837651","3.166058","1.174515","0.102548","817372","847667","830698","2.683460","0.978225","0.000000","844333","857637","890725","2.141729","0.765438","0.000000","748879","884470","965690","1.406932","0.473123","0.000000","5463","7459","8722","4730","6160","7004","4544","5809","4544","4395","5529","4395","4049","4843","4049","DualSpot on"
"MA200-0420","51929","81","1","1.10","1.6","2023-08-18T08:35:01","120","2023/08/18","08:35:01","-15.795856356620789","35.00265133311041","0.2","12","300","64","98","-576","-27160","272","1","150","150.41","115.88","34.53","25.15","42.7","11.57","90472","25.56","DUALSPOT-UV-BLUE-GREEN-RED-IR","714858","678157","908549","6.062065","2.375881","0.062574","820668","863375","835721","4.052652","1.514661","0.077624","813361","847577","833008","3.451842","1.266896","0.084508","836247","852803","887738","2.773125","0.997565","0.000000","743222","880275","962587","1.843677","0.626263","0.000000","6471","8876","10426","5672","7302","8275","5505","6940","7772","5466","6744","5466","5265","6195","5265","DualSpot on"
"MA200-0420","51930","81","1","1.10","1.6","2023-08-18T08:40:01","120","2023/08/18","08:40:01","-15.795581936836243","35.00269883265719","0.2","12","300","64","97","-595","-26862","137","1","150","150.08","115.60","34.48","25.31","42.4","11.61","90480","25.75","DUALSPOT-UV-BLUE-GREEN-RED-IR","704293","673348","907095","7.393341","2.930822","0.053704","818223","865684","840938","4.978067","1.876593","0.066909","806035","844092","832120","4.253426","1.573896","0.073049","836169","856261","893489","3.431227","1.242806","0.081902","743083","882711","966810","2.299152","0.785879","0.000000","6764","9452","11218","5934","7781","8898","5756","7391","8351","5711","7135","7944","5504","6466","5504","DualSpot on"
"MA200-0420","51931","81","1","1.10","1.6","2023-08-18T08:45:01","120","2023/08/18","08:45:01","-15.795699000358582","35.00276133301668","0.3","12","300","64","97","-441","-27079","225","1","150","150.15","115.88","34.27","25.49","42.2","11.69","90484","25.94","DUALSPOT-UV-BLUE-GREEN-RED-IR","694238","669186","906864","8.796274","3.522375","0.047203","809802","861848","840431","5.942141","2.254921","0.058064","798271","840300","831023","5.085370","1.891881","0.062467","828403","851956","891325","4.112499","1.496519","0.070397","737968","879344","964715","2.768333","0.950274","0.000000","7111","10138","12160","6167","8183","9416","5960","7703","8735","5898","7427","8302","5656","6701","5656","DualSpot on"
"MA200-0420","51932","81","1","1.10","1.6","2023-08-18T08:50:01","120","2023/08/18","08:50:01","-15.795572459697723","35.00269699958153","0.3","12","300","64","97","-576","-26952","420","1","150","149.77","115.80","33.97","25.73","42.1","11.88","90476","26.25","DUALSPOT-UV-BLUE-GREEN-RED-IR","682621","664605","907436","10.552282","4.274215","0.041298","794312","851712","834688","7.193742","2.752817","0.050850","790166","837361","831638","6.179603","2.314698","0.054455","822116","850294","892592","5.018338","1.837642","0.061619","733507","877583","964922","3.400667","1.173617","0.069852","8906","12999","15785","8012","10865","12633","7844","10333","11823","7847","10074","11361","7628","9184","10004","DualSpot on"
"MA200-0420","51933","81","1","1.10","1.6","2023-08-18T08:55:01","120","2023/08/18","08:55:01","-15.795638501644135","35.00274883280508","0.1","12","300","64","97","-600","-27000","420","1","150","149.74","115.46","34.28","25.95","41.5","11.86","90480","26.50","DUALSPOT-UV-BLUE-GREEN-RED-IR","673127","660067","906355","11.838511","4.840349","0.037967","786086","847355","833437","8.086722","3.114980","0.046156","783023","833601","830400","6.945861","2.616077","0.049324","815250","846427","890641","5.640285","2.073728","0.054229","728556","874071","962453","3.826151","1.320260","0.051555","6543","9701","11885","5733","7832","9148","5509","7299","8381","5404","6910","7785","5147","5976","6412","DualSpot on"
"MA200-0420","51934","81","1","1.10","1.6","2023-08-18T09:00:01","120","2023/08/18","09:00:01","-15.79561561346054","35.002767166588455","0.1","11","300","64","97","-654","-26900","387","1","150","149.89","115.28","34.60","26.18","41.0","11.89","90488","26.81","DUALSPOT-UV-BLUE-GREEN-RED-IR","668504","659387","909845","12.918627","5.330116","0.036000","783474","848220","836820","8.827027","3.423363","0.043937","779754","833271","832170","7.577354","2.869761","0.046535","814356","848088","894173","6.148670","2.271595","0.052040","726818","873964","963493","4.172920","1.439044","0.042500","5503","8313","10287","4760","6606","7776","4547","6086","7024","4424","5737","6506","4201","4795","5107","DualSpot on"
"MA200-0420","51935","81","1","1.10","1.6","2023-08-18T09:05:01","120","2023/08/18","09:05:01","-15.795713782310486","35.00275683309883","0.3","11","300","64","97","-562","-26933","383","1","150","150.00","114.83","35.17","26.42","40.4","11.90","90476","27.06","DUALSPOT-UV-BLUE-GREEN-RED-IR","658007","652528","904521","13.910559","5.789520","0.033588","779455","847103","838171","9.502872","3.712088","0.041364","775771","831826","832674","8.151429","3.106202","0.043873","809652","845542","893112","6.611440","2.457187","0.049889","728048","877255","968187","4.488132","1.550509","0.042536","5073","7671","9523","4363","6085","7189","4150","5580","6461","4043","5293","6033","3834","4426","4739","DualSpot on"
"MA200-0420","51936","81","1","1.10","1.6","2023-08-18T09:10:01","120","2023/08/18","09:10:01","-15.795623004436493","35.00272783287801","0.0","11","300","64","97","-632","-26928","288","1","150","150.08","115.13","34.96","26.60","40.2","11.95","90476","27.13","DUALSPOT-UV-BLUE-GREEN-RED-IR","653839","651794","907641","14.892025","6.244220","0.031910","776914","847590","840970","10.164671","3.990143","0.038089","773198","831874","834608","8.712271","3.332718","0.039992","803808","841783","890676","7.062412","2.631950","0.043295","723067","872967","964462","4.790964","1.654669","0.035202","5007","7640","9541","4261","5896","6953","4044","5379","6207","3930","5015","5660","3674","4162","4420","DualSpot on"
"MA200-0420","51937","81","1","1.10","1.6","2023-08-18T09:15:01","120","2023/08/18","09:15:01","-15.79556655883789","35.002783166011795","0.1","11","300","64","98","-536","-27084","496","1","150","149.73","115.10","34.63","26.73","39.9","11.97","90480","27.25","DUALSPOT-UV-BLUE-GREEN-RED-IR","649538","650954","910880","15.912182","6.727287","0.031333","768865","842049","837928","10.843711","4.286075","0.039273","765867","826710","831462","9.285980","3.574540","0.042503","803040","843214","893860","7.517894","2.816937","0.047729","722466","873901","966530","5.090605","1.763332","0.046968","5206","8193","10382","4373","6335","7617","4138","5797","6836","3970","5359","6192","3636","4383","4779","DualSpot on"
"MA200-0420","51938","81","1","1.10","1.6","2023-08-18T09:20:01","120","2023/08/18","09:20:01","-15.795566976070404","35.00276616611518","0.1","11","300","64","98","-545","-27116","612","1","150","149.82","114.53","35.29","26.87","39.9","12.11","90492","27.44","DUALSPOT-UV-BLUE-GREEN-RED-IR","641333","645863","907778","16.837800","7.172462","0.029355","761741","837181","835395","11.469377","4.557479","0.035195","763988","827260","833818","9.818782","3.796605","0.037188","796011","838023","889849","7.946288","2.988581","0.040905","717281","869210","962395","5.378345","1.869364","0.042960","4746","7409","9386","4049","5701","6790","3862","5224","6083","3752","4880","5559","3509","4197","4564","DualSpot on"
"MA200-0420","51939","81","1","1.10","1.6","2023-08-18T09:25:01","120","2023/08/18","09:25:01","-15.795598983764648","35.00279499986209","0.4","11","300","64","97","-608","-27091","572","1","150","149.76","114.45","35.30","27.04","39.8","12.21","90496","27.56","DUALSPOT-UV-BLUE-GREEN-RED-IR","634502","641997","906423","17.759884","7.624248","0.028587","761339","839688","840205","12.096009","4.835699","0.034947","758507","823814","832258","10.349758","4.022752","0.037090","791027","834881","888084","8.374531","3.163515","0.040920","718694","872565","967115","5.668262","1.973183","0.034945","4731","7516","9611","4058","5842","7030","3851","5318","6251","3753","4971","5710","3538","4108","4412","DualSpot on"
"MA200-0420","51940","81","1","1.10","1.6","2023-08-18T09:30:01","120","2023/08/18","09:30:01","-15.795618057250977","35.00272166635841","0.4","11","300","64","98","-552","-27308","732","1","150","150.28","114.61","35.66","27.14","39.5","12.19","90496","27.69","DUALSPOT-UV-BLUE-GREEN-RED-IR","628695","640219","909498","19.012352","8.237598","0.026461","751821","832921","836434","12.901825","5.190344","0.031732","751123","818997","829770","11.029561","4.309334","0.033363","789511","836016","891252","8.918411","3.383183","0.036369","713211","867882","963176","6.027403","2.102919","0.032873","6418","10101","12916","5212","7371","8825","4924","6671","7791","4760","6179","7046","4377","5081","5459","DualSpot on"
"MA200-0420","51941","81","1","1.10","1.6","2023-08-18T09:35:01","120","2023/08/18","09:35:01","-15.795682311058044","35.00276883295737","0.1","11","300","64","97","-652","-27072","624","1","150","150.15","114.69","35.46","27.30","39.2","12.21","90504","27.81","DUALSPOT-UV-BLUE-GREEN-RED-IR","621029","635290","906666","19.937054","8.703545","0.026477","750332","834118","839933","13.522261","5.470863","0.032333","749413","819559","832227","11.557053","4.538061","0.034496","783425","831617","888131","9.344102","3.558261","0.037236","712619","868776","965164","6.319065","2.208598","0.033105","4735","7718","10030","4010","5865","7125","3818","5355","6349","3723","4954","5710","3552","4163","4492","DualSpot on"
"MA200-0420","51942","81","1","1.10","1.6","2023-08-18T09:40:01","120","2023/08/18","09:40:01","-15.79576712846756","35.00270499964245","0.1","10","300","64","98","-652","-26772","148","1","150","149.69","113.94","35.75","27.45","39.0","12.28","90516","28.06","DUALSPOT-UV-BLUE-GREEN-RED-IR","616118","632656","906444","20.705056","9.094357","0.025396","746254","831949","839824","14.057242","5.717124","0.031336","745623","817494","831810","12.014121","4.740370","0.033643","780933","830732","888555","9.714268","3.715425","0.037455","710240","867255","964380","6.571411","2.302737","0.034296","3959","6420","8349","3480","5106","6221","3330","4698","5589","3259","4410","5123","3093","3678","3993","DualSpot on"
"MA200-0420","51943","81","1","1.10","1.6","2023-08-18T09:45:01","120","2023/08/18","09:45:01","-15.795661985874176","35.00279816635884","0.1","11","300","64","98","-716","-27056","376","1","150","150.21","114.69","35.52","27.61","38.9","12.38","90520","28.25","DUALSPOT-UV-BLUE-GREEN-RED-IR","611186","629875","905885","21.447552","9.472759","0.025002","741760","829281","839140","14.577812","5.955838","0.030754","741446","814963","830910","12.460438","4.937595","0.033239","781719","833339","892701","10.076428","3.867752","0.036477","706937","864549","962242","6.817455","2.394601","0.035293","3802","6257","8198","3364","4982","6099","3230","4609","5514","3168","4302","5009","2996","3612","3946","DualSpot on"
"MA200-0420","51944","81","1","1.10","1.6","2023-08-18T09:50:01","120","2023/08/18","09:50:01","-15.795684158802032","35.00279516656883","0.2","12","300","64","98","-616","-27137","308","1","150","149.56","113.70","35.86","27.73","38.6","12.35","90508","28.31","DUALSPOT-UV-BLUE-GREEN-RED-IR","608455","629171","908124","22.144780","9.832836","0.024124","740049","829498","841273","15.063199","6.183927","0.030139","739931","815152","832608","12.874987","5.123667","0.032067","776118","828930","889278","10.410402","4.011808","0.035962","706501","865208","963796","7.044239","2.481331","0.035096","3601","5898","7732","3164","4715","5795","3026","4308","5155","2946","4030","4710","2786","3378","3701","DualSpot on"
"MA200-0420","51945","81","1","1.10","1.6","2023-08-18T09:55:01","120","2023/08/18","09:55:01","-15.795656502246857","35.00277516641654","0.1","12","300","64","97","-652","-27063","276","1","150","150.54","114.26","36.28","27.87","38.6","12.46","90516","28.50","DUALSPOT-UV-BLUE-GREEN-RED-IR","602851","625585","906432","22.881614","10.215710","0.023373","734793","825863","839617","15.578226","6.425663","0.028802","739405","816555","835715","13.317383","5.324261","0.031255","776908","831473","893389","10.770848","4.168213","0.034741","707272","867435","967230","7.287197","2.574543","0.033422","3787","6198","8142","3341","4939","6061","3214","4590","5506","3165","4325","5057","2970","3589","3926","DualSpot on"
"MA200-0420","51946","81","1","1.10","1.6","2023-08-18T10:00:01","120","2023/08/18","10:00:01","-15.79567551612854","35.00278849969618","0.2","12","300","64","98","-544","-27075","600","1","150","149.61","114.03","35.58","28.01","38.3","12.48","90500","28.63","DUALSPOT-UV-BLUE-GREEN-RED-IR","601123","626131","910974","23.670022","10.629959","0.023403","728606","821400","837350","16.151665","6.698395","0.029260","734294","813120","834081","13.813075","5.549810","0.031410","771100","827123","890312","11.177731","4.346712","0.035719","703144","863850","964285","7.569296","2.686405","0.039084","4060","6839","9103","3727","5683","7068","3608","5263","6374","3579","5033","5958","3455","4392","4907","DualSpot on"
"MA200-0420","51947","81","1","1.10","1.6","2023-08-18T10:05:01","120","2023/08/18","10:05:01","-15.795681297779083","35.002764832926914","0.2","12","300","64","98","-672","-27147","804","1","150","150.08","113.55","36.54","28.20","38.2","12.60","90504","28.81","DUALSPOT-UV-BLUE-GREEN-RED-IR","596472","623397","910417","24.385086","11.006783","0.022045","724922","819429","837374","16.662613","6.940770","0.026909","730441","810744","833345","14.253230","5.750355","0.028824","768458","825967","890453","11.538088","4.503450","0.031709","699926","861251","962298","7.819305","2.781606","0.028343","3698","6057","7998","3335","4917","6047","3218","4557","5462","3184","4304","5021","3075","3640","3951","DualSpot on"
"MA200-0420","51948","81","1","1.10","1.6","2023-08-18T10:10:01","120","2023/08/18","10:10:01","-15.795656859874725","35.002789332997054","0.0","12","300","64","98","-529","-27012","558","1","150","149.74","113.35","36.39","28.32","37.6","12.49","90496","28.94","DUALSPOT-UV-BLUE-GREEN-RED-IR","590404","618831","906783","25.005424","11.341793","0.022207","724213","820508","840250","17.107300","7.157202","0.027484","725180","806574","830518","14.637471","5.929034","0.029369","767585","826468","892244","11.850850","4.642724","0.032822","699968","862428","964421","8.033699","2.865047","0.030894","3214","5407","7228","2908","4409","5489","2814","4076","4936","2768","3840","4530","2642","3203","3514","DualSpot on"
"MA200-0420","51949","81","1","1.10","1.6","2023-08-18T10:15:01","120","2023/08/18","10:15:01","-15.795681536197662","35.00277266628109","0.2","12","300","64","98","-492","-27160","688","1","150","149.32","113.31","36.01","28.46","37.4","12.54","90488","29.13","DUALSPOT-UV-BLUE-GREEN-RED-IR","585519","615547","905156","25.660968","11.695271","0.021881","718692","816194","837832","17.582848","7.389201","0.027301","724778","807892","833490","15.047829","6.121278","0.029524","763141","823214","890099","12.187597","4.792966","0.032797","700192","863909","966959","8.263855","2.956444","0.033872","3398","5766","7749","3111","4776","5983","3006","4432","5410","2981","4186","4967","2837","3545","3940","DualSpot on"
"MA200-0420","51950","81","1","1.10","1.6","2023-08-18T10:20:01","120","2023/08/18","10:20:01","-15.795618057250977","35.00277866655961","0.1","11","300","64","98","-629","-26995","687","1","150","149.76","113.35","36.41","28.59","37.0","12.49","90476","29.19","DUALSPOT-UV-BLUE-GREEN-RED-IR","584270","616064","909205","26.315022","12.055157","0.021592","718642","818120","841758","18.056086","7.623593","0.026807","720047","804325","831438","15.457779","6.317096","0.029221","758215","819366","887269","12.521553","4.945113","0.032648","696062","859960","963437","8.493134","3.049673","0.034528","3389","5806","7849","3095","4772","5998","3002","4465","5476","2955","4192","4999","2825","3577","3998","DualSpot on"
"MA200-0420","51951","81","1","1.10","1.6","2023-08-18T10:25:01","120","2023/08/18","10:25:01","-15.795677185058594","35.00271216640249","0.1","11","300","64","97","-660","-27103","656","1","150","149.47","113.23","36.24","28.73","36.7","12.46","90464","29.38","DUALSPOT-UV-BLUE-GREEN-RED-IR","578172","611342","905344","26.944794","12.404186","0.021356","712082","812496","837906","18.515610","7.855388","0.027007","718829","804641","833359","15.854400","6.508778","0.029253","758541","821163","890514","12.845850","5.093834","0.032508","696237","861317","965824","8.713486","3.139461","0.034328","3266","5656","7694","3008","4741","6018","2908","4390","5423","2873","4116","4933","2718","3460","3878","DualSpot on"
"MA200-0420","51952","81","1","1.10","1.6","2023-08-18T10:30:01","120","2023/08/18","10:30:01","-15.795678496360779","35.00280949939042","0.1","11","300","64","97","-640","-26936","404","1","150","150.28","112.87","37.40","28.90","36.4","12.48","90468","29.56","DUALSPOT-UV-BLUE-GREEN-RED-IR","574887","609459","905583","27.547608","12.740505","0.020323","708569","810255","837461","18.957586","8.076854","0.024875","716316","803401","833597","16.237474","6.691850","0.026439","756393","820236","890802","13.159426","5.238152","0.029827","694466","860240","965464","8.929012","3.225715","0.027487","3136","5281","7126","2902","4389","5493","2817","4063","4937","2787","3871","4588","2667","3221","3534","DualSpot on"
"MA200-0420","51953","81","1","1.10","1.6","2023-08-18T10:35:01","120","2023/08/18","10:35:01","-15.795658349990845","35.002786999801174","0.2","11","300","64","97","-624","-27075","252","1","150","149.44","112.72","36.72","29.11","36.0","12.52","90476","29.81","DUALSPOT-UV-BLUE-GREEN-RED-IR","571565","607507","905792","28.145302","13.078350","0.020558","705895","808963","838014","19.404186","8.304874","0.025660","713642","801994","833722","16.626455","6.880945","0.027453","754416","819510","891348","13.479729","5.386428","0.030577","692423","858827","964722","9.153961","3.315997","0.029135","3114","5403","7391","2937","4603","5850","2865","4275","5271","2850","4051","4849","2787","3434","3801","DualSpot on"
"MA200-0420","51954","81","1","1.10","1.6","2023-08-18T10:40:01","120","2023/08/18","10:40:01","-15.795671343803406","35.00278599956073","0.1","11","300","64","97","-616","-27091","452","1","150","150.41","112.64","37.77","29.34","35.6","12.53","90480","30.13","DUALSPOT-UV-BLUE-GREEN-RED-IR","568800","606158","906865","28.749196","13.422062","0.019713","703247","807719","838669","19.853600","8.533862","0.024014","710814","800430","833673","17.018990","7.073154","0.025889","751717","817960","891015","13.801432","5.538131","0.029292","689810","856746","963324","9.381466","3.411062","0.029731","3149","5345","7268","2957","4494","5653","2893","4225","5172","2865","4029","4810","2821","3516","3912","DualSpot on"
"MA200-0420","51955","81","1","1.10","1.6","2023-08-18T10:45:01","120","2023/08/18","10:45:01","-15.795648217201233","35.00277449958958","0.2","11","300","64","97","-500","-27300","360","1","150","150.47","112.80","37.68","29.57","35.2","12.56","90484","30.31","DUALSPOT-UV-BLUE-GREEN-RED-IR","565674","604438","907440","29.358880","13.765800","0.019221","700713","806616","839509","20.318852","8.770000","0.023502","707746","798652","833481","17.424738","7.270685","0.025239","748626","816084","890349","14.137779","5.693743","0.027728","687498","855084","962352","9.618885","3.506607","0.025339","3174","5358","7286","3057","4646","5852","2986","4352","5331","2991","4143","4920","2940","3542","3888","DualSpot on"
"MA200-0420","51956","81","1","1.10","1.6","2023-08-18T10:50:01","120","2023/08/18","10:50:01","-15.795670807361603","35.00276433303952","0.1","10","300","64","97","-608","-27058","408","1","150","149.67","111.94","37.73","29.77","34.6","12.50","90476","30.50","DUALSPOT-UV-BLUE-GREEN-RED-IR","560833","600570","904383","29.886104","14.073948","0.019448","695652","802312","836827","20.722736","8.983618","0.024191","702987","794678","830812","17.779818","7.449538","0.025864","743705","811908","887056","14.431337","5.836419","0.029526","687319","855933","964140","9.828400","3.593275","0.026854","2766","4797","6605","2674","4197","5363","2633","3936","4875","2630","3794","4584","2614","3209","3552","DualSpot on"
"MA200-0420","51957","81","1","1.10","1.6","2023-08-18T10:55:01","120","2023/08/18","10:55:01","-15.79564917087555","35.002675666473806","0.1","10","300","64","97","-624","-27008","600","1","150","150.28","111.86","38.42","29.90","34.4","12.52","90456","30.63","DUALSPOT-UV-BLUE-GREEN-RED-IR","560840","601879","909203","30.414570","14.386742","0.019020","691315","798861","835004","21.129006","9.199450","0.023283","702814","795886","833585","18.136462","7.630132","0.024820","744423","813961","890565","14.726980","5.978880","0.027442","683416","852085","960649","10.034134","3.680419","0.026823","2774","4781","6583","2692","4164","5299","2647","3902","4813","2651","3719","4450","2569","3168","3515","DualSpot on"
"MA200-0420","51958","81","1","1.10","1.6","2023-08-18T11:00:01","120","2023/08/18","11:00:01","-15.79566115140915","35.002762832911685","0.2","12","300","64","97","-720","-27108","600","1","150","149.32","111.65","37.67","30.02","33.9","12.40","90452","30.63","DUALSPOT-UV-BLUE-GREEN-RED-IR","556031","598090","906483","30.975346","14.718891","0.019053","690458","799436","837527","21.556088","9.428599","0.023756","698643","792603","831757","18.511466","7.823827","0.025883","740411","810879","888532","15.038837","6.129056","0.027869","684468","854435","964212","10.252602","3.773855","0.029031","2950","5179","7198","2835","4510","5811","2788","4269","5353","2802","4000","4824","2733","3465","3891","DualSpot on"
"MA200-0420","51959","81","1","1.10","1.6","2023-08-18T11:05:01","120","2023/08/18","11:05:01","-15.795648992061615","35.00274533312768","0.2","12","300","64","97","-648","-27019","124","1","150","150.08","112.28","37.80","30.15","34.0","12.54","90464","30.88","DUALSPOT-UV-BLUE-GREEN-RED-IR","555133","598429","909932","31.518436","15.042213","0.018882","685669","795448","835217","21.973752","9.650414","0.023090","698046","793361","834089","18.878838","8.009551","0.024665","741078","812880","892031","15.343891","6.276708","0.027735","684769","855854","966699","10.463669","3.864445","0.029014","2840","5024","7017","2757","4350","5597","2716","4079","5083","2725","3919","4745","2625","3347","3770","DualSpot on"
"MA200-0420","51960","81","1","1.10","1.6","2023-08-18T11:10:01","120","2023/08/18","11:10:01","-15.795629858970642","35.00273266597651","0.1","12","300","64","98","-700","-26912","336","1","150","150.47","112.05","38.43","30.31","33.6","12.50","90456","31.06","DUALSPOT-UV-BLUE-GREEN-RED-IR","551624","595849","908852","32.033588","15.353588","0.018549","687300","798842","840542","22.368538","9.865084","0.022871","694762","790951","833059","19.224880","8.188185","0.024348","738418","811125","891400","15.631975","6.419092","0.027384","681814","853158","964504","10.668777","3.952270","0.026528","2700","4759","6654","2612","4141","5348","2564","3859","4820","2579","3717","4510","2557","3192","3566","DualSpot on"
"MA200-0420","51961","81","1","1.10","1.6","2023-08-18T11:15:01","120","2023/08/18","11:15:01","-15.795676052570343","35.00270766625181","0.1","12","300","64","97","-584","-26996","483","1","150","150.40","111.98","38.42","30.47","33.6","12.66","90444","31.25","DUALSPOT-UV-BLUE-GREEN-RED-IR","547904","593123","907588","32.569110","15.674500","0.018117","684009","796482","839868","22.773004","10.079611","0.021728","691340","788421","831885","19.581830","8.368323","0.023045","734566","808171","889409","15.929642","6.562008","0.025391","682821","855450","967962","10.879341","4.041402","0.024921","2808","4906","6851","2677","4139","5300","2646","3892","4822","2666","3732","4478","2626","3240","3603","DualSpot on"
"MA200-0420","51962","81","1","1.10","1.6","2023-08-18T11:20:01","120","2023/08/18","11:20:01","-15.795769095420837","35.002702332800254","0.1","12","300","64","98","-372","-27091","704","1","150","150.21","112.36","37.86","30.63","33.3","12.64","90428","31.38","DUALSPOT-UV-BLUE-GREEN-RED-IR","544427","590457","906194","33.052304","15.969849","0.018507","679679","792753","837654","23.143342","10.283477","0.023024","687943","785739","830484","19.907464","8.540847","0.025148","735673","810497","893173","16.203266","6.698308","0.027723","679558","852307","965192","11.075790","4.125887","0.027608","2525","4582","6504","2443","3992","5230","2406","3783","4818","2443","3612","4435","2442","3117","3518","DualSpot on"
"MA200-0420","51963","81","1","1.10","1.6","2023-08-18T11:25:01","120","2023/08/18","11:25:01","-15.795606076717377","35.00276566622779","0.1","13","300","64","98","-636","-27068","316","1","150","149.69","111.81","37.88","30.82","33.4","12.89","90424","31.63","DUALSPOT-UV-BLUE-GREEN-RED-IR","540921","587919","905212","33.590980","16.294846","0.017939","675824","789753","836286","23.548822","10.499258","0.021544","689029","788432","834837","20.267528","8.722984","0.022891","733616","809475","893341","16.503159","6.843503","0.025627","677642","850963","964584","11.290760","4.217161","0.025489","2829","5039","7120","2688","4222","5457","2673","3991","4987","2690","3845","4663","2685","3365","3771","DualSpot on"
"MA200-0420","51964","81","1","1.10","1.6","2023-08-18T11:30:01","120","2023/08/18","11:30:01","-15.795640289783478","35.00276783318259","0.1","13","300","64","97","-608","-26752","-107","1","150","149.84","112.10","37.73","31.02","33.1","12.91","90400","31.81","DUALSPOT-UV-BLUE-GREEN-RED-IR","537960","585954","905403","34.160196","16.645100","0.018079","672961","787923","836338","23.979352","10.734293","0.022084","685811","786165","834109","20.647132","8.920226","0.023685","730125","806944","891951","16.820962","6.999503","0.026141","674621","848313","962480","11.520458","4.314966","0.025828","2982","5451","7798","2847","4617","6052","2811","4339","5502","2844","4147","5076","2862","3620","4074","DualSpot on"
"MA200-0420","51965","81","1","1.10","1.6","2023-08-18T11:35:01","120","2023/08/18","11:35:01","-15.795669972896576","35.002765166340396","0.1","13","300","64","97","-579","-27033","275","1","150","149.95","112.20","37.75","31.26","33.0","13.05","90400","32.06","DUALSPOT-UV-BLUE-GREEN-RED-IR","535705","584616","906116","34.659540","16.955502","0.018004","671177","787211","837269","24.358804","10.941959","0.021850","683530","784809","834092","20.980622","9.093085","0.023275","728126","805861","891989","17.102228","7.138144","0.025959","676709","851963","967440","11.728073","4.400944","0.023014","2613","4829","6952","2507","4078","5359","2467","3801","4822","2514","3684","4522","2584","3181","3540","DualSpot on"
"MA200-0420","51966","81","1","1.10","1.6","2023-08-18T11:40:01","120","2023/08/18","11:40:01","-15.795519411563873","35.002852332778275","0.1","13","300","72","97","-464","-27140","1596","1","150","149.38","114.93","34.45","31.46","32.3","12.94","90396","32.19","DUALSPOT-UV-BLUE-GREEN-RED-IR","463753","507144","788671","35.195280","17.290096","0.019335","671180","788622","840664","24.755874","11.165153","0.024825","679240","781137","831768","21.330244","9.279684","0.027198","722940","801297","888212","17.392134","7.284480","0.031086","672375","847526","963268","11.937382","4.490736","0.034239","2738","5704","8570","2561","4803","6644","2525","4497","6015","2530","4261","5509","2544","3641","4302","DualSpot on"
"MA200-0420","51967","81","1","1.10","1.6","2023-08-18T11:45:01","120","2023/08/18","11:45:01","-15.795621573925018","35.00273883296177","0.2","13","300","64","98","-536","-27024","740","1","150","149.84","115.58","34.26","31.60","32.0","12.89","90392","32.38","DUALSPOT-UV-BLUE-GREEN-RED-IR","530355","581529","908394","35.910064","17.734706","0.019063","665995","784383","838673","25.294484","11.465455","0.024394","675274","778316","830813","21.798832","9.529917","0.026950","719254","798756","887123","17.776302","7.476499","0.030500","673681","850422","967689","12.199493","4.606155","0.035920","3632","7622","11515","3454","6498","9021","3366","6064","8159","3334","5623","7284","3168","4706","5639","DualSpot on"
"MA200-0420","51968","81","1","1.10","1.6","2023-08-18T11:50:01","120","2023/08/18","11:50:01","-15.795621037483215","35.00275083305314","0.2","13","300","64","97","-556","-27060","448","1","150","149.83","115.14","34.69","31.74","31.6","12.81","90388","32.44","DUALSPOT-UV-BLUE-GREEN-RED-IR","525088","577032","904753","36.514720","18.114998","0.018717","665129","784948","841456","25.761846","11.728508","0.023855","673972","778285","832614","22.212972","9.750588","0.026027","718685","799502","889516","18.123980","7.653383","0.030010","668843","845431","963080","12.446590","4.715466","0.034547","3084","6439","9743","3009","5622","7806","2986","5282","7078","3029","5116","6641","2997","4402","5259","DualSpot on"
"MA200-0420","51969","81","1","1.10","1.6","2023-08-18T11:55:01","120","2023/08/18","11:55:01","-15.7955801486969","35.00279699987732","0.2","13","300","64","98","-529","-27150","329","1","150","149.74","114.96","34.77","31.88","30.9","12.63","90376","32.63","DUALSPOT-UV-BLUE-GREEN-RED-IR","526255","579378","911309","37.010844","18.427158","0.018445","662008","782590","840820","26.159030","11.954631","0.023663","670952","776058","831843","22.567468","9.943761","0.026098","714956","796467","887460","18.422996","7.806147","0.029559","669880","847799","966720","12.664204","4.812990","0.034524","2534","5272","7987","2561","4820","6722","2560","4612","6228","2609","4407","5729","2644","3917","4698","DualSpot on"
"MA200-0420","51970","81","1","1.10","1.6","2023-08-18T12:00:01","120","2023/08/18","12:00:01","-15.795641303062439","35.0027778330259","0.2","13","300","64","97","-616","-27068","596","1","150","150.01","115.46","34.55","32.02","30.7","12.61","90376","32.88","DUALSPOT-UV-BLUE-GREEN-RED-IR","522305","575936","908319","37.435000","18.696950","0.018491","657617","778526","838057","26.496882","12.146919","0.023582","667715","773386","830350","22.871348","10.108161","0.025861","717571","800409","893054","18.679312","7.937906","0.029725","667559","845699","965103","12.849663","4.895448","0.034221","2157","4586","7010","2169","4125","5782","2185","3950","5348","2227","3826","5007","2243","3334","4005","DualSpot on"
"MA200-0420","51971","81","1","1.10","1.6","2023-08-18T12:05:01","120","2023/08/18","12:05:01","-15.795635521411896","35.0027436662931","0.2","12","300","64","97","-787","-27108","675","1","150","150.47","114.97","35.50","32.14","30.1","12.41","90364","32.88","DUALSPOT-UV-BLUE-GREEN-RED-IR","521417","575649","909900","37.782440","18.921734","0.018179","656745","778420","839375","26.781722","12.313111","0.023228","666546","772898","830978","23.124692","10.249015","0.025502","711418","794347","887282","18.896226","8.051859","0.029100","666404","844976","964966","13.005302","4.966485","0.033528","1775","3718","5668","1836","3470","4860","1829","3293","4459","1892","3220","4205","1891","2794","3353","DualSpot on"
"MA200-0420","51972","81","1","1.10","1.6","2023-08-18T12:10:01","120","2023/08/18","12:10:01","-15.795552492141724","35.00275283283554","0.4","13","300","64","97","-508","-27075","644","1","150","150.70","114.85","35.85","32.22","29.9","12.41","90364","33.00","DUALSPOT-UV-BLUE-GREEN-RED-IR","517413","571980","906211","38.147880","19.157932","0.017894","652203","773994","836010","27.076770","12.483352","0.022586","666356","773607","832927","23.389838","10.393149","0.024440","711910","795770","889905","19.119546","8.166489","0.027689","666692","846091","966951","13.167660","5.039565","0.031691","1868","3869","5888","1904","3520","4902","1916","3337","4474","1950","3207","4145","1974","2847","3388","DualSpot on"
"MA200-0420","51973","81","1","1.10","1.6","2023-08-18T12:15:01","120","2023/08/18","12:15:01","-15.795653641223907","35.002827666234225","0.1","13","300","64","97","-579","-27116","500","1","150","149.97","114.61","35.36","32.35","30.1","12.62","90356","33.13","DUALSPOT-UV-BLUE-GREEN-RED-IR","513709","568871","904246","38.647360","19.483288","0.017893","653066","776290","840259","27.447460","12.693331","0.022178","666435","774904","835834","23.720282","10.571212","0.024197","709444","794134","889328","19.401532","8.306783","0.026663","663698","843318","964644","13.378220","5.129835","0.028952","2559","5405","8297","2397","4402","6127","2393","4181","5618","2468","3981","5113","2566","3566","4188","DualSpot on"
"MA200-0420","51974","81","1","1.10","1.6","2023-08-18T12:20:01","120","2023/08/18","12:20:01","-15.795633018016815","35.00279766647145","0.1","13","300","64","97","-537","-27041","425","1","150","149.47","114.45","35.02","32.40","29.9","12.53","90352","33.19","DUALSPOT-UV-BLUE-GREEN-RED-IR","514276","570214","908722","39.034864","19.740802","0.018018","649787","773369","838664","27.761818","12.878722","0.022826","663470","772412","834438","24.001328","10.728599","0.025007","710136","795812","892327","19.640644","8.433190","0.028538","661054","840723","962419","13.546940","5.206754","0.032713","1988","4319","6703","2036","3924","5558","2038","3731","5099","2096","3621","4769","2059","3068","3698","DualSpot on"
"MA200-0420","51975","81","1","1.10","1.6","2023-08-18T12:25:01","120","2023/08/18","12:25:01","-15.795624375343323","35.002816666383296","0.1","13","300","64","97","-575","-27137","579","1","150","150.34","114.34","36.01","32.49","29.8","12.56","90336","33.25","DUALSPOT-UV-BLUE-GREEN-RED-IR","511985","568397","908039","39.405364","19.984414","0.017465","646558","770501","836992","28.060630","13.052376","0.021828","660999","770444","833571","24.270512","10.877218","0.023780","707867","794134","891505","19.868992","8.550933","0.026577","662981","843913","966822","13.711742","5.283616","0.032016","1903","3973","6104","1937","3575","4999","1954","3426","4622","2003","3280","4245","2013","2982","3589","DualSpot on"
"MA200-0420","51976","81","1","1.10","1.6","2023-08-18T12:30:01","120","2023/08/18","12:30:01","-15.795594334602356","35.00283033307642","0.1","13","300","64","98","-612","-27054","541","1","150","149.94","114.18","35.76","32.58","29.4","12.47","90336","33.31","DUALSPOT-UV-BLUE-GREEN-RED-IR","511890","568995","911213","39.769128","20.226848","0.017514","647132","772117","840212","28.354468","13.225774","0.021993","660533","770792","835196","24.533452","11.025670","0.024174","707377","794447","892886","20.090930","8.669488","0.027561","658898","839450","962427","13.872578","5.357661","0.031252","1871","3981","6165","1907","3594","5068","1911","3446","4698","1950","3325","4369","1967","2892","3473","DualSpot on"
"MA200-0420","51977","81","1","1.10","1.6","2023-08-18T12:35:01","120","2023/08/18","12:35:01","-15.795614838600159","35.002762499731034","0.1","14","300","64","97","-555","-27152","764","1","150","150.27","114.22","36.06","32.68","29.2","12.43","90324","33.31","DUALSPOT-UV-BLUE-GREEN-RED-IR","506197","563870","906655","40.381760","20.629040","0.017042","640976","766189","835956","28.802546","13.487978","0.021394","655325","766063","831878","24.927908","11.244170","0.023224","701863","789482","888851","20.421552","8.840293","0.025896","658329","839841","963911","14.111141","5.463747","0.028351","3150","6551","10104","2908","5391","7577","2867","5031","6809","2904","4752","6163","2917","4110","4863","DualSpot on"
"MA200-0420","51978","81","1","1.10","1.6","2023-08-18T12:40:01","120","2023/08/18","12:40:01","-15.795525848865509","35.002843166468665","0.5","14","300","64","97","-504","-27108","832","1","150","149.67","113.85","35.82","32.69","29.3","12.46","90312","33.31","DUALSPOT-UV-BLUE-GREEN-RED-IR","501283","559870","905091","41.191224","21.170090","0.016949","641024","768041","840679","29.360884","13.810925","0.020872","652180","764042","831902","25.413900","11.510846","0.022674","699218","788078","889084","20.825652","9.047254","0.025259","656265","838483","963601","14.398567","5.595367","0.029646","4176","8871","13835","3635","6683","9390","3544","6180","8363","3561","5796","7513","3526","5132","6153","DualSpot on"
"MA200-0420","51979","81","1","1.10","1.6","2023-08-18T12:45:01","120","2023/08/18","12:45:01","-15.795634388923645","35.00278866640292","0.3","13","300","64","97","-697","-27031","342","1","150","149.76","113.98","35.78","32.69","29.1","12.36","90304","33.38","DUALSPOT-UV-BLUE-GREEN-RED-IR","501686","561042","909463","41.591876","21.441768","0.016962","637348","764629","838609","29.688180","14.006939","0.021296","651605","764352","833614","25.706968","11.676882","0.023183","699292","789023","891358","21.074622","9.179688","0.026180","656746","839884","966025","14.574650","5.679452","0.031611","2064","4460","7009","2128","4061","5788","2134","3853","5283","2191","3713","4888","2158","3283","4001","DualSpot on"
"MA200-0420","51980","81","1","1.10","1.6","2023-08-18T12:50:01","120","2023/08/18","12:50:01","-15.795694172382355","35.002754166256636","0.3","13","300","72","97","-536","-27019","435","1","150","149.67","113.60","36.07","32.74","28.9","12.34","90288","33.44","DUALSPOT-UV-BLUE-GREEN-RED-IR","498587","558263","907332","41.975080","21.704296","0.016811","633528","761008","836184","30.000720","14.196186","0.021085","649172","762396","832826","25.987430","11.838717","0.023095","695836","786025","889130","21.314088","9.308253","0.025844","567419","726278","836050","14.743031","5.760103","0.030855","1981","4274","6730","2039","3889","5551","2049","3724","5126","2114","3575","4708","2070","3123","3798","DualSpot on"
"MA200-0420","51981","81","1","1.10","1.6","2023-08-18T12:55:01","120","2023/08/18","12:55:01","-15.795675694942474","35.002746666548774","0.2","13","300","64","97","-516","-27144","215","1","150","149.07","113.41","35.66","32.81","29.1","12.50","90288","33.56","DUALSPOT-UV-BLUE-GREEN-RED-IR","496776","557010","908008","42.412032","22.004844","0.016779","631863","760038","836854","30.342408","14.404192","0.021110","647266","761159","832906","26.292966","12.015173","0.023063","695566","786635","891034","21.572240","9.448770","0.026207","653701","837514","964947","14.928062","5.849542","0.031418","2263","4950","7847","2233","4324","6213","2236","4108","5682","2283","3953","5254","2279","3503","4292","DualSpot on"
"MA200-0420","51982","81","1","1.10","1.6","2023-08-18T13:00:01","120","2023/08/18","13:00:01","-15.795619070529938","35.00275083305314","0.0","13","300","72","97","-596","-27052","248","1","150","150.34","113.55","36.80","32.89","29.0","12.48","90272","33.63","DUALSPOT-UV-BLUE-GREEN-RED-IR","494837","555462","907852","42.787676","22.264446","0.016418","629775","758369","836615","30.646920","14.591984","0.020650","559169","658282","721533","26.566258","12.175713","0.022587","692832","784372","889602","21.805754","9.576261","0.025211","651501","835437","963324","15.097267","5.929936","0.028766","1943","4143","6531","1988","3783","5415","1998","3622","4996","2063","3476","4582","2081","3052","3679","DualSpot on"
"MA200-0420","51983","81","1","1.10","1.6","2023-08-18T13:05:01","120","2023/08/18","13:05:01","-15.79559862613678","35.00277533312328","0.1","13","300","64","97","-467","-27132","667","1","150","150.47","113.31","37.16","33.02","28.8","12.53","90272","33.81","DUALSPOT-UV-BLUE-GREEN-RED-IR","491408","552267","905132","43.181692","22.539966","0.016282","630306","759989","840019","30.964414","14.786836","0.020188","642079","756785","830869","26.852376","12.341810","0.021883","688724","780584","886523","22.048452","9.709006","0.024673","652528","837560","966586","15.275490","6.015757","0.028528","2042","4354","6879","2077","3886","5540","2096","3710","5083","2148","3583","4712","2197","3225","3894","DualSpot on"
"MA200-0420","51984","81","1","1.10","1.6","2023-08-18T13:10:01","120","2023/08/18","13:10:01","-15.795654654502869","35.00271533289924","0.3","13","300","64","97","-616","-27183","329","1","150","149.47","113.17","36.30","33.18","28.8","12.66","90264","33.94","DUALSPOT-UV-BLUE-GREEN-RED-IR","491558","553078","908915","43.569848","22.812092","0.016373","626134","755798","837031","31.276996","14.981949","0.020618","642102","757695","833239","27.134600","12.509653","0.022595","690571","783504","891021","22.288970","9.843704","0.025660","649198","834067","963368","15.458538","6.102631","0.028600","2014","4403","7028","2047","3984","5765","2070","3838","5351","2132","3722","4980","2259","3343","4050","DualSpot on"
"MA200-0420","51985","81","1","1.10","1.6","2023-08-18T13:15:01","120","2023/08/18","13:15:01","-15.79560649394989","35.002801166148856","0.4","13","300","64","97","-616","-27140","196","1","150","149.32","112.80","36.52","33.28","28.1","12.35","90256","34.00","DUALSPOT-UV-BLUE-GREEN-RED-IR","488118","549767","905678","43.921676","23.060898","0.016250","626500","757039","839915","31.563862","15.163211","0.020492","638632","754362","830907","27.392804","12.665503","0.022506","691622","785459","894379","22.511402","9.968263","0.025186","649428","835088","965332","15.621147","6.180141","0.028079","1832","4001","6399","1885","3679","5338","1900","3542","4955","1978","3421","4568","2013","2964","3587","DualSpot on"
"MA200-0420","51986","81","1","1.10","1.6","2023-08-18T13:20:01","120","2023/08/18","13:20:01","-15.795667231082916","35.00276233302429","0.3","13","300","64","97","-591","-26916","562","1","150","150.67","112.84","37.83","33.42","28.2","12.53","90236","34.25","DUALSPOT-UV-BLUE-GREEN-RED-IR","489384","551774","911355","44.279864","23.313378","0.015798","623875","754733","838896","31.857716","15.344817","0.019440","639269","755977","833923","27.656154","12.818016","0.020808","688231","782407","891958","22.735922","10.091869","0.023567","646907","832550","963173","15.789494","6.260466","0.026101","1864","3919","6205","1930","3558","5071","1937","3346","4564","1996","3277","4300","2084","2965","3545","DualSpot on"
"MA200-0420","51987","81","1","1.10","1.6","2023-08-18T13:25:01","120","2023/08/18","13:25:01","-15.795630693435669","35.00274549960159","0.2","12","300","64","98","-544","-27088","696","1","150","150.08","112.99","37.09","33.44","27.9","12.37","90244","34.00","DUALSPOT-UV-BLUE-GREEN-RED-IR","485092","547516","906507","44.631288","23.556836","0.015722","618961","749598","834625","32.146142","15.522651","0.019581","635443","752243","831112","27.918828","12.971356","0.021223","682868","777095","887020","22.962150","10.213953","0.023389","646583","832864","964276","15.950905","6.336747","0.026446","1826","3855","6123","1892","3554","5106","1930","3432","4736","2008","3302","4339","1995","2873","3451","DualSpot on"
"MA200-0420","51988","81","1","1.10","1.6","2023-08-18T13:30:01","120","2023/08/18","13:30:01","-15.795630514621735","35.00275733298622","0.6","12","300","64","97","-558","-27166","345","1","150","149.95","112.64","37.31","33.33","27.8","12.22","90236","33.88","DUALSPOT-UV-BLUE-GREEN-RED-IR","484190","547059","908003","44.978288","23.804088","0.015779","618366","749677","836254","32.433956","15.705123","0.019708","634486","751881","832015","28.180034","13.129957","0.021622","684045","779221","890542","23.183726","10.338526","0.024033","647229","834326","966713","16.105362","6.415571","0.029384","1809","3892","6233","1894","3625","5250","1925","3528","4927","1973","3349","4456","1915","2951","3636","DualSpot on"
"MA200-0420","51989","81","1","1.10","1.6","2023-08-18T13:35:01","120","2023/08/18","13:35:01","-15.795682966709137","35.00273649930023","0.2","12","300","64","97","-560","-27224","488","1","150","149.96","112.36","37.60","33.40","28.0","12.40","90228","34.13","DUALSPOT-UV-BLUE-GREEN-RED-IR","482018","545204","907354","45.357724","24.076508","0.015642","620574","753240","841923","32.749084","15.903731","0.019301","632065","749867","831184","28.463552","13.299513","0.020955","680317","775771","887828","23.428842","10.477048","0.023683","645282","832528","965500","16.283058","6.507271","0.029148","1983","4256","6827","2079","3916","5650","2094","3744","5191","2188","3696","4916","2209","3407","4204","DualSpot on"
"MA200-0420","51990","81","1","1.10","1.6","2023-08-18T13:40:01","120","2023/08/18","13:40:01","-15.79558151960373","35.002756499452516","0.3","12","300","64","97","-512","-27075","491","1","150","149.62","112.49","37.13","33.53","28.1","12.57","90212","34.31","DUALSPOT-UV-BLUE-GREEN-RED-IR","478713","541974","904295","45.709624","24.329892","0.015672","616466","749034","838758","33.039112","16.088701","0.019521","629079","747117","829434","28.725028","13.457816","0.021263","677247","772995","885771","23.652990","10.605245","0.024117","642666","829846","963177","16.449104","6.589495","0.027651","1837","4007","6477","1911","3692","5383","1929","3539","4958","1999","3463","4654","2062","3093","3782","DualSpot on"
"MA200-0420","51991","81","1","1.10","1.6","2023-08-18T13:45:01","120","2023/08/18","13:45:01","-15.795637488365173","35.002756332745776","0.1","13","300","64","97","-612","-27200","454","1","150","149.38","112.40","36.98","33.70","27.9","12.61","90204","34.50","DUALSPOT-UV-BLUE-GREEN-RED-IR","478225","541880","906406","46.050588","24.585084","0.015902","615864","749011","840273","33.315922","16.271664","0.019919","631178","750301","834316","28.977664","13.615720","0.021717","680795","777778","892405","23.868130","10.731758","0.024663","640882","828218","962082","16.611069","6.670969","0.028251","1781","4053","6655","1825","3668","5427","1866","3545","5033","1920","3432","4668","2012","3078","3792","DualSpot on"
"MA200-0420","51992","81","1","1.10","1.6","2023-08-18T13:50:01","120","2023/08/18","13:50:01","-15.795628845691681","35.002753499662504","0.1","13","300","64","98","-552","-27016","584","1","150","150.07","112.34","37.72","33.77","27.3","12.36","90192","34.44","DUALSPOT-UV-BLUE-GREEN-RED-IR","476139","540027","905526","46.382936","24.823842","0.015313","613729","747115","839628","33.588092","16.447687","0.019195","629886","749484","834667","29.224032","13.766371","0.020812","675214","772100","886932","24.081520","10.852215","0.022986","640206","828008","962588","16.769920","6.748073","0.025469","1737","3717","5997","1795","3459","5055","1820","3315","4646","1905","3203","4268","1975","2855","3447","DualSpot on"
"MA200-0420","51993","81","1","1.10","1.6","2023-08-18T13:55:01","120","2023/08/18","13:55:01","-15.79562783241272","35.002733999630436","0.1","13","300","64","97","-512","-27108","333","1","150","149.67","112.44","37.23","33.78","27.1","12.23","90180","34.44","DUALSPOT-UV-BLUE-GREEN-RED-IR","474251","538382","904936","46.718912","25.067334","0.015401","611968","745739","839571","33.867500","16.626005","0.019063","627593","747503","833735","29.476286","13.920270","0.020861","677548","775489","891953","24.296928","10.974900","0.023367","642137","831112","966997","16.923892","6.827862","0.028744","1755","3841","6257","1842","3550","5198","1862","3432","4836","1922","3306","4446","1912","2993","3725","DualSpot on"
"MA200-0420","51994","81","1","1.10","1.6","2023-08-18T14:00:01","120","2023/08/18","14:00:01","-15.79567277431488","35.002727166283876","0.3","13","300","64","97","-548","-27052","492","1","150","149.50","112.05","37.45","33.89","27.3","12.45","90184","34.63","DUALSPOT-UV-BLUE-GREEN-RED-IR","474720","539361","909104","47.074196","25.339432","0.015648","607861","741451","836405","34.162184","16.825790","0.019599","625003","745111","832486","29.742922","14.093555","0.021591","674770","773022","890364","24.527082","11.117136","0.024799","639505","828339","964682","17.092610","6.926479","0.032603","1862","4267","7070","1949","3954","5900","1975","3841","5521","2060","3810","5260","2103","3678","4751","DualSpot on"
"MA200-0420","51995","81","1","1.10","1.6","2023-08-18T14:05:01","120","2023/08/18","14:05:01","-15.795655846595764","35.00278416648507","0.1","13","300","64","97","-548","-27032","504","1","150","150.02","112.05","37.97","33.99","27.1","12.41","90184","34.69","DUALSPOT-UV-BLUE-GREEN-RED-IR","471433","536156","906001","47.430488","25.598748","0.015048","608876","743437","840273","34.455984","17.016762","0.018708","624681","745477","834309","30.009578","14.257229","0.020231","675437","774513","893270","24.755094","11.248065","0.022621","639841","829454","966834","17.264392","7.011620","0.025360","1867","4011","6524","1943","3728","5469","1975","3578","5029","2041","3459","4640","2141","3132","3809","DualSpot on"
"MA200-0420","51996","81","1","1.10","1.6","2023-08-18T14:10:01","120","2023/08/18","14:10:01","-15.795662999153137","35.00278849969618","0.1","13","300","64","98","-596","-27091","348","1","150","150.15","111.89","38.26","34.08","27.1","12.48","90176","34.81","DUALSPOT-UV-BLUE-GREEN-RED-IR","471131","536331","908730","47.792404","25.866020","0.014993","603964","738183","835977","34.755632","17.213660","0.018591","621419","742320","832146","30.280994","14.427214","0.020265","670778","769909","889171","24.990494","11.386423","0.022771","636436","825739","963329","17.438340","7.101045","0.026336","1899","4103","6702","1985","3815","5610","2013","3688","5212","2110","3628","4898","2171","3265","4016","DualSpot on"
"MA200-0420","51997","81","1","1.10","1.6","2023-08-18T14:15:01","120","2023/08/18","14:15:01","-15.79570484161377","35.002695499686524","0.1","13","300","64","97","-604","-27063","328","1","150","149.89","111.45","38.43","34.16","27.1","12.52","90180","34.81","DUALSPOT-UV-BLUE-GREEN-RED-IR","469813","535312","909434","48.151556","26.132068","0.014852","602882","737654","837003","35.054352","17.409014","0.018269","619677","741038","832101","30.552404","14.595449","0.019778","669149","768780","889058","25.223536","11.521334","0.022022","635098","824713","962978","17.611908","7.187950","0.024585","1892","4065","6644","1986","3768","5525","2021","3634","5109","2097","3521","4719","2175","3158","3836","DualSpot on"
"MA200-0420","51998","81","1","1.10","1.6","2023-08-18T14:20:01","120","2023/08/18","14:20:01","-15.795594155788422","35.002807666081935","0.1","13","300","64","97","-533","-26941","337","1","150","149.67","111.49","38.18","34.23","27.0","12.57","90180","34.88","DUALSPOT-UV-BLUE-GREEN-RED-IR","465047","530355","903453","48.512236","26.401264","0.014868","601365","736531","837404","35.355284","17.608556","0.018413","618426","740298","832715","30.827894","14.769643","0.020080","668490","768786","890310","25.461048","11.659654","0.022143","634376","824496","963590","17.787586","7.277267","0.025332","1900","4141","6817","2001","3874","5733","2051","3787","5384","2137","3634","4899","2201","3267","4006","DualSpot on"
"MA200-0420","51999","81","1","1.10","1.6","2023-08-18T14:25:01","120","2023/08/18","14:25:01","-15.795661985874176","35.002805499592796","0.3","13","300","64","97","-679","-27133","366","1","150","149.76","111.18","38.58","34.21","26.8","12.44","90176","34.75","DUALSPOT-UV-BLUE-GREEN-RED-IR","465952","531873","908430","48.869104","26.666226","0.014630","598727","734014","836194","35.655892","17.807292","0.018059","615592","737633","831164","31.101070","14.940527","0.019518","665190","765757","888031","25.698130","11.799784","0.021997","632092","822198","961789","17.958614","7.367810","0.026241","1885","4033","6614","2004","3818","5628","2039","3677","5191","2139","3644","4921","2148","3278","4064","DualSpot on"
"MA200-0420","52000","81","1","1.10","1.6","2023-08-18T14:30:01","120","2023/08/18","14:30:01","-15.795681953430176","35.00272533297539","0.2","14","300","64","97","-624","-27040","435","1","150","150.01","111.61","38.40","34.18","26.6","12.27","90168","34.75","DUALSPOT-UV-BLUE-GREEN-RED-IR","464536","530749","908905","49.225600","26.934070","0.014694","596751","732339","835938","35.954852","18.007984","0.018242","614159","736647","831479","31.373640","15.114217","0.019821","663672","764730","888075","25.931922","11.939960","0.022337","631096","821535","961851","18.124816","7.456859","0.026836","1876","4097","6780","1985","3874","5770","2027","3755","5361","2101","3662","4994","2080","3239","4050","DualSpot on"
"MA200-0420","52001","81","1","1.10","1.6","2023-08-18T14:35:01","120","2023/08/18","14:35:01","-15.79562622308731","35.00270183291286","0.2","14","300","64","97","-608","-27079","304","1","150","149.53","111.28","38.25","34.06","26.7","12.23","90160","34.56","DUALSPOT-UV-BLUE-GREEN-RED-IR","462561","528930","908177","49.568756","27.193088","0.014646","595008","730935","835954","36.245404","18.201116","0.017996","612140","734976","830999","31.639366","15.283291","0.019663","662382","763941","888397","26.162788","12.075646","0.021736","630319","821117","962221","18.288170","7.544378","0.026653","1811","3977","6609","1935","3743","5566","1982","3669","5246","2081","3558","4825","2050","3196","4000","DualSpot on"
"MA200-0420","52002","81","1","1.10","1.6","2023-08-18T14:40:01","120","2023/08/18","14:40:01","-15.795670509338379","35.002717833034694","0.1","13","300","64","97","-516","-27037","633","1","150","149.95","111.30","38.66","34.10","27.1","12.50","90160","34.69","DUALSPOT-UV-BLUE-GREEN-RED-IR","459768","526223","906123","49.951804","27.481868","0.014462","595761","732624","839715","36.568588","18.417758","0.017830","613173","736953","834831","31.935752","15.471840","0.019329","659568","761479","886884","26.419278","12.229175","0.021722","632003","824063","966656","18.478840","7.644028","0.025034","2021","4387","7281","2152","4154","6186","2210","4049","5777","2312","3984","5426","2393","3601","4453","DualSpot on"
"MA200-0420","52003","81","1","1.10","1.6","2023-08-18T14:45:01","120","2023/08/18","14:45:01","-15.795661330223083","35.00278566638008","0.2","14","300","64","97","-591","-27129","437","1","150","150.15","111.94","38.20","34.20","27.1","12.56","90164","34.75","DUALSPOT-UV-BLUE-GREEN-RED-IR","459426","526341","909133","50.352416","27.787620","0.014577","591830","728564","836972","36.905892","18.646942","0.018073","608851","732584","831506","32.242340","15.669293","0.019638","659201","761924","888824","26.687554","12.390836","0.022047","627997","819624","962422","18.676460","7.749489","0.026275","2101","4700","7901","2233","4447","6707","2273","4291","6198","2404","4245","5841","2466","3856","4842","DualSpot on"
"MA200-0420","52004","81","1","1.10","1.6","2023-08-18T14:50:01","120","2023/08/18","14:50:01","-15.795604467391968","35.002814499428496","0.0","14","300","68","98","-520","-27036","104","2","150","149.59","113.04","36.54","34.12","26.9","12.43","90156","34.56","DUALSPOT-UV-BLUE-GREEN-RED-IR","774592","696630","909032","0.000000","0.000000","0.000000","874507","885486","839877","0.000000","0.000000","0.000000","854014","860987","831782","0.000000","0.000000","0.000000","874955","868092","892664","0.000000","0.000000","0.000000","762751","887925","966804","0.000000","0.000000","0.000000","","","","","","","","","","","","","","","","Tape advance-DualSpot on"
"MA200-0420","52005","81","1","1.10","1.6","2023-08-18T14:55:01","120","2023/08/18","14:55:01","-15.795612454414368","35.00280916620977","0.1","14","300","68","97","-608","-27091","458","2","150","150.40","113.16","37.24","34.07","27.1","12.45","90156","34.50","DUALSPOT-UV-BLUE-GREEN-RED-IR","763887","691476","906042","0.000000","0.000000","0.000000","865071","879901","836855","0.000000","0.000000","0.000000","850927","861116","833785","0.000000","0.000000","0.000000","866362","862105","888042","0.000000","0.000000","0.000000","757761","883667","963141","0.000000","0.000000","0.000000","","","","","","","","","","","","","","","","Tape advance-DualSpot on"
"MA200-0420","52006","81","1","1.10","1.6","2023-08-18T15:00:01","120","2023/08/18","15:00:01","-15.795707941055298","35.002784833079204","0.8","14","300","64","97","-487","-27166","-229","2","150","150.33","112.97","37.36","33.92","27.1","12.36","90152","34.25","DUALSPOT-UV-BLUE-GREEN-RED-IR","757298","690104","908277","1.112913","0.443054","0.000000","860573","879537","838995","0.776284","0.296443","0.000000","842982","856525","831420","0.655382","0.249373","0.000000","866106","864566","892299","0.509727","0.191567","0.000000","754097","880995","961298","0.293962","0.111138","0.000000","5786","6964","5786","5094","5881","5094","4816","5541","4816","4526","5143","4526","3635","4155","3635","DualSpot on"
"MA200-0420","52007","81","1","1.10","1.6","2023-08-18T15:05:01","120","2023/08/18","15:05:01","-15.795682787895203","35.00281049963087","0.1","14","300","64","97","-558","-26962","508","2","150","150.08","112.84","37.25","33.82","27.3","12.38","90152","34.25","DUALSPOT-UV-BLUE-GREEN-RED-IR","747087","685393","906223","2.241964","0.903762","0.000000","851936","874972","837274","1.580703","0.610613","0.000000","835412","852423","829613","1.336818","0.513064","0.000000","859011","860314","889722","1.044509","0.395584","0.000000","755030","883801","965513","0.608015","0.231175","0.000000","5877","7265","5877","5285","6253","5285","5013","5877","5013","4755","5495","4755","3888","4502","3888","DualSpot on"
"MA200-0420","52008","81","1","1.10","1.6","2023-08-18T15:10:01","120","2023/08/18","15:10:01","-15.795680284500122","35.00276783318259","0.3","13","300","64","97","-512","-26950","816","2","150","150.40","113.08","37.31","33.79","27.2","12.31","90144","34.25","DUALSPOT-UV-BLUE-GREEN-RED-IR","739521","682379","905957","3.231399","1.316488","0.095417","845202","871781","836549","2.288746","0.890701","0.000000","835231","855343","834439","1.939606","0.750750","0.000000","854807","858590","889593","1.516909","0.577080","0.000000","753128","883097","965759","0.886194","0.336898","0.000000","5139","6496","7430","4641","5564","4641","4425","5288","4425","4191","4880","4191","3436","3958","3436","DualSpot on"
"MA200-0420","52009","81","1","1.10","1.6","2023-08-18T15:15:01","120","2023/08/18","15:15:01","-15.795608222484589","35.00278916629031","0.0","13","300","64","97","-528","-27072","596","2","150","149.50","112.60","36.90","33.78","27.4","12.39","90148","34.31","DUALSPOT-UV-BLUE-GREEN-RED-IR","738132","684990","913275","4.226238","1.736993","0.078032","840669","870893","838066","3.005087","1.171917","0.081518","830583","853791","834855","2.550346","0.987190","0.000000","851497","857849","890414","1.998555","0.759698","0.000000","751406","882637","966335","1.174619","0.446048","0.000000","5189","6693","7743","4716","5649","6246","4503","5319","4503","4291","4965","4291","3578","4132","3578","DualSpot on"
"MA200-0420","52010","81","1","1.10","1.6","2023-08-18T15:20:01","120","2023/08/18","15:20:01","-15.795670211315155","35.00279516656883","0.1","13","300","64","97","-541","-27008","545","2","150","150.15","111.57","38.58","33.80","27.4","12.41","90152","34.31","DUALSPOT-UV-BLUE-GREEN-RED-IR","726190","677912","907930","5.270529","2.191066","0.058058","835123","869001","838794","3.756623","1.478314","0.060710","820997","847193","830559","3.193015","1.243597","0.063070","846811","855809","890093","2.509014","0.959621","0.000000","744667","876409","960635","1.485412","0.563616","0.000000","5497","6913","7921","4993","5888","6468","4782","5518","5988","4590","5199","4590","3891","4257","3891","DualSpot on"
"MA200-0420","52011","81","1","1.10","1.6","2023-08-18T15:25:01","120","2023/08/18","15:25:01","-15.795631051063538","35.0027498328127","0.2","13","300","64","98","-508","-26879","558","2","150","149.76","112.84","36.92","33.82","27.4","12.45","90152","34.38","DUALSPOT-UV-BLUE-GREEN-RED-IR","719509","675449","908699","6.278679","2.635933","0.059777","829838","867297","839696","4.496887","1.780540","0.064674","816795","846061","831568","3.828712","1.497787","0.069798","844510","856086","892144","3.014423","1.156952","0.079195","747690","881678","967536","1.795532","0.682731","0.000000","5247","7077","8400","4863","6068","6858","4677","5715","6383","4493","5362","5903","3839","4506","3839","DualSpot on"
"MA200-0420","52012","81","1","1.10","1.6","2023-08-18T15:30:01","120","2023/08/18","15:30:01","-15.795658349990845","35.002760166535154","0.1","13","300","64","97","-504","-27158","325","2","150","149.38","112.44","36.94","33.74","27.1","12.19","90156","34.06","DUALSPOT-UV-BLUE-GREEN-RED-IR","709005","669318","904604","7.293524","3.093345","0.053815","819907","860599","835884","5.246123","2.099466","0.062958","813500","845814","833598","4.472958","1.768469","0.070593","836506","850586","888250","3.531817","1.366534","0.078000","743118","877961","964680","2.113247","0.809079","0.000000","5301","7273","8726","4939","6401","7375","4756","6084","6952","4616","5692","6371","3947","4778","3947","DualSpot on"
"MA200-0420","52013","81","1","1.10","1.6","2023-08-18T15:35:01","120","2023/08/18","15:35:01","-15.795678853988647","35.00271649938077","0.2","13","300","64","97","-554","-27016","525","2","150","149.87","112.61","37.27","33.57","27.4","12.22","90148","33.94","DUALSPOT-UV-BLUE-GREEN-RED-IR","706174","670548","910679","8.360739","3.578046","0.047153","812681","856989","835236","6.055258","2.441758","0.052510","807367","842885","833157","5.176741","2.060437","0.057239","831497","848358","887993","4.097424","1.595968","0.065864","740856","877069","965066","2.457523","0.950588","0.000000","5566","7639","9189","5326","6808","7810","5188","6504","7373","5039","6176","6902","4270","5304","4270","DualSpot on"
"MA200-0420","52014","81","1","1.10","1.6","2023-08-18T15:40:01","120","2023/08/18","15:40:01","-15.795586943626404","35.00283166626468","0.2","13","300","64","97","-570","-26966","495","2","150","150.02","112.86","37.17","33.41","27.4","12.07","90160","33.63","DUALSPOT-UV-BLUE-GREEN-RED-IR","694646","663574","905856","9.482601","4.100982","0.044568","808160","856327","837684","6.903073","2.812677","0.051664","798579","837249","830177","5.912522","2.377861","0.057753","827973","847697","889493","4.693851","1.844127","0.064466","739384","877242","966760","2.828905","1.101797","0.000000","5838","8264","10112","5569","7398","8656","5412","7090","8219","5302","6698","7602","4597","5683","4597","DualSpot on"
"MA200-0420","52015","81","1","1.10","1.6","2023-08-18T15:45:01","120","2023/08/18","15:45:01","-15.795674324035645","35.002769666258246","0.1","14","300","64","97","-600","-26995","712","2","150","149.90","112.36","37.53","33.11","27.2","11.69","90160","33.25","DUALSPOT-UV-BLUE-GREEN-RED-IR","687265","660374","906201","10.582859","4.616001","0.039293","802085","853906","838436","7.745404","3.183693","0.045328","793071","834909","830517","6.647565","2.695685","0.049831","825455","848091","892109","5.290559","2.090510","0.053073","735070","873980","964626","3.194885","1.254351","0.090727","5751","8059","9845","5557","7328","8563","5431","7030","8121","5327","6585","7407","4549","5678","6407","DualSpot on"
"MA200-0420","52016","81","1","1.10","1.6","2023-08-18T15:50:01","120","2023/08/18","15:50:01","-15.795708656311035","35.00274149957113","0.1","14","300","64","97","-479","-26863","612","2","150","150.60","112.52","38.08","32.83","27.4","11.59","90164","32.94","DUALSPOT-UV-BLUE-GREEN-RED-IR","683308","660058","910277","11.612371","5.112652","0.037183","793716","848653","836268","8.537606","3.540307","0.042229","786319","831019","829179","7.340427","3.001523","0.046286","818400","843552","889454","5.853832","2.331404","0.052034","731889","871904","963715","3.533449","1.400247","0.088170","5374","7659","9457","5219","6941","8162","5112","6667","7743","5022","6346","7222","4203","5351","6105","DualSpot on"
"MA200-0420","52017","81","1","1.10","1.6","2023-08-18T15:55:01","120","2023/08/18","15:55:01","-15.79561460018158","35.00281699979678","0.1","15","300","64","97","-662","-26816","404","2","150","149.59","112.93","36.65","32.55","27.6","11.46","90172","32.69","DUALSPOT-UV-BLUE-GREEN-RED-IR","674277","654798","907599","12.652222","5.622905","0.037899","785596","843673","834379","9.342934","3.907412","0.043893","783665","831436","832214","8.046655","3.319131","0.049243","810856","838541","886362","6.430456","2.578525","0.054191","728677","869796","962864","3.885578","1.552996","0.092439","5408","8176","10390","5286","7424","8961","5191","7193","8599","5122","6763","7862","4355","5821","6797","DualSpot on"
"MA200-0420","52018","81","1","1.10","1.6","2023-08-18T16:00:01","120","2023/08/18","16:00:01","-15.795611798763275","35.00279766647145","0.1","15","300","64","97","-608","-27108","380","2","150","149.57","112.83","36.74","32.24","28.2","11.50","90172","32.31","DUALSPOT-UV-BLUE-GREEN-RED-IR","668168","652531","909408","13.755695","6.166244","0.034993","780337","841958","835965","10.203758","4.298937","0.039859","779486","830485","834090","8.803175","3.655655","0.043732","809708","840343","890601","7.050890","2.842326","0.048036","724338","866500","960805","4.269140","1.717780","0.081567","5744","8685","11075","5655","7899","9533","5566","7604","9051","5516","7203","8342","4748","6265","7285","DualSpot on"
"MA200-0420","52019","81","1","1.10","1.6","2023-08-18T16:05:01","120","2023/08/18","16:05:01","-15.795648634433746","35.00279666646384","0.0","16","300","64","97","-528","-27068","340","2","150","150.01","112.85","37.16","32.13","29.2","11.93","90172","32.44","DUALSPOT-UV-BLUE-GREEN-RED-IR","657519","645467","904287","14.799540","6.691910","0.033211","776056","841012","838110","11.011766","4.669261","0.036778","771324","824998","831227","9.512691","3.974075","0.040376","806281","839576","892055","7.634532","3.093829","0.044768","723701","867547","963503","4.635092","1.875144","0.073247","5432","8309","10684","5307","7388","8920","5219","7114","8474","5188","6790","7882","4529","5916","6858","DualSpot on"
"MA200-0420","52020","81","1","1.10","1.6","2023-08-18T16:10:01","120","2023/08/18","16:10:01","-15.795670688152313","35.00278799957596","0.1","16","300","64","98","-496","-27116","268","2","150","150.15","114.18","35.97","32.23","29.3","12.11","90164","33.00","DUALSPOT-UV-BLUE-GREEN-RED-IR","651490","642637","904955","15.796780","7.205013","0.034056","770127","837950","838108","11.776002","5.031371","0.039752","766225","822537","831301","10.183598","4.281777","0.043234","796004","831411","885525","8.186521","3.337576","0.049366","721362","866480","963800","4.992252","2.028170","0.075618","5130","8378","11103","4962","7463","9329","4878","7102","8715","4850","6798","8140","4369","5943","7019","DualSpot on"
"MA200-0420","52021","81","1","1.10","1.6","2023-08-18T16:15:01","120","2023/08/18","16:15:01","-15.795603334903717","35.00282383291051","0.1","15","300","64","97","-620","-26991","532","2","150","149.76","112.99","36.76","32.42","29.2","12.22","90176","33.50","DUALSPOT-UV-BLUE-GREEN-RED-IR","647193","641321","907504","16.738377","7.690326","0.031030","765886","836572","839545","12.499754","5.368568","0.034473","762384","821290","832376","10.818254","4.566130","0.036499","792941","830704","886753","8.711270","3.562726","0.040220","718729","865086","963584","5.334173","2.170048","0.059436","4894","7753","10184","4748","6799","8343","4663","6421","7705","4659","6144","7172","4227","5391","6189","DualSpot on"
"MA200-0420","52022","81","1","1.10","1.6","2023-08-18T16:20:01","120","2023/08/18","16:20:01","-15.795648515224457","35.00285166618414","0.2","15","300","64","97","-783","-26762","733","2","150","149.50","112.28","37.22","32.68","29.1","12.35","90176","33.75","DUALSPOT-UV-BLUE-GREEN-RED-IR","640288","637297","906207","17.667748","8.177177","0.029397","759379","832576","838373","13.214542","5.707961","0.032713","756586","817842","831299","11.448777","4.856613","0.035270","793807","834061","892413","9.233521","3.792529","0.038696","718537","866643","966694","5.683418","2.313286","0.050305","4861","7683","10115","4719","6760","8312","4662","6480","7819","4666","6195","7260","4345","5376","6084","DualSpot on"
"MA200-0420","52023","81","1","1.10","1.6","2023-08-18T16:25:01","120","2023/08/18","16:25:01","-15.795625746250153","35.00281016621739","0.0","15","300","64","97","-572","-27132","184","2","150","150.67","112.91","37.75","32.82","28.5","12.17","90176","33.44","DUALSPOT-UV-BLUE-GREEN-RED-IR","634390","634193","906209","18.596492","8.665859","0.027850","753839","829558","838189","13.925770","6.051040","0.031532","751859","815406","831272","12.072497","5.146788","0.033596","783601","825705","885505","9.751602","4.024562","0.037565","711714","860207","960910","6.036855","2.457715","0.045153","4831","7602","10021","4669","6736","8325","4586","6381","7715","4603","6166","7264","4372","5344","6011","DualSpot on"
"MA200-0420","52024","81","1","1.10","1.6","2023-08-18T16:30:01","120","2023/08/18","16:30:01","-15.795657813549042","35.002758499700576","0.1","15","300","64","97","-548","-26980","444","2","150","149.53","112.15","37.38","32.58","28.2","11.79","90184","32.81","DUALSPOT-UV-BLUE-GREEN-RED-IR","629768","632506","908587","19.583764","9.190674","0.026986","745039","823112","834848","14.697168","6.430005","0.031111","748563","814752","833278","12.755857","5.474521","0.034074","781887","826391","888548","10.317303","4.283943","0.037907","711442","861655","964110","6.409120","2.621223","0.054553","5170","8246","10965","5099","7515","9394","5058","7278","8947","5060","6961","8311","4636","6110","7129","DualSpot on"
"MA200-0420","52025","81","1","1.10","1.6","2023-08-18T16:35:01","120","2023/08/18","16:35:01","-15.795692384243011","35.0026818329934","0.1","14","300","64","97","-645","-27004","462","2","150","149.89","112.80","37.09","32.22","28.3","11.53","90200","32.31","DUALSPOT-UV-BLUE-GREEN-RED-IR","619588","625485","903839","20.691906","9.782246","0.026185","740274","821572","836940","15.588400","6.867007","0.029989","740189","809027","830612","13.554296","5.855429","0.032645","778480","825837","890688","10.989597","4.589718","0.036111","706955","858410","962353","6.856590","2.818298","0.053316","5770","9368","12593","5857","8734","10999","5876","8526","10541","5979","8271","9914","5541","7422","8735","DualSpot on"
"MA200-0420","52026","81","1","1.10","1.6","2023-08-18T16:40:01","120","2023/08/18","16:40:01","-15.795748591423035","35.002731499494985","0.0","14","300","64","97","-616","-26966","283","2","150","149.63","112.40","37.22","31.83","28.5","11.35","90196","31.81","DUALSPOT-UV-BLUE-GREEN-RED-IR","613860","622691","904897","21.739064","10.350235","0.025256","735606","819821","838683","16.428728","7.287147","0.029099","735482","806961","831517","14.304420","6.222131","0.031969","775523","825498","892934","11.620138","4.882025","0.035119","706364","859577","965507","7.266264","3.005746","0.054255","5472","8962","12133","5542","8367","10618","5540","8178","10209","5628","7878","9508","5091","7034","8405","DualSpot on"
"MA200-0420","52027","81","1","1.10","1.6","2023-08-18T16:45:01","120","2023/08/18","16:45:01","-15.795631051063538","35.002765166340396","0.1","14","300","64","97","-648","-27012","420","2","150","149.74","112.27","37.46","31.46","28.8","11.19","90184","31.31","DUALSPOT-UV-BLUE-GREEN-RED-IR","610587","622578","910258","22.863128","10.957932","0.023777","728124","815220","837764","17.338848","7.740634","0.027177","729209","803462","831164","15.119010","6.615089","0.029242","770247","822926","892974","12.308173","5.198601","0.032187","704239","859079","966944","7.716381","3.213805","0.051541","5880","9527","12884","6009","8973","11364","6023","8708","10797","6148","8478","10181","5600","7758","9298","DualSpot on"
"MA200-0420","52028","81","1","1.10","1.6","2023-08-18T16:50:01","120","2023/08/18","16:50:01","-15.795637726783752","35.00277249957435","0.2","14","300","64","98","-576","-27019","152","2","150","150.08","112.48","37.60","30.99","29.2","10.99","90172","30.88","DUALSPOT-UV-BLUE-GREEN-RED-IR","604535","619355","911030","23.908508","11.542347","0.023643","723191","812972","839094","18.167294","8.167063","0.027258","724212","800921","831704","15.855851","6.986449","0.030011","760040","814643","886599","12.923406","5.492388","0.033047","699269","854820","964003","8.115730","3.405343","0.052782","5458","9130","12556","5460","8408","10816","5438","8200","10376","5487","7839","9578","4959","7116","8676","DualSpot on"
"MA200-0420","52029","81","1","1.10","1.6","2023-08-18T16:55:01","120","2023/08/18","16:55:01","-15.795589327812195","35.00276616611518","0.2","14","300","64","98","-592","-26836","236","2","150","149.75","112.59","37.16","30.60","29.6","10.83","90188","30.50","DUALSPOT-UV-BLUE-GREEN-RED-IR","592755","610753","905261","25.279332","12.326664","0.023287","717002","809812","840096","19.162694","8.686590","0.026889","719998","799582","833867","16.717146","7.423506","0.029399","757335","814729","889665","13.627708","5.830321","0.032448","695067","851562","962332","8.552288","3.618046","0.052861","7151","12395","17386","6554","10363","13521","6351","9763","12489","6276","9122","11251","5416","7995","9886","DualSpot on"
"MA200-0420","52030","81","1","1.10","1.6","2023-08-18T17:00:01","120","2023/08/18","17:00:01","-15.795557975769043","35.00277316616848","0.1","14","300","64","97","-656","-27044","272","2","150","149.76","112.12","37.63","30.25","29.9","10.72","90184","30.13","DUALSPOT-UV-BLUE-GREEN-RED-IR","589321","609193","907089","26.060750","12.781872","0.022671","708931","803086","835961","19.799146","9.025355","0.026187","713420","794422","830942","17.287058","7.718319","0.028601","751011","809866","886424","14.106287","6.064462","0.031570","696240","854285","966848","8.853798","3.766788","0.050812","4093","7104","10003","4208","6673","8738","4219","6504","8346","4282","6242","7720","3756","5521","6828","DualSpot on"
"MA200-0420","52031","81","1","1.10","1.6","2023-08-18T17:05:01","120","2023/08/18","17:05:01","-15.795603513717651","35.00278199953027","0.1","14","300","64","97","-620","-27020","458","2","150","150.67","113.08","37.59","29.93","30.4","10.67","90188","29.88","DUALSPOT-UV-BLUE-GREEN-RED-IR","582464","604449","904782","26.979802","13.311802","0.021934","707055","803839","840121","20.558468","9.425575","0.025268","707611","790634","829866","17.970958","8.068065","0.027496","750240","811485","890708","14.687193","6.346308","0.030448","693260","852346","966449","9.237827","3.951404","0.047415","4773","8279","11693","4977","7892","10359","5021","7723","9925","5153","7521","9323","4744","6860","8441","DualSpot on"
"MA200-0420","52032","81","1","1.10","1.6","2023-08-18T17:10:01","120","2023/08/18","17:10:01","-15.795634090900421","35.002713499823585","0.1","14","300","64","97","-604","-27103","440","2","150","149.76","112.36","37.39","29.66","30.7","10.58","90184","29.56","DUALSPOT-UV-BLUE-GREEN-RED-IR","579390","603431","907866","27.854306","13.823860","0.021584","699305","797691","836858","21.276288","9.807429","0.024727","705598","790818","832844","18.616476","8.401778","0.026972","743755","806690","887820","15.236872","6.615189","0.029772","690047","849983","965453","9.603226","4.126078","0.045137","4571","8042","11463","4735","7570","9993","4769","7409","9579","4908","7213","8983","4542","6525","8018","DualSpot on"
"MA200-0420","52033","81","1","1.10","1.6","2023-08-18T17:15:01","120","2023/08/18","17:15:01","-15.79561161994934","35.00273449975066","0.1","14","300","64","97","-556","-27056","500","2","150","149.34","112.52","36.82","29.42","30.9","10.49","90180","29.31","DUALSPOT-UV-BLUE-GREEN-RED-IR","575724","601611","909726","28.686012","14.325775","0.021884","695945","796313","838569","21.960528","10.185714","0.025618","698229","784800","829218","19.230962","8.729957","0.027900","741391","806207","889649","15.757442","6.878584","0.031240","689266","850498","967697","9.947815","4.298134","0.048333","4341","8006","11663","4507","7616","10305","4533","7400","9782","4641","7177","9141","4278","6527","8239","DualSpot on"
"MA200-0420","52034","81","1","1.10","1.6","2023-08-18T17:20:01","120","2023/08/18","17:20:01","-15.79561161994934","35.00274183298461","0.1","14","300","64","97","-529","-27033","579","2","150","150.35","112.73","37.62","29.16","31.2","10.37","90196","29.06","DUALSPOT-UV-BLUE-GREEN-RED-IR","569725","597433","908304","29.576946","14.863735","0.020939","690162","792318","837754","22.696432","10.591030","0.024207","697248","786172","833611","19.896524","9.086931","0.026525","736648","803309","889013","16.326080","7.166695","0.029410","683017","844409","962583","10.327785","4.487305","0.045038","4642","8398","12194","4839","7986","10740","4901","7877","10379","5060","7683","9735","4708","7024","8803","DualSpot on"
"MA200-0420","52035","81","1","1.10","1.6","2023-08-18T17:25:01","120","2023/08/18","17:25:01","-15.795615255832672","35.00282216607593","0.2","14","300","64","97","-575","-26883","400","2","150","149.53","112.73","36.80","28.93","31.4","10.30","90188","28.88","DUALSPOT-UV-BLUE-GREEN-RED-IR","563352","592924","906479","30.501824","15.422359","0.020730","683056","786862","835520","23.459268","11.011271","0.024057","691519","782237","832529","20.588210","9.454484","0.026092","730919","799420","887333","16.916854","7.465906","0.029362","680243","842699","962591","10.731476","4.687442","0.044670","4818","8915","13105","5016","8465","11515","5094","8291","11006","5257","8156","10446","5002","7596","9608","DualSpot on"
"MA200-0420","52036","81","1","1.10","1.6","2023-08-18T17:30:01","120","2023/08/18","17:30:01","-15.79557329416275","35.00278633297421","0.1","14","300","64","97","-728","-26888","384","2","150","149.94","112.56","37.38","28.72","31.5","10.14","90180","28.56","DUALSPOT-UV-BLUE-GREEN-RED-IR","559169","590800","908549","31.476474","16.008179","0.019774","679596","785722","838006","24.270126","11.454782","0.022691","688126","781094","834538","21.325150","9.844482","0.024594","727705","798414","889034","17.553228","7.782497","0.026907","679214","843326","965361","11.173870","4.901242","0.040085","5085","9205","13469","5340","8796","11885","5435","8662","11429","5671","8497","10748","5490","7990","9944","DualSpot on"
"MA200-0420","52037","81","1","1.10","1.6","2023-08-18T17:35:01","120","2023/08/18","17:35:01","-15.795581936836243","35.00278399977833","0.1","14","300","64","97","-541","-26958","625","2","150","150.69","112.90","37.80","28.49","31.5","9.95","90176","28.38","DUALSPOT-UV-BLUE-GREEN-RED-IR","554792","587876","908409","32.246010","16.489632","0.019848","675098","782631","837718","24.900232","11.812782","0.022896","684589","779035","834938","21.892298","10.155921","0.024860","724983","797261","889980","18.037600","8.034938","0.027773","678117","843344","966949","11.502060","5.066761","0.041305","4003","7481","11121","4137","7021","9624","4170","6840","9151","4304","6700","8625","4060","6117","7736","DualSpot on"
"MA200-0420","52038","81","1","1.10","1.6","2023-08-18T17:40:01","120","2023/08/18","17:40:01","-15.795600175857544","35.00280233263038","0.0","14","300","64","97","-560","-26919","479","2","150","150.08","112.64","37.44","28.28","31.2","9.61","90164","28.13","DUALSPOT-UV-BLUE-GREEN-RED-IR","550715","585207","908514","32.995190","16.954682","0.019421","671236","780189","837955","25.502168","12.155499","0.022610","681326","777232","835484","22.434874","10.454197","0.024533","722212","795979","890717","18.500376","8.275103","0.027231","673315","838672","963118","11.814659","5.223274","0.040262","3906","7294","10876","3961","6785","9356","3999","6613","8894","4121","6435","8306","3876","5839","7394","DualSpot on"
"MA200-0420","52039","81","1","1.10","1.6","2023-08-18T17:45:01","120","2023/08/18","17:45:01","-15.79572880268097","35.00264283292927","0.1","14","300","64","98","-644","-26896","68","2","150","149.89","112.84","37.05","28.11","30.2","8.98","90164","28.00","DUALSPOT-UV-BLUE-GREEN-RED-IR","547366","583220","909646","33.734164","17.420830","0.019438","668348","778768","839220","26.084698","12.491405","0.022695","675023","771792","832066","22.955830","10.744677","0.024723","720531","795806","892554","18.941288","8.506663","0.027510","672936","839406","965412","12.110847","5.372191","0.040327","3846","7389","11173","3827","6720","9380","3833","6509","8863","3920","6270","8185","3666","5614","7167","DualSpot on"
"MA200-0420","52040","81","1","1.10","1.6","2023-08-18T17:50:01","120","2023/08/18","17:50:01","-15.795615136623383","35.00274433288723","0.1","14","300","64","98","-512","-27008","332","2","150","151.58","113.31","38.27","27.95","29.4","8.48","90168","27.81","DUALSPOT-UV-BLUE-GREEN-RED-IR","539654","576584","903272","34.450892","17.865772","0.018436","664961","776782","839778","26.655914","12.813428","0.021122","671874","770023","832489","23.468918","11.023053","0.022730","712405","788510","886333","19.375362","8.727801","0.024801","671786","839244","966610","12.401718","5.516673","0.036996","3715","6828","10182","3737","6237","8552","3759","6039","8058","3843","5797","7398","3586","5273","6626","DualSpot on"
"MA200-0420","52041","81","1","1.10","1.6","2023-08-18T17:55:01","120","2023/08/18","17:55:01","-15.795593321323395","35.0027618331369","0.0","14","300","64","98","-600","-26868","140","2","150","149.44","112.72","36.72","27.80","29.0","8.15","90184","27.69","DUALSPOT-UV-BLUE-GREEN-RED-IR","538253","576636","907501","35.174240","18.317002","0.018656","659310","772106","837514","27.240972","13.144068","0.021539","667172","766454","830994","23.994540","11.310139","0.023396","713017","790903","891104","19.823720","8.958679","0.025950","669009","837077","965539","12.707363","5.666508","0.037516","3769","7217","10964","3847","6675","9311","3871","6490","8826","3990","6308","8218","3788","5700","7239","DualSpot on"
"MA200-0420","52042","81","1","1.10","1.6","2023-08-18T18:00:01","120","2023/08/18","18:00:01","-15.795635759830475","35.002755999565125","0.1","15","300","64","98","-525","-26954","254","2","150","150.49","113.14","37.34","27.63","28.7","7.85","90184","27.50","DUALSPOT-UV-BLUE-GREEN-RED-IR","534620","574498","908711","35.983740","18.825824","0.018197","655950","770369","838835","27.911870","13.528697","0.021084","663635","764476","831622","24.602512","11.645866","0.022803","710667","790284","892859","20.347656","9.232800","0.025418","667788","837074","967323","13.073490","5.849622","0.036910","4202","8002","12172","4395","7635","10682","4461","7463","10162","4645","7364","9622","4520","6849","8736","DualSpot on"
"MA200-0420","52043","81","1","1.10","1.6","2023-08-18T18:05:01","120","2023/08/18","18:05:01","-15.795607924461365","35.00274433288723","0.2","15","300","64","98","-600","-26896","107","2","150","150.02","112.68","37.34","27.45","28.6","7.65","90192","27.38","DUALSPOT-UV-BLUE-GREEN-RED-IR","531351","572678","910553","36.796484","19.342602","0.017923","652523","768578","840236","28.597738","13.925104","0.020697","660378","762820","832758","25.227670","11.996752","0.022574","702812","783576","887801","20.890690","9.519748","0.024991","663052","832718","964148","13.456390","6.044572","0.036665","4236","8129","12442","4512","7870","11056","4606","7801","10699","4835","7710","10116","4747","7293","9370","DualSpot on"
"MA200-0420","52044","81","1","1.10","1.6","2023-08-18T18:10:01","120","2023/08/18","18:10:01","-15.79570084810257","35.00268416618928","0.1","15","300","64","97","-562","-27104","416","2","150","149.69","112.44","37.25","27.32","28.7","7.57","90184","27.25","DUALSPOT-UV-BLUE-GREEN-RED-IR","523954","566551","905957","37.697316","19.917316","0.017574","644802","761867","836496","29.344224","14.359140","0.020329","657637","761929","834960","25.907172","12.377817","0.022009","701046","783718","890757","21.477362","9.831797","0.024564","662766","834091","967801","13.877071","6.256743","0.035131","4705","9062","13941","4921","8637","12198","5017","8493","11673","5234","8404","11080","5226","7956","10198","DualSpot on"
"MA200-0420","52045","81","1","1.10","1.6","2023-08-18T18:15:01","120","2023/08/18","18:15:01","-15.795609831809998","35.00278166634962","0.1","14","300","64","97","-545","-26933","687","2","150","149.69","112.52","37.17","27.19","28.7","7.47","90192","27.06","DUALSPOT-UV-BLUE-GREEN-RED-IR","518243","562542","905847","38.773000","20.610908","0.017285","639398","758325","837140","30.254962","14.896297","0.020076","648747","754323","830595","26.741420","12.852997","0.021777","696575","781362","891591","22.206792","10.225621","0.024334","655998","827715","963087","14.411068","6.531211","0.034981","5615","10959","17024","6000","10712","15283","6155","10613","14738","6503","10629","14150","6629","10314","13369","DualSpot on"
"MA200-0420","52046","81","1","1.10","1.6","2023-08-18T18:20:01","120","2023/08/18","18:20:01","-15.795579671859741","35.00277949962765","0.1","14","300","64","97","-516","-26819","140","2","150","149.76","112.87","36.88","27.04","28.8","7.38","90200","26.94","DUALSPOT-UV-BLUE-GREEN-RED-IR","509895","556826","907904","40.616416","21.853340","0.017161","631785","753367","838202","31.579076","15.679007","0.019520","642889","751368","832812","27.910168","13.513020","0.020974","686088","773207","886958","23.202792","10.752672","0.023095","653120","827062","965691","15.122280","6.881690","0.031910","9592","19786","31659","8696","15732","22671","8596","14857","20734","8852","14337","19073","8802","13275","17010","DualSpot on"
"MA200-0420","52047","81","1","1.10","1.6","2023-08-18T18:25:01","120","2023/08/18","18:25:01","-15.795607328414917","35.00278166634962","0.2","14","300","64","97","-580","-26800","208","2","150","149.95","112.72","37.23","26.91","29.0","7.36","90204","26.81","DUALSPOT-UV-BLUE-GREEN-RED-IR","500973","549801","906455","42.233808","22.968758","0.016682","623745","747181","836940","32.711368","16.352869","0.018826","635882","746378","831977","28.905864","14.076873","0.020134","679431","768781","885857","24.053472","11.202135","0.021982","648854","824242","965265","15.734299","7.180254","0.029695","8428","17595","28524","7447","13416","19383","7333","12572","17545","7571","12110","16067","7585","11201","14237","DualSpot on"
"MA200-0420","52048","81","1","1.10","1.6","2023-08-18T18:30:01","120","2023/08/18","18:30:01","-15.795592844486237","35.00273649930023","0.0","13","300","64","98","-656","-26652","244","2","150","149.84","112.55","37.28","26.78","29.1","7.32","90212","26.69","DUALSPOT-UV-BLUE-GREEN-RED-IR","492214","543434","909196","44.280468","24.420914","0.016215","617157","743127","839114","34.029676","17.151534","0.018386","630279","743412","834098","30.043182","14.728798","0.019605","675075","767271","888612","25.009262","11.711607","0.021351","642515","818994","962385","16.417881","7.517774","0.028937","10680","22878","37877","8682","15881","23195","8389","14517","20412","8519","13710","18281","8484","12647","16163","DualSpot on"
"MA200-0420","52049","81","1","1.10","1.6","2023-08-18T18:35:01","120","2023/08/18","18:35:01","-15.795656979084015","35.00274133286439","0.1","14","300","64","98","-604","-27052","456","2","150","149.77","112.67","37.11","26.63","29.2","7.24","90212","26.50","DUALSPOT-UV-BLUE-GREEN-RED-IR","482077","535011","908448","46.288684","25.908272","0.015972","609310","737185","838810","35.277452","17.923542","0.018172","623818","739062","834309","31.098958","15.340641","0.019289","669358","763932","888964","25.892704","12.184299","0.020903","639020","817169","963206","17.049392","7.826454","0.027702","10469","23543","40164","8210","15423","22874","7779","13689","19442","7866","12780","17148","7830","11621","14838","DualSpot on"
"MA200-0420","52050","81","1","1.10","1.6","2023-08-18T18:40:01","120","2023/08/18","18:40:01","-15.79575115442276","35.00263399980031","0.2","14","300","64","97","-779","-26716","150","2","150","150.21","112.78","37.43","26.50","29.4","7.19","90204","26.38","DUALSPOT-UV-BLUE-GREEN-RED-IR","473540","527647","907251","47.948632","27.163574","0.015575","601126","730397","837324","36.456708","18.671360","0.017862","616990","734001","833776","32.139832","15.965078","0.019170","662296","758869","887443","26.791208","12.682431","0.020906","634541","814099","962828","17.714100","8.163530","0.027931","8645","19699","34145","7751","14811","22223","7662","13851","19959","7992","13352","18170","8233","12580","16296","DualSpot on"
"MA200-0420","52051","81","1","1.10","1.6","2023-08-18T18:45:01","120","2023/08/18","18:45:01","-15.79572582244873","35.00270783272572","0.1","13","300","64","98","-687","-26904","408","2","150","150.21","112.28","37.93","26.37","29.5","7.13","90204","26.25","DUALSPOT-UV-BLUE-GREEN-RED-IR","464193","519151","904222","49.598932","28.446170","0.015183","596890","728142","840905","37.581200","19.401264","0.017449","609490","727866","831711","33.113266","16.555922","0.018555","659804","758774","891419","27.610394","13.139717","0.020085","632989","814559","966250","18.307720","8.460423","0.025774","8632","19861","34962","7424","14265","21567","7197","12932","18667","7319","12095","16432","7385","10934","13983","DualSpot on"
"MA200-0420","52052","81","1","1.10","1.6","2023-08-18T18:50:01","120","2023/08/18","18:50:01","-15.795626044273376","35.00276316632517","0.1","13","300","64","98","-648","-26996","448","2","150","149.63","112.28","37.34","26.26","29.6","7.09","90204","26.19","DUALSPOT-UV-BLUE-GREEN-RED-IR","458450","514451","907618","51.224036","29.737792","0.014996","587965","720098","838015","38.742136","20.169394","0.017387","605254","725594","834440","34.133552","17.191350","0.018674","651175","751650","887534","28.487154","13.644291","0.020488","627061","809442","963405","18.952252","8.796202","0.027113","8501","20315","36666","7664","15248","23484","7544","14127","20806","7834","13556","18815","8018","12560","16494","DualSpot on"
"MA200-0420","52053","81","1","1.10","1.6","2023-08-18T18:55:01","120","2023/08/18","18:55:01","-15.795634508132935","35.00268716621213","0.3","13","300","68","98","-540","-27088","-72","3","150","149.89","113.59","36.30","26.16","29.9","7.17","90200","26.06","DUALSPOT-UV-BLUE-GREEN-RED-IR","760225","689257","909501","0.000000","0.000000","0.000000","857280","871421","835635","0.000000","0.000000","0.000000","844302","852648","832517","0.000000","0.000000","0.000000","866848","860181","892725","0.000000","0.000000","0.000000","758404","878818","964070","0.000000","0.000000","0.000000","","","","","","","","","","","","","","","","Tape advance-DualSpot on"
"MA200-0420","52054","81","1","1.10","1.6","2023-08-18T19:00:01","120","2023/08/18","19:00:01","-15.795664846897125","35.002796333050355","0.1","13","300","68","98","-548","-26891","156","3","150","149.89","113.59","36.30","26.02","30.1","7.12","90204","25.94","DUALSPOT-UV-BLUE-GREEN-RED-IR","723553","674493","905581","0.000000","0.000000","0.000000","838044","865851","837962","0.000000","0.000000","0.000000","829290","848763","834842","0.000000","0.000000","0.000000","849405","851725","888909","0.000000","0.000000","0.000000","753311","878715","967192","0.000000","0.000000","0.000000","","","","","","","","","","","","","","","","Tape advance-DualSpot on"
"MA200-0420","52055","81","1","1.10","1.6","2023-08-18T19:05:01","120","2023/08/18","19:05:01","-15.79567152261734","35.002698332769796","0.1","13","300","64","97","-536","-26940","308","3","150","149.32","113.31","36.01","25.95","30.2","7.13","90212","25.81","DUALSPOT-UV-BLUE-GREEN-RED-IR","701358","666575","906665","3.242122","1.302570","0.094514","821260","860056","839002","2.147964","0.796771","0.000000","810714","839470","831220","1.830919","0.665348","0.000000","838708","849040","890739","1.472024","0.519767","0.000000","742899","872104","963035","0.959730","0.325728","0.000000","16806","21248","24231","14053","16404","14053","13415","15341","13415","13033","14482","13033","11832","12637","11832","DualSpot on"
"MA200-0420","52056","81","1","1.10","1.6","2023-08-18T19:10:01","120","2023/08/18","19:10:01","-15.795689940452576","35.00269016623497","0.1","13","300","64","97","-524","-27256","612","3","150","149.94","113.31","36.63","25.82","30.4","7.10","90220","25.75","DUALSPOT-UV-BLUE-GREEN-RED-IR","671913","654209","905578","7.387947","3.047199","0.045915","797411","849609","837874","4.947692","1.879173","0.048502","790936","831405","830733","4.228146","1.568067","0.049084","822213","842698","890365","3.408852","1.225115","0.048354","733867","868712","963549","2.231866","0.767731","0.000000","21490","27972","32523","18317","21904","24100","17564","20458","22164","17149","19317","20533","15683","16855","15683","DualSpot on"
"MA200-0420","52057","81","1","1.10","1.6","2023-08-18T19:15:01","120","2023/08/18","19:15:01","-15.79566216468811","35.00269866618328","0.1","13","300","64","98","-356","-27275","1288","3","150","149.69","113.15","36.54","25.74","30.5","7.07","90220","25.69","DUALSPOT-UV-BLUE-GREEN-RED-IR","649981","646065","909391","11.134068","4.719906","0.035850","773465","837261","834735","7.621699","2.964508","0.038833","775119","826319","833241","6.554805","2.482769","0.039551","802944","832823","886340","5.329341","1.951416","0.039888","722273","862124","960682","3.524810","1.226853","0.037605","19445","26888","32364","17519","22019","24884","17071","20783","23046","17028","19942","21625","15962","17552","18401","DualSpot on"
"MA200-0420","52058","81","1","1.10","1.6","2023-08-18T19:20:01","120","2023/08/18","19:20:01","-15.795769929885864","35.00269166636281","0.5","13","300","64","98","-668","-26791","256","3","150","150.02","113.31","36.71","25.66","30.6","7.06","90220","25.63","DUALSPOT-UV-BLUE-GREEN-RED-IR","626976","635103","908937","14.698147","6.383873","0.029802","759543","834493","841034","10.194258","4.049300","0.032702","757655","818604","833122","8.821399","3.406899","0.033581","793549","832646","892765","7.229099","2.693688","0.034180","716602","862578","965858","4.853031","1.714675","0.035268","18475","26621","32876","16831","21904","25248","16607","20898","23598","16821","20284","22341","16375","18561","19756","DualSpot on"
"MA200-0420","52059","81","1","1.10","1.6","2023-08-18T19:25:01","120","2023/08/18","19:25:01","-15.795683860778809","35.00277116615325","0.1","13","300","64","98","-584","-26872","320","3","150","149.76","113.15","36.60","25.60","30.7","7.05","90224","25.56","DUALSPOT-UV-BLUE-GREEN-RED-IR","604371","622798","906085","18.057168","8.026748","0.026558","739047","823488","839219","12.716752","5.163361","0.029941","739023","808871","831190","11.079667","4.371536","0.031235","776563","824127","890659","9.156532","3.482618","0.032737","705760","856853","964568","6.240600","2.246424","0.035871","17436","26361","33503","16526","22562","26688","16569","21878","25338","17089","21623","24405","17130","20293","22071","DualSpot on"
"MA200-0420","52060","81","1","1.10","1.6","2023-08-18T19:30:01","120","2023/08/18","19:30:01","-15.795631170272827","35.002765332814306","0.1","13","300","64","98","-668","-27047","520","3","150","150.21","113.39","36.82","25.53","30.8","7.04","90232","25.50","DUALSPOT-UV-BLUE-GREEN-RED-IR","583835","612713","908843","21.802594","9.956490","0.023811","713753","807861","834730","15.646998","6.532280","0.027451","721908","801680","833742","13.717466","5.562491","0.028893","756131","812857","887075","11.412407","4.454530","0.030572","692215","848721","961660","7.870815","2.894006","0.033152","19400","30781","40345","19157","27559","33580","19313","26851","31993","19959","26480","30655","20083","24567","27174","DualSpot on"
"MA200-0420","52061","81","1","1.10","1.6","2023-08-18T19:35:01","120","2023/08/18","19:35:01","-15.795671820640564","35.00270999968052","0.1","12","300","64","98","-679","-27070","108","3","150","149.44","113.26","36.18","25.42","30.9","6.98","90232","25.31","DUALSPOT-UV-BLUE-GREEN-RED-IR","560433","598769","907363","25.736186","12.096260","0.022155","695267","799719","839488","18.841144","8.113309","0.026070","700431","789665","832653","16.604181","6.938771","0.027606","742631","809269","893148","13.892927","5.579988","0.029707","679825","842354","961604","9.669846","3.638833","0.033298","20399","34741","47460","20906","32398","41089","21160","31584","39068","21972","31212","37414","22189","28761","32726","DualSpot on"
"MA200-0420","52062","81","1","1.10","1.6","2023-08-18T19:40:01","120","2023/08/18","19:40:01","-15.795644044876099","35.00279583316296","0.2","12","300","64","98","-704","-26820","708","3","150","149.41","114.52","34.89","25.34","31.0","6.97","90232","25.25","DUALSPOT-UV-BLUE-GREEN-RED-IR","540929","586375","905748","29.123474","14.017895","0.021438","675365","787089","837683","21.548744","9.495795","0.025393","682856","779448","831786","19.056880","8.143752","0.027120","725246","799233","890815","16.014101","6.568151","0.029526","672436","840678","966062","11.236286","4.306278","0.034934","17373","32349","46247","17527","29374","38707","17781","28673","36800","18583","28414","35250","19108","26723","31455","DualSpot on"
"MA200-0420","52063","81","1","1.10","1.6","2023-08-18T19:45:01","120","2023/08/18","19:45:01","-15.795717477798462","35.00273733283393","0.0","12","300","64","98","-829","-27475","1033","3","150","149.90","115.16","34.74","25.30","31.1","6.97","90232","25.25","DUALSPOT-UV-BLUE-GREEN-RED-IR","525015","575834","904034","31.916104","15.639339","0.020196","659959","777403","837001","23.767766","10.651486","0.023912","671846","774695","835119","21.083158","9.156127","0.025474","710772","790654","888696","17.791364","7.410599","0.027810","662236","834370","964414","12.592220","4.890735","0.032737","14243","27416","40073","14284","24663","33091","14608","24195","31556","15483","24331","30647","16448","23503","27984","DualSpot on"
"MA200-0420","52064","81","1","1.10","1.6","2023-08-18T19:50:01","120","2023/08/18","19:50:01","-15.795643031597137","35.0027881662827","0.4","13","300","64","97","-564","-26896","164","3","150","149.74","115.67","34.07","25.24","31.2","7.01","90240","25.19","DUALSPOT-UV-BLUE-GREEN-RED-IR","509979","567316","908689","35.339180","17.646668","0.018799","643992","769086","840941","26.690592","12.198997","0.022291","652821","762908","833941","23.817362","10.551084","0.023844","692204","779881","887156","20.264222","8.609508","0.026106","648241","825804","962950","14.576817","5.770982","0.031263","17382","34605","51784","18732","33672","46248","19625","33992","45419","21449","35304","45540","23968","36092","44037","DualSpot on"
"MA200-0420","52065","81","1","1.10","1.6","2023-08-18T19:55:01","120","2023/08/18","19:55:01","-15.795586168766022","35.002809832803905","0.1","14","300","64","98","-640","-26891","-72","3","150","150.08","115.58","34.49","25.18","31.4","7.03","90248","25.13","DUALSPOT-UV-BLUE-GREEN-RED-IR","497493","558332","907176","37.657908","19.080842","0.018189","630887","759724","839291","28.558770","13.231102","0.021475","640894","755025","832844","25.538032","11.461823","0.022866","685921","778694","892593","21.793264","9.375183","0.024931","640157","820794","962317","15.771809","6.311611","0.029320","11782","24421","37401","11982","22181","30986","12359","21920","29705","13272","22270","29063","14442","21894","26866","DualSpot on"
"MA200-0420","52066","81","1","1.10","1.6","2023-08-18T20:00:01","120","2023/08/18","20:00:01","-15.795708537101746","35.002662333194166","0.0","14","300","64","98","-588","-26872","292","3","150","149.47","115.50","33.97","25.10","31.6","7.04","90256","25.06","DUALSPOT-UV-BLUE-GREEN-RED-IR","486326","549789","904310","39.618388","20.310626","0.017649","619085","750711","836949","30.173302","14.146506","0.021077","630655","747985","831813","27.025658","12.273828","0.022595","675704","771929","890856","23.107380","10.054068","0.024778","636813","820922","967116","16.790844","6.793430","0.030084","9969","21265","33147","10362","19978","28466","10693","19847","27463","11414","20051","26704","12324","19815","24905","DualSpot on"
"MA200-0420","52067","81","1","1.10","1.6","2023-08-18T20:05:01","120","2023/08/18","20:05:01","-15.795614004135132","35.002783166011795","0.1","14","300","64","97","-568","-26940","304","3","150","150.08","115.76","34.32","25.07","31.7","7.07","90260","25.00","DUALSPOT-UV-BLUE-GREEN-RED-IR","478327","543965","904223","41.273748","21.369210","0.017099","610745","744815","836820","31.517096","14.919495","0.020336","622465","742314","831142","28.254088","12.952348","0.021744","667247","766245","889285","24.187088","10.617512","0.023785","630749","816628","965745","17.610020","7.178360","0.028209","8399","18114","28544","8605","16695","23966","8810","16412","22846","9357","16469","22033","9885","15666","19644","DualSpot on"
"MA200-0420","52068","81","1","1.10","1.6","2023-08-18T20:10:01","120","2023/08/18","20:10:01","-15.795619547367096","35.002751666354015","0.2","14","300","64","97","-600","-27019","232","3","150","149.90","115.50","34.40","25.03","31.9","7.11","90264","25.00","DUALSPOT-UV-BLUE-GREEN-RED-IR","472851","540932","909141","42.963288","22.467346","0.016585","606300","743710","842428","32.910222","15.735207","0.019728","613731","736005","829965","29.524212","13.666762","0.021111","659056","760766","888109","25.290254","11.202171","0.023062","625105","812803","965011","18.434010","7.573351","0.027586","8591","18751","29888","8941","17580","25494","9129","17243","24236","9582","17052","22992","9966","16041","20277","DualSpot on"
"MA200-0420","52069","81","1","1.10","1.6","2023-08-18T20:15:01","120","2023/08/18","20:15:01","-15.795618236064911","35.00270383292809","0.3","14","300","64","98","-712","-26819","192","3","150","150.15","115.76","34.39","24.98","32.0","7.14","90272","24.94","DUALSPOT-UV-BLUE-GREEN-RED-IR","463564","533226","905707","44.569368","23.527970","0.016188","595459","734305","838273","34.224848","16.516293","0.019255","608382","733344","832587","30.721082","14.345781","0.020525","654945","759687","891775","26.330472","11.758934","0.022468","618662","807653","962455","19.206296","7.945804","0.026831","8149","18115","29258","8419","16837","24689","8584","16393","23234","9015","16243","22075","9319","15129","19229","DualSpot on"
"MA200-0420","52070","81","1","1.10","1.6","2023-08-18T20:20:01","120","2023/08/18","20:20:01","-15.795619368553162","35.00271249958314","0.2","14","300","64","97","-700","-26668","168","3","150","150.02","115.64","34.38","24.92","32.1","7.14","90276","24.88","DUALSPOT-UV-BLUE-GREEN-RED-IR","457128","528256","905779","45.980704","24.469882","0.015808","588499","729089","838199","35.394940","17.219398","0.018800","602204","729213","833013","31.793056","14.963702","0.020114","649409","756447","892516","27.264340","12.266554","0.022042","614971","805713","963479","19.907062","8.287542","0.026280","7168","16093","26245","7501","15162","22420","7696","14923","21348","8102","14814","20304","8465","13886","17753","DualSpot on"
"MA200-0420","52071","81","1","1.10","1.6","2023-08-18T20:25:01","120","2023/08/18","20:25:01","-15.795637369155884","35.0027778330259","0.3","13","300","64","98","-724","-26924","748","3","150","150.42","115.42","35.00","24.86","32.3","7.19","90272","24.81","DUALSPOT-UV-BLUE-GREEN-RED-IR","451171","523359","904636","47.174592","25.281032","0.015426","582155","724030","837453","36.394652","17.830622","0.018294","595984","724407","831986","32.710488","15.501118","0.019538","642537","751139","890167","28.069268","12.711851","0.021413","610417","802150","962063","20.510898","8.589441","0.025715","6075","13612","22315","6421","12946","19213","6599","12747","18286","6996","12764","17538","7308","12049","15465","DualSpot on"
"MA200-0420","52072","81","1","1.10","1.6","2023-08-18T20:30:01","120","2023/08/18","20:30:01","-15.795651078224182","35.00275766616687","0.1","13","300","64","98","-524","-26903","-196","3","150","150.67","115.28","35.38","24.80","32.6","7.25","90276","24.75","DUALSPOT-UV-BLUE-GREEN-RED-IR","448824","522276","909188","48.194632","25.988586","0.015193","576276","719123","836284","37.269268","18.372028","0.017904","590125","719651","830493","33.518204","15.981087","0.019137","636872","746887","888628","28.778744","13.106762","0.020815","610336","804150","967063","21.044186","8.858801","0.025051","5197","11745","19408","5624","11343","16902","5816","11261","16223","6174","11197","15398","6462","10634","13667","DualSpot on"
"MA200-0420","52073","81","1","1.10","1.6","2023-08-18T20:35:01","120","2023/08/18","20:35:01","-15.795636057853699","35.002762999618426","0.3","13","300","64","98","-608","-26970","929","3","150","149.62","115.28","34.34","24.75","32.7","7.27","90284","24.69","DUALSPOT-UV-BLUE-GREEN-RED-IR","443666","517769","907335","49.148352","26.655068","0.015183","574043","718486","839832","38.077368","18.880414","0.018068","588482","719773","834342","34.260380","16.426857","0.019300","636453","748510","893850","29.430794","13.474722","0.021152","606371","800894","965578","21.536422","9.109791","0.025640","4859","11398","19147","5196","10973","16655","5345","10776","15778","5674","10749","15034","5965","10209","13320","DualSpot on"
"MA200-0420","52074","81","1","1.10","1.6","2023-08-18T20:40:01","120","2023/08/18","20:40:01","-15.795612752437592","35.00274899951182","0.2","13","300","64","98","-608","-27047","364","3","150","150.21","115.24","34.97","24.72","32.9","7.32","90288","24.69","DUALSPOT-UV-BLUE-GREEN-RED-IR","438267","513151","906117","50.236220","27.415104","0.014757","568098","713452","838638","38.979648","19.443112","0.017391","583346","715877","833942","35.085996","16.919908","0.018567","631716","745318","893649","30.153282","13.880083","0.020272","603072","798665","965499","22.074112","9.380445","0.024185","5544","12764","21437","5804","11927","18021","5948","11704","17065","6290","11628","16181","6518","10810","13983","DualSpot on"
"MA200-0420","52075","81","1","1.10","1.6","2023-08-18T20:45:01","120","2023/08/18","20:45:01","-15.79563969373703","35.00276333326474","0.2","13","300","68","98","-536","-26863","-40","4","150","150.60","114.57","36.03","24.69","33.2","7.42","90284","24.63","DUALSPOT-UV-BLUE-GREEN-RED-IR","749638","684974","905777","0.000000","0.000000","0.000000","855333","877916","840682","0.000000","0.000000","0.000000","836977","854196","832887","0.000000","0.000000","0.000000","858523","861527","892595","0.000000","0.000000","0.000000","753797","883770","968013","0.000000","0.000000","0.000000","","","","","","","","","","","","","","","","Tape advance-DualSpot on"
"MA200-0420","52076","81","1","1.10","1.6","2023-08-18T20:50:01","120","2023/08/18","20:50:01","-15.79559862613678","35.00276166643016","0.1","14","300","68","98","-536","-27144","816","4","150","150.21","114.51","35.71","24.64","33.4","7.46","90284","24.63","DUALSPOT-UV-BLUE-GREEN-RED-IR","737343","683200","910959","0.000000","0.000000","0.000000","840481","871048","838698","0.000000","0.000000","0.000000","824892","848820","831461","0.000000","0.000000","0.000000","848880","857459","891583","0.000000","0.000000","0.000000","748198","880833","966845","0.000000","0.000000","0.000000","","","","","","","","","","","","","","","","Tape advance-DualSpot on"
"MA200-0420","52077","81","1","1.10","1.6","2023-08-18T20:55:01","120","2023/08/18","20:55:01","-15.79564243555069","35.00279783317819","0.1","14","300","64","98","-779","-27116","-70","4","150","149.95","114.22","35.73","24.60","33.7","7.55","90284","24.50","DUALSPOT-UV-BLUE-GREEN-RED-IR","720279","676207","909001","2.122072","0.812440","0.000000","826630","864531","836780","1.437694","0.525701","0.000000","818114","848463","834789","1.222497","0.441753","0.000000","839348","853182","890210","0.972443","0.344377","0.000000","742683","877757","965479","0.600877","0.208251","0.000000","10912","13354","10912","9331","10906","9331","8886","10263","8886","8541","9668","8541","7349","8141","7349","DualSpot on"
"MA200-0420","52078","81","1","1.10","1.6","2023-08-18T21:00:01","120","2023/08/18","21:00:01","-15.79567277431488","35.00266066635959","0.1","14","300","64","98","-384","-27140","820","4","150","150.52","114.40","36.12","24.56","33.9","7.61","90284","24.50","DUALSPOT-UV-BLUE-GREEN-RED-IR","705076","670277","908303","4.183841","1.618560","0.066941","813630","858628","835501","2.868014","1.055491","0.000000","803442","839729","829902","2.449425","0.888937","0.000000","830433","849449","889415","1.954627","0.693113","0.000000","738093","875857","965469","1.220094","0.421588","0.000000","10585","13110","14703","9268","10874","9268","8903","10279","8903","8613","9687","8613","7561","8251","7561","DualSpot on"
"MA200-0420","52079","81","1","1.10","1.6","2023-08-18T21:05:01","120","2023/08/18","21:05:01","-15.795657336711884","35.00271933269687","0.1","14","300","64","98","-454","-26925","825","4","150","150.64","114.74","35.90","24.53","34.1","7.65","90288","24.50","DUALSPOT-UV-BLUE-GREEN-RED-IR","691949","664881","907621","5.993006","2.352470","0.054739","803264","854602","835795","4.188027","1.561230","0.062951","798057","840066","833788","3.591075","1.318788","0.067744","821488","845230","888014","2.877820","1.031198","0.000000","732887","872985","964328","1.810112","0.632802","0.000000","9260","12007","13782","8528","10443","11581","8260","9940","10915","8071","9448","8071","7183","8218","7183","DualSpot on"
"MA200-0420","52080","81","1","1.10","1.6","2023-08-18T21:10:01","120","2023/08/18","21:10:01","-15.795660316944122","35.002756332745776","0.1","14","300","64","98","-588","-26932","576","4","150","149.82","114.34","35.49","24.50","34.2","7.68","90280","24.44","DUALSPOT-UV-BLUE-GREEN-RED-IR","678936","659099","906294","7.745636","3.079572","0.046290","797588","855349","840772","5.492961","2.067834","0.052232","788486","835856","833221","4.727672","1.750677","0.055562","819508","848147","894115","3.807210","1.375342","0.060973","728372","870933","964158","2.410665","0.847313","0.000000","9003","12035","14036","8460","10583","11865","8253","10104","11193","8155","9730","10620","7337","8444","7337","DualSpot on"
"MA200-0420","52081","81","1","1.10","1.6","2023-08-18T21:15:01","120","2023/08/18","21:15:01","-15.79564779996872","35.0027478330303","0.2","14","300","64","97","-656","-27032","512","4","150","149.52","114.33","35.20","24.48","34.3","7.71","90284","24.44","DUALSPOT-UV-BLUE-GREEN-RED-IR","667516","654064","905716","9.380329","3.784912","0.042896","787378","850630","840314","6.728056","2.568662","0.050404","780137","832412","833323","5.809209","2.178181","0.053781","805704","838450","886909","4.696723","1.716641","0.059554","723927","868879","963895","2.991586","1.061120","0.000000","8398","11771","14052","8008","10549","12118","7853","10084","11422","7805","9729","10836","7098","8486","7098","DualSpot on"
"MA200-0420","52082","81","1","1.10","1.6","2023-08-18T21:20:01","120","2023/08/18","21:20:01","-15.795691311359406","35.00271633267403","0.1","14","300","64","98","-556","-26896","264","4","150","150.08","114.38","35.71","24.46","34.4","7.76","90284","24.44","DUALSPOT-UV-BLUE-GREEN-RED-IR","656189","648357","903716","10.870981","4.440925","0.037643","776611","844643","838308","7.868612","3.038168","0.043422","770763","827364","831649","6.813511","2.583065","0.046878","802468","839314","890692","5.524514","2.037918","0.050353","718324","865077","961627","3.538105","1.264360","0.064816","7655","10791","12957","7392","9747","11229","7290","9414","10711","7261","9027","10059","6675","7951","8661","DualSpot on"
"MA200-0420","52083","81","1","1.10","1.6","2023-08-18T21:25:01","120","2023/08/18","21:25:01","-15.795679152011871","35.002735832938924","0.1","14","300","64","97","-616","-26908","758","4","150","150.21","114.25","35.96","24.43","34.5","7.74","90280","24.38","DUALSPOT-UV-BLUE-GREEN-RED-IR","651772","648888","910108","12.253105","5.062404","0.034458","768409","840895","838281","8.925734","3.480649","0.039335","763168","823724","831109","7.743074","2.960966","0.041442","796847","837344","891272","6.293805","2.338734","0.044248","719084","868716","967528","4.043966","1.454258","0.057238","7105","10152","12297","6859","9123","10570","6754","8725","9946","6755","8393","9362","6185","7377","8047","DualSpot on"
"MA200-0420","52084","81","1","1.10","1.6","2023-08-18T21:30:01","120","2023/08/18","21:30:01","-15.795664668083191","35.00276416633278","0.1","14","300","64","98","-575","-26937","416","4","150","149.91","114.42","35.49","24.40","34.5","7.72","90284","24.31","DUALSPOT-UV-BLUE-GREEN-RED-IR","642242","644242","909396","13.648785","5.705181","0.033298","759478","836128","837259","9.973073","3.924212","0.037701","756076","820471","830976","8.659873","3.338997","0.040303","791075","835070","891541","7.051379","2.638767","0.043502","715248","866777","967126","4.540125","1.639212","0.052878","7164","10638","13133","6785","9265","10874","6652","8843","10218","6642","8482","9581","6057","7280","7971","DualSpot on"
"MA200-0420","52085","81","1","1.10","1.6","2023-08-18T21:35:01","120","2023/08/18","21:35:01","-15.795623660087585","35.00276616611518","0.3","14","300","64","97","-572","-26900","128","4","150","149.69","114.18","35.51","24.38","34.7","7.78","90280","24.31","DUALSPOT-UV-BLUE-GREEN-RED-IR","632488","638748","907169","14.937073","6.313980","0.031705","750259","830528","835201","10.948322","4.349218","0.036496","752741","820919","834433","9.515988","3.701086","0.038945","782608","829666","888291","7.760581","2.925178","0.041729","710556","863595","965338","5.007910","1.817151","0.051766","6627","10069","12589","6332","8871","10545","6225","8465","9890","6231","8091","9216","5723","6999","7726","DualSpot on"
"MA200-0420","52086","81","1","1.10","1.6","2023-08-18T21:40:01","120","2023/08/18","21:40:01","-15.795642733573914","35.00277583301067","0.0","13","300","64","97","-550","-26845","345","4","150","149.47","114.51","34.96","24.34","34.9","7.83","90284","24.25","DUALSPOT-UV-BLUE-GREEN-RED-IR","625643","635729","908069","16.123314","6.885589","0.031156","744667","828570","836531","11.861101","4.751001","0.035770","747214","818687","835034","10.323658","4.043637","0.037792","778303","828353","889317","8.431513","3.198550","0.041542","708173","863075","966362","5.450603","1.986534","0.052274","6084","9603","12226","5909","8519","10264","5855","8134","9602","5878","7845","9047","5400","6768","7552","DualSpot on"
