"Serial number","Datum ID","Session ID","Data format version","Firmware version","App version","Date / time local","Timezone offset (mins)","Date local (yyyy/MM/dd)","Time local (hh:mm:ss)","GPS lat (ddmm.mmmmm)","GPS long (dddmm.mmmmm)","GPS speed (km/h)","GPS sat count","Timebase (s)","Status","Battery remaining (%)","Accel X","Accel Y","Accel Z","Tape position","Flow setpoint (mL/min)","Flow total (mL/min)","Flow1 (mL/min)","Flow2 (mL/min)","Sample temp (C)","Sample RH (%)","Sample dewpoint (C)","Internal pressure (Pa)","Internal temp (C)","Optical config","UV Sen1","UV Sen2","UV Ref","UV ATN1","UV ATN2","UV K","Blue Sen1","Blue Sen2","Blue Ref","Blue ATN1","Blue ATN2","Blue K","Green Sen1","Green Sen2","Green Ref","Green ATN1","Green ATN2","Green K","Red Sen1","Red Sen2","Red Ref","Red ATN1","Red ATN2","Red K","IR Sen1","IR Sen2","IR Ref","IR ATN1","IR ATN2","IR K","UV BC1","UV BC2","UV BCc","Blue BC1","Blue BC2","Blue BCc","Green BC1","Green BC2","Green BCc","Red BC1","Red BC2","Red BCc","IR BC1","IR BC2","IR BCc","Readable status"
"MA200-0416","27878","84","1","1.10","1.4","2023-05-25T16:24:31","120","2023/05/25","16:24:31","-15.795752346515656","35.00297249946743","0.0","12","30","66","34","-2896","-3760","-26191","12","150","149.87","115.50","34.37","28.47","42.2","14.40","90248","28.00","DUALSPOT-UV-BLUE-GREEN-RED-IR","853696","729533","905499","0.000000","0.000000","0.000000","807483","909147","762468","0.000000","0.000000","0.000000","904766","914776","816585","0.000000","0.000000","0.000000","886304","930128","863852","0.000000","0.000000","0.000000","750239","857968","952272","0.000000","0.000000","0.000000","","","","","","","","","","","","","","","","Start up"
"MA200-0416","27879","84","1","1.10","1.4","2023-05-25T16:25:01","120","2023/05/25","16:25:01","-15.795747101306915","35.002977333031595","0.1","12","30","66","34","-2996","-3744","-25836","12","150","149.83","115.87","33.96","28.45","41.5","14.09","90248","28.13","DUALSPOT-UV-BLUE-GREEN-RED-IR","856532","732238","909061","0.000000","0.000000","0.000000","809858","912072","765031","0.000000","0.000000","0.000000","901472","911632","813879","0.000000","0.000000","0.000000","882826","926667","860742","0.000000","0.000000","0.000000","751799","859895","954490","0.000000","0.000000","0.000000","","","","","","","","","","","","","","","","Start up"
"MA200-0416","27880","84","1","1.10","1.4","2023-05-25T16:25:31","120","2023/05/25","16:25:31","-15.795822322368622","35.00296966615133","0.1","11","30","66","34","-2988","-3712","-25548","12","150","149.57","115.24","34.33","28.43","40.9","13.87","90248","28.13","DUALSPOT-UV-BLUE-GREEN-RED-IR","854435","730805","907391","0.000000","0.000000","0.000000","807981","910207","763561","0.000000","0.000000","0.000000","900730","911049","813453","0.000000","0.000000","0.000000","887176","931361","865203","0.000000","0.000000","0.000000","751323","859441","954033","0.000000","0.000000","0.000000","","","","","","","","","","","","","","","","Start up"
"MA200-0416","27881","84","1","1.10","1.4","2023-05-25T16:26:01","120","2023/05/25","16:26:01","-15.795819878578186","35.00294316629879","0.1","12","30","66","34","-2953","-3692","-25711","12","150","149.76","115.75","34.01","28.40","40.6","13.72","90252","28.19","DUALSPOT-UV-BLUE-GREEN-RED-IR","855633","732118","909141","0.000000","0.000000","0.000000","808761","911326","764568","0.000000","0.000000","0.000000","901311","911833","814231","0.000000","0.000000","0.000000","882794","926896","861095","0.000000","0.000000","0.000000","752602","861022","955791","0.000000","0.000000","0.000000","","","","","","","","","","","","","","","","Start up"
"MA200-0416","27882","84","1","1.10","1.4","2023-05-25T16:26:31","120","2023/05/25","16:26:31","-15.795832753181458","35.00295466626994","0.1","13","30","66","34","-2936","-3764","-26100","12","150","150.03","116.15","33.88","28.38","40.3","13.60","90252","28.19","DUALSPOT-UV-BLUE-GREEN-RED-IR","855333","732179","909408","0.000000","0.000000","0.000000","808788","911623","764931","0.000000","0.000000","0.000000","900853","911576","814072","0.000000","0.000000","0.000000","881954","926167","860531","0.000000","0.000000","0.000000","751808","860206","954940","0.000000","0.000000","0.000000","","","","","","","","","","","","","","","","Start up"
"MA200-0416","27883","84","1","1.10","1.4","2023-05-25T16:27:01","120","2023/05/25","16:27:01","-15.795811533927917","35.00296549964696","0.0","14","30","64","35","-2916","-3696","-25916","12","150","149.95","115.92","34.03","28.34","40.1","13.48","90252","28.19","DUALSPOT-UV-BLUE-GREEN-RED-IR","854210","731554","908773","0.000000","0.000000","0.000000","808404","911427","764832","0.000000","0.000000","0.000000","900518","911441","814059","0.000000","0.000000","0.000000","888198","932868","866833","0.000000","0.000000","0.000000","752144","860650","955486","0.000000","0.000000","0.000000","","","","","","","","","","","","","","","",""
"MA200-0416","27884","84","1","1.10","1.4","2023-05-25T16:27:31","120","2023/05/25","16:27:31","-15.795792520046234","35.002959333127365","0.0","14","30","64","34","-2976","-3671","-25244","12","150","149.70","116.07","33.63","28.32","39.9","13.37","90248","28.13","DUALSPOT-UV-BLUE-GREEN-RED-IR","854963","732532","910128","0.062675","0.015163","0.000000","808191","911440","764966","0.041055","0.013589","0.000000","901303","912424","815000","0.032562","0.009410","0.000000","888212","933034","867071","0.025719","0.009703","0.000000","752732","861439","956376","0.013633","0.003401","0.000000","3171","2648","3171","2622","2995","2622","2329","2323","2329","2223","2895","2223","1640","1413","1640",""
"MA200-0416","27885","84","1","1.10","1.4","2023-05-25T16:28:01","120","2023/05/25","16:28:01","-15.79579746723175","35.00296199996956","0.1","14","30","64","34","-2988","-3730","-25630","12","150","150.11","115.56","34.55","28.29","39.7","13.30","90252","28.19","DUALSPOT-UV-BLUE-GREEN-RED-IR","851050","729502","906473","0.120946","0.030570","0.000000","806029","909245","763220","0.078690","0.024633","0.000000","899251","910511","813412","0.063419","0.020843","0.000000","885284","930107","864415","0.047707","0.016880","0.000000","750976","859500","954246","0.026460","0.006299","0.000000","2961","2619","2961","2414","2369","2414","2216","2747","2216","1908","2083","1908","1550","1171","1550",""
"MA200-0416","27886","84","1","1.10","1.4","2023-05-25T16:28:31","120","2023/05/25","16:28:31","-15.795777976512909","35.00295766652562","0.0","14","30","64","34","-2896","-3604","-25680","12","150","149.51","115.51","33.99","28.27","39.6","13.22","90256","28.13","DUALSPOT-UV-BLUE-GREEN-RED-IR","852086","730671","908055","0.174652","0.044805","0.000000","806345","909821","763759","0.114583","0.036161","0.000000","900025","911481","814322","0.091469","0.029736","0.000000","887676","932747","866944","0.070053","0.025611","0.000000","752232","860996","955936","0.037048","0.009331","0.000000","2730","2459","2730","2303","2514","2303","2016","2172","2016","1940","2577","1940","1280","1245","1280",""
"MA200-0416","27887","84","1","1.10","1.4","2023-05-25T16:29:01","120","2023/05/25","16:29:01","-15.795814156532288","35.00299199973233","0.2","14","30","64","34","-2872","-3600","-26216","12","150","149.51","115.95","33.55","28.24","39.5","13.17","90252","28.13","DUALSPOT-UV-BLUE-GREEN-RED-IR","851698","730637","908147","0.228311","0.057737","0.000000","806171","909864","763859","0.149250","0.043188","0.000000","899572","911224","814183","0.119812","0.038361","0.000000","886937","932098","866398","0.091779","0.032258","0.000000","752065","860896","955871","0.048320","0.012983","0.000000","2718","2263","2718","2216","1552","2216","2029","2134","2029","1879","1987","1879","1358","1520","1358",""
"MA200-0416","27888","84","1","1.10","1.4","2023-05-25T16:29:31","120","2023/05/25","16:29:31","-15.795854389667511","35.00300699984655","0.0","14","30","64","34","-3038","-3665","-25561","12","150","150.23","115.59","34.63","28.20","39.5","13.11","90248","28.13","DUALSPOT-UV-BLUE-GREEN-RED-IR","851145","730472","908045","0.281858","0.071207","0.000000","806107","910018","764096","0.185024","0.055122","0.000000","899441","911224","814266","0.147230","0.047284","0.000000","886052","931286","865697","0.112283","0.039660","0.000000","747524","855733","950167","0.058607","0.016107","0.000000","2720","2284","2720","2294","2554","2294","1969","2138","1969","1779","2144","1779","1243","1260","1243",""
"MA200-0416","27889","84","1","1.10","1.4","2023-05-25T16:30:01","120","2023/05/25","16:30:01","-15.795844197273254","35.0030123332981","0.0","14","30","64","34","-2980","-3636","-25868","12","150","150.29","116.31","33.98","28.17","39.4","13.05","90252","28.06","DUALSPOT-UV-BLUE-GREEN-RED-IR","848418","728384","905578","0.333196","0.084306","0.000000","803549","907350","761891","0.218516","0.064693","0.000000","897900","909853","813106","0.175446","0.055974","0.000000","884496","929774","864375","0.134277","0.048840","0.000000","746274","854367","948651","0.068351","0.018808","0.000000","2592","2264","2592","2134","2087","2134","2014","2122","2014","1897","2709","1897","1170","1110","1170",""
"MA200-0416","27890","84","1","1.10","1.4","2023-05-25T16:30:31","120","2023/05/25","16:30:31","-15.795785009860992","35.00299216643907","0.0","14","30","64","34","-2952","-3728","-26252","12","150","149.45","115.83","33.61","28.14","39.3","12.99","90256","28.06","DUALSPOT-UV-BLUE-GREEN-RED-IR","849723","729765","907393","0.380206","0.096208","0.000000","805030","909198","763544","0.248771","0.073760","0.000000","898107","910184","813459","0.199849","0.064199","0.000000","885102","930527","865127","0.153517","0.055110","0.000000","751250","860145","955120","0.078022","0.021759","0.000000","2383","2079","2383","1936","1999","1936","1749","2031","1749","1666","1871","1666","1166","1226","1166",""
"MA200-0416","27891","84","1","1.10","1.4","2023-05-25T16:31:01","120","2023/05/25","16:31:01","-15.795779287815094","35.002981666242704","0.0","14","30","64","34","-2876","-3516","-26044","12","150","149.61","115.98","33.63","28.12","39.2","12.95","90252","28.06","DUALSPOT-UV-BLUE-GREEN-RED-IR","848698","729194","906818","0.432460","0.108764","0.000000","804304","908630","763137","0.283265","0.083690","0.000000","898174","910457","813770","0.227445","0.073266","0.000000","884534","930072","864774","0.175148","0.063359","0.000000","751295","860245","955264","0.089069","0.025571","0.000000","2646","2193","2646","2204","2189","2204","1975","2238","1975","1871","2461","1871","1330","1583","1330",""
"MA200-0416","27892","84","1","1.10","1.4","2023-05-25T16:31:31","120","2023/05/25","16:31:31","-15.795784711837769","35.00298799946904","0.0","14","30","64","34","-2992","-3744","-25947","12","150","149.83","116.39","33.44","28.09","39.2","12.91","90252","28.00","DUALSPOT-UV-BLUE-GREEN-RED-IR","847186","728185","905678","0.487532","0.124166","0.000000","803852","908354","762991","0.319772","0.094049","0.000000","897409","909849","813270","0.254673","0.081354","0.000000","884104","929749","864552","0.197225","0.070786","0.000000","750990","859949","954957","0.099498","0.028285","0.000000","2779","2705","2779","2325","2296","2325","1942","2007","1942","1903","2228","1903","1251","1133","1251",""
"MA200-0416","27893","84","1","1.10","1.4","2023-05-25T16:32:01","120","2023/05/25","16:32:01","-15.795796155929565","35.00299683306366","0.1","14","30","64","34","-2932","-3580","-25956","12","150","149.76","116.55","33.22","28.06","39.2","12.89","90256","28.00","DUALSPOT-UV-BLUE-GREEN-RED-IR","845814","727340","904777","0.547467","0.139453","0.000000","802448","906990","761947","0.357663","0.105123","0.000000","897027","909678","813194","0.285351","0.090515","0.000000","884099","929880","864726","0.219196","0.077080","0.000000","746440","854850","949347","0.112548","0.031609","0.000000","3020","2703","3020","2410","2471","2410","2185","2289","2185","1891","1901","1891","1564","1397","1564",""
"MA200-0416","27894","84","1","1.10","1.4","2023-05-25T16:32:31","120","2023/05/25","16:32:31","-15.795801997184753","35.003004333237186","0.1","14","30","64","34","-2956","-3684","-25956","12","150","149.51","116.51","33.00","28.04","39.2","12.89","90256","28.00","DUALSPOT-UV-BLUE-GREEN-RED-IR","845960","727746","905444","0.607538","0.155412","0.000000","802654","907489","762434","0.398236","0.117336","0.000000","901036","913970","817165","0.318908","0.100439","0.000000","882509","928413","863419","0.245118","0.086188","0.000000","750602","859661","954724","0.125484","0.036228","0.000000","3028","2840","3028","2581","2743","2581","2391","2496","2391","2232","2769","2232","1551","1955","1551",""
"MA200-0416","27895","84","1","1.10","1.4","2023-05-25T16:33:01","120","2023/05/25","16:33:01","-15.795804679393768","35.00300783314742","0.0","14","30","64","34","-3076","-3604","-25780","12","150","149.66","116.19","33.47","28.01","39.2","12.86","90256","28.00","DUALSPOT-UV-BLUE-GREEN-RED-IR","840788","726248","904821","1.074000","0.272926","0.000000","800201","906370","761955","0.611954","0.170909","0.000000","899826","913912","817447","0.470579","0.139337","0.000000","880943","927576","862928","0.351494","0.113248","0.000000","750316","859769","955000","0.184177","0.050422","0.000000","23580","20622","23580","13635","11865","13635","10837","9648","10837","9185","8111","9185","7056","5924","7056",""
"MA200-0416","27896","84","1","1.10","1.4","2023-05-25T16:33:31","120","2023/05/25","16:33:31","-15.795796513557434","35.00298816617578","0.0","14","30","64","33","-3036","-3687","-25828","12","150","150.05","116.28","33.76","27.98","39.3","12.85","90256","28.00","DUALSPOT-UV-BLUE-GREEN-RED-IR","827982","721631","901955","2.332613","0.606475","0.000000","794408","903050","760073","1.097529","0.291347","0.000000","894649","910866","815380","0.801557","0.219642","0.000000","876459","924396","860397","0.574511","0.167220","0.000000","747860","857683","952928","0.293428","0.076894","0.000000","63573","58024","63573","30956","26443","30956","23630","19746","23630","19241","16037","19241","13124","10952","13124",""
"MA200-0416","27897","84","1","1.10","1.4","2023-05-25T16:34:01","120","2023/05/25","16:34:01","-15.795803666114807","35.002983999671414","0.0","14","30","64","34","-3038","-3688","-25657","12","150","150.01","116.16","33.85","27.98","39.3","12.85","90252","27.94","DUALSPOT-UV-BLUE-GREEN-RED-IR","788574","713485","904174","5.528035","1.464029","-0.021762","770018","896976","761401","3.147697","0.821464","-0.057086","873023","906315","816718","2.381349","0.624257","0.000000","861137","921856","862314","1.753228","0.464499","0.000000","740149","856605","954635","1.017976","0.258827","0.000000","161575","148819","144224","130840","116112","110911","112912","99250","112912","101805","88120","101805","87134","75090","87134",""
"MA200-0416","27898","84","1","1.10","1.4","2023-05-25T16:34:31","120","2023/05/25","16:34:31","-15.795785307884216","35.00300000002608","0.0","14","30","64","34","-2840","-3664","-26272","12","150","150.03","115.67","34.36","27.98","39.4","12.88","90252","27.94","DUALSPOT-UV-BLUE-GREEN-RED-IR","712212","691607","903681","12.576326","3.484129","-0.004047","717794","882471","765227","8.338188","2.230190","-0.015996","822631","891933","816993","6.663782","1.756965","-0.026200","815843","903937","856009","5.140698","1.337504","-0.042360","717817","850122","954851","3.219368","0.817026","-0.075728","357896","345364","340562","332651","303975","293505","307368","273726","261681","293809","254940","241270","265857","226971","213746",""
"MA200-0416","27899","84","1","1.10","1.4","2023-05-25T16:35:01","120","2023/05/25","16:35:01","-15.79578012228012","35.003012666711584","0.0","14","30","64","34","-2876","-3676","-26072","12","150","150.41","116.16","34.24","27.97","39.5","12.91","90252","27.94","DUALSPOT-UV-BLUE-GREEN-RED-IR","640950","670084","910019","28.080894","8.638920","0.005552","667242","863161","765332","18.662982","5.317163","0.001050","770431","874771","816461","15.394561","4.247164","-0.003043","777178","896028","861211","12.293255","3.261184","-0.011011","691177","841749","954327","8.047653","2.024275","-0.031603","783958","884216","928766","658904","668325","672079","623994","603776","596073","617747","563633","544095","580635","492518","462904",""
"MA200-0416","27900","84","1","1.10","1.4","2023-05-25T16:35:31","120","2023/05/25","16:35:31","-15.795789122581482","35.0030136667192","0.1","14","30","64","34","-2980","-3616","-26016","12","150","150.23","115.35","34.87","27.94","39.6","12.92","90252","27.94","DUALSPOT-UV-BLUE-GREEN-RED-IR","566788","638837","909836","36.987916","12.029125","0.007500","617488","840568","765413","24.356946","7.240623","0.005879","722327","856272","815988","20.036050","5.733871","0.003843","737441","881725","861162","16.065838","4.398942","-0.000205","665892","832975","954202","10.711037","2.755509","-0.013168","453526","571018","627645","365925","408897","427076","334058","353951","361927","328114","327333","327038","322538","292926","282669",""
"MA200-0416","27901","84","1","1.10","1.4","2023-05-25T16:36:01","120","2023/05/25","16:36:01","-15.79577773809433","35.003004166530445","0.0","14","30","64","33","-2972","-3648","-25847","12","150","149.87","115.13","34.74","27.94","39.7","12.97","90256","27.94","DUALSPOT-UV-BLUE-GREEN-RED-IR","541643","625968","907403","45.087284","15.301136","0.007518","596731","828810","763569","29.949214","9.242260","0.007083","701482","847018","815112","24.883368","7.380998","0.006108","723358","879096","865399","20.168324","5.707544","0.003655","652838","826708","952008","13.649487","3.614392","-0.003266","413216","553200","625110","360098","427130","457049","349560","393631","412216","357511","377912","385965","356551","345365","341336",""
"MA200-0416","27902","84","1","1.10","1.4","2023-05-25T16:36:31","120","2023/05/25","16:36:31","-15.795805811882019","35.00297999987379","0.0","14","30","64","33","-2946","-3680","-26242","12","150","149.81","115.46","34.35","27.94","40.0","13.07","0","0.00","DUALSPOT-UV-BLUE-GREEN-RED-IR","485737","598125","909107","53.462144","18.850910","0.007409","551680","805324","764624","36.266840","11.609257","0.007613","656360","827751","816019","30.298282","9.302938","0.007189","680170","858159","860782","24.696748","7.211751","0.005720","628130","818129","953638","16.910534","4.596033","0.000940","426038","606953","705488","405632","510810","560329","389365","464503","497796","393490","439317","458218","394553","399194","400926",""
"MA200-0416","27903","84","1","1.10","1.4","2023-05-25T16:37:01","120","2023/05/25","16:37:01","-15.795808553695679","35.00296766636893","0.1","14","30","68","33","-4007","-4940","-25596","13","150","149.66","115.96","33.70","27.98","40.1","13.16","0","0.00","DUALSPOT-UV-BLUE-GREEN-RED-IR","749887","703201","903610","0.000000","0.000000","0.000000","770599","902552","765213","0.000000","0.000000","0.000000","874604","908845","816185","0.000000","0.000000","0.000000","864237","925164","861864","0.000000","0.000000","0.000000","744089","863376","955337","0.000000","0.000000","0.000000","0","0","0","0","0","0","0","0","0","0","0","0","0","0","0","Tape advance"
"MA200-0416","27904","84","1","1.10","1.4","2023-05-25T16:37:31","120","2023/05/25","16:37:31","-15.795817196369171","35.00295416638255","0.0","14","30","68","33","-3252","-5388","-25348","13","150","149.57","115.39","34.17","27.98","40.2","13.21","90264","28.13","DUALSPOT-UV-BLUE-GREEN-RED-IR","602480","648008","904187","0.000000","0.000000","0.000000","700797","872829","761285","0.000000","0.000000","0.000000","825023","893197","816707","0.000000","0.000000","0.000000","830816","914942","862668","0.000000","0.000000","0.000000","727756","857964","955707","0.000000","0.000000","0.000000","","","","","","","","","","","","","","","","Tape advance"
"MA200-0416","27905","84","1","1.10","1.4","2023-05-25T16:38:01","120","2023/05/25","16:38:01","-15.795789659023285","35.00294416653924","0.1","14","30","64","33","-2964","-5452","-25788","13","150","149.45","115.04","34.41","27.98","40.2","13.21","90260","28.06","DUALSPOT-UV-BLUE-GREEN-RED-IR","513903","604567","903964","13.707279","5.915420","0.031943","635173","846937","765438","8.509947","2.897596","0.020374","759006","870061","816948","6.639524","2.102638","0.011920","777088","896945","862846","5.194166","1.560002","0.001115","695927","847817","956611","3.485447","0.989859","-0.021794","699875","1009747","1244996","548408","624270","663436","479182","507325","520367","453003","454850","455643","423258","401863","393377",""
"MA200-0416","27906","84","1","1.10","1.4","2023-05-25T16:38:31","120","2023/05/25","16:38:31","-15.79579108953476","35.00293099973351","0.0","14","30","64","33","-3152","-5284","-25560","13","150","149.63","114.80","34.83","27.98","40.2","13.20","90264","28.00","DUALSPOT-UV-BLUE-GREEN-RED-IR","492510","594201","908231","21.202984","9.329250","0.022268","616515","836344","763374","13.330748","4.608506","0.015442","741822","862150","815151","10.597833","3.392578","0.009258","763011","890432","860949","8.415009","2.545404","0.001391","686920","843179","954417","5.686752","1.617668","-0.016127","383516","575629","726574","311313","364112","392009","286269","307443","317413","281486","283812","284820","267873","251771","245370",""
"MA200-0416","27907","84","1","1.10","1.4","2023-05-25T16:39:01","120","2023/05/25","16:39:01","-15.795789122581482","35.00294466642663","0.0","14","30","64","33","-3220","-5316","-25580","13","150","149.76","115.16","34.61","27.98","40.1","13.16","90260","28.00","DUALSPOT-UV-BLUE-GREEN-RED-IR","480068","587711","910272","24.408082","10.856907","0.021037","608836","833237","764542","14.922926","5.202729","0.018143","735440","860238","816148","11.717159","3.782547","0.016249","758901","889835","862414","9.220105","2.812183","0.013949","684837","843116","955699","6.183552","1.777812","0.014953","163478","259268","336013","102498","127286","140553","80699","93551","99677","70142","77337","80495","60266","64641","66406",""
"MA200-0416","27908","84","1","1.10","1.4","2023-05-25T16:39:31","120","2023/05/25","16:39:31","-15.79578584432602","35.00297416630201","0.0","14","30","64","33","-3196","-5428","-25860","13","150","150.03","115.16","34.87","27.98","40.0","13.13","90260","28.00","DUALSPOT-UV-BLUE-GREEN-RED-IR","479140","587019","909828","24.552544","10.924103","0.020008","608111","833028","764809","15.074900","5.262255","0.020611","734332","859617","815918","11.835891","3.824854","0.017487","757224","888383","861234","9.306441","2.842158","0.018714","683811","842137","954750","6.237289","1.793636","-0.006462","7368","11317","14483","9783","12654","14193","8560","10072","10794","7521","8623","9108","6518","6338","6266",""
"MA200-0416","27909","84","1","1.10","1.4","2023-05-25T16:40:01","120","2023/05/25","16:40:01","-15.79580968618393","35.00297549972311","0.4","14","30","64","33","-2516","-2876","-25647","13","150","149.45","115.08","34.37","27.98","40.0","13.12","90260","27.94","DUALSPOT-UV-BLUE-GREEN-RED-IR","477506","586230","910144","24.920868","11.092896","0.019686","606505","832202","764801","15.340509","5.359649","0.016900","732867","859054","815921","12.034628","3.892338","0.013987","761328","894046","867152","9.450844","2.887660","0.007770","683013","841737","954547","6.331001","1.819022","-0.023705","18799","28845","36904","17110","21007","23099","14338","16301","17240","12589","13282","13587","11376","10318","9891",""
"MA200-0416","27910","84","1","1.10","1.4","2023-05-25T16:40:31","120","2023/05/25","16:40:31","-15.795823156833649","35.002943666419014","0.1","14","30","64","33","-4484","-5772","-25112","13","150","149.94","114.96","34.98","27.95","39.9","13.06","90260","27.94","DUALSPOT-UV-BLUE-GREEN-RED-IR","442905","563100","906058","31.928962","14.630604","0.017191","589256","821641","762602","17.920884","6.342555","0.015657","720310","852173","813774","13.501795","4.430944","0.017419","751484","887741","864120","10.404439","3.246277","0.024553","677217","837590","952161","6.937557","2.066479","0.047113","358059","594086","793713","166397","208327","231296","105957","127847","138540","83221","102866","111776","73706","98833","109493",""
"MA200-0416","27911","84","1","1.10","1.4","2023-05-25T16:41:01","120","2023/05/25","16:41:01","-15.795821130275726","35.002921666484326","0.0","14","30","64","33","-4352","-5784","-25436","13","150","150.03","115.27","34.75","27.93","39.8","13.01","90260","27.88","DUALSPOT-UV-BLUE-GREEN-RED-IR","432936","556916","907543","34.349548","15.890553","0.016734","584225","819006","762850","18.799326","6.693876","0.017899","717711","851519","814707","13.971088","4.616726","0.022806","750941","888619","865976","10.685489","3.361821","0.032441","677138","838267","953720","7.110424","2.144333","0.058254","123336","212940","290077","56492","74940","85142","33799","44381","49604","24460","33355","37438","20948","31294","35761",""
"MA200-0416","27912","84","1","1.10","1.4","2023-05-25T16:41:31","120","2023/05/25","16:41:31","-15.79582279920578","35.00291566620581","0.1","15","30","64","33","-4468","-5908","-25340","13","150","149.90","115.35","34.54","27.90","39.8","12.96","90260","27.88","DUALSPOT-UV-BLUE-GREEN-RED-IR","431000","555213","906280","34.752952","16.108944","0.017292","583258","818332","762804","18.994386","6.780321","0.022502","716664","850722","814207","14.077114","4.662031","0.027681","749396","886956","864565","10.741240","3.389072","0.044709","676581","837656","953113","7.134975","2.156692","0.069231","20540","37136","51475","12535","18552","21892","7630","10889","12502","4848","7915","9328","2973","4998","5875",""
"MA200-0416","27913","84","1","1.10","1.4","2023-05-25T16:42:01","120","2023/05/25","16:42:01","-15.79583340883255","35.002921666484326","0.0","15","30","64","33","-4424","-5772","-25396","13","150","149.61","115.07","34.54","27.88","39.7","12.93","90260","27.81","DUALSPOT-UV-BLUE-GREEN-RED-IR","428262","552671","903909","35.134348","16.305450","0.016284","580346","815156","760415","19.180630","6.854302","0.017454","718753","853764","817486","14.183377","4.705352","0.024604","747212","884668","862552","10.799347","3.412985","0.032568","675014","835880","951225","7.163410","2.169986","0.062042","19468","33417","45498","11998","15879","18037","7667","10413","11776","5066","6946","7815","3452","5377","6213",""
"MA200-0416","27914","84","1","1.10","1.4","2023-05-25T16:42:31","120","2023/05/25","16:42:31","-15.795828521251678","35.002921166364104","0.0","15","30","64","33","-4428","-5752","-25532","13","150","149.45","115.31","34.13","27.87","39.7","12.90","90264","27.81","DUALSPOT-UV-BLUE-GREEN-RED-IR","423833","549916","904651","36.136224","16.825618","0.016196","578806","815101","761669","19.572516","7.012088","0.018372","716993","852911","817464","14.400860","4.790408","0.022569","746531","884655","863068","10.934845","3.467702","0.031817","674758","835963","951707","7.243755","2.206169","0.059159","51031","89515","123047","25193","34271","39339","15658","20689","23197","11788","16084","18078","9733","14809","17032",""
"MA200-0416","27915","84","1","1.10","1.4","2023-05-25T16:43:01","120","2023/05/25","16:43:01","-15.79583865404129","35.00292433309369","0.0","15","30","64","33","-4484","-5744","-25308","13","150","149.66","115.34","34.32","27.84","39.7","12.89","0","0.00","DUALSPOT-UV-BLUE-GREEN-RED-IR","403036","537032","909984","40.673944","19.214428","0.014581","570613","812669","765134","21.102294","7.626302","0.016750","709873","849334","817222","15.193742","5.108822","0.022698","741598","881771","862418","11.416671","3.675401","0.034869","671747","833806","950918","7.545471","2.351453","0.062696","231088","408772","567867","98327","132656","152083","57074","77017","87119","41912","60708","69632","36544","59128","69353",""
"MA200-0416","27916","84","1","1.10","1.4","2023-05-25T16:43:31","120","2023/05/25","16:43:31","-15.79583889245987","35.002923666499555","0.0","15","30","64","33","-4403","-5830","-25376","13","150","149.86","115.18","34.68","27.83","39.8","12.89","0","0.00","DUALSPOT-UV-BLUE-GREEN-RED-IR","396131","532032","909403","43.340760","20.620900","0.013594","567135","810557","764844","21.997644","7.982279","0.015217","707482","848034","816890","15.651386","5.290139","0.020643","739908","880572","861848","11.680826","3.788942","0.033186","671049","833322","950828","7.701412","2.430077","0.064456","135992","238227","331016","57626","76100","86622","32987","43410","48732","23008","32849","37574","18912","31673","37555",""
"MA200-0416","27917","84","1","1.10","1.4","2023-05-25T16:44:01","120","2023/05/25","16:44:01","-15.795856654644012","35.002941499697044","0.0","15","30","64","33","-4484","-5908","-25232","13","150","150.14","115.34","34.81","27.81","39.8","12.87","90268","27.75","DUALSPOT-UV-BLUE-GREEN-RED-IR","391152","528104","907582","44.419580","21.170524","0.012786","563799","807777","763500","22.415540","8.147670","0.014653","705021","846220","815843","15.873427","5.375725","0.018604","742149","883896","865547","11.805849","3.840530","0.029851","669592","831774","949354","7.769466","2.463732","0.062196","54940","92741","127163","26860","35223","39998","15983","20413","22681","10875","14868","16794","8242","13506","15950",""
"MA200-0416","27918","84","1","1.10","1.4","2023-05-25T16:44:31","120","2023/05/25","16:44:31","-15.795858561992645","35.00293766637333","0.0","15","30","64","32","-4440","-5832","-25596","13","150","149.57","115.79","33.77","27.79","39.7","12.85","90268","27.75","DUALSPOT-UV-BLUE-GREEN-RED-IR","389882","527689","908959","45.045824","21.478466","0.012593","563072","807860","764220","22.691090","8.253938","0.014816","704773","846632","816640","16.029818","5.434961","0.019413","738113","879527","861496","11.896894","3.875899","0.027729","670229","832764","950660","7.816002","2.483762","0.052562","31766","53554","73411","17641","23326","26576","11213","14561","16278","7888","10506","11772","5614","8284","9528",""
"MA200-0416","27919","84","1","1.10","1.4","2023-05-25T16:45:01","120","2023/05/25","16:45:01","-15.795863509178162","35.00293766637333","0.0","15","30","64","33","-4353","-5853","-25765","13","150","150.23","115.47","34.75","27.76","39.8","12.85","90268","27.75","DUALSPOT-UV-BLUE-GREEN-RED-IR","385459","524557","908629","45.991968","21.954274","0.012222","560495","806359","764115","23.079614","8.403886","0.013324","702796","845596","816409","16.253460","5.518985","0.016815","741083","883899","866330","12.032312","3.927827","0.024040","672988","836642","955456","7.896553","2.517013","0.044695","48125","80416","109907","24942","31985","36019","16079","20073","22126","11765","14990","16553","9744","13365","15059",""
"MA200-0416","27920","84","1","1.10","1.4","2023-05-25T16:45:31","120","2023/05/25","16:45:31","-15.795863330364227","35.002937332959846","0.0","15","30","64","32","-4504","-5732","-25680","13","150","150.56","115.39","35.16","27.74","39.8","12.82","90272","27.75","DUALSPOT-UV-BLUE-GREEN-RED-IR","381309","520752","905397","46.866472","22.396916","0.011922","557358","803407","762236","23.442242","8.543117","0.012384","700153","843397","814861","16.466410","5.599511","0.016243","737954","880825","863731","12.166269","3.978622","0.021896","671893","835649","954624","7.976726","2.551092","0.046050","44512","73938","100871","23296","29353","32826","15321","19012","20915","11646","14492","15875","9705","13538","15340",""
"MA200-0416","27921","84","1","1.10","1.4","2023-05-25T16:46:01","120","2023/05/25","16:46:01","-15.795869708061218","35.00293599953875","0.0","15","30","64","33","-4450","-5800","-25842","13","150","150.16","115.71","34.45","27.73","39.8","12.81","90272","27.69","DUALSPOT-UV-BLUE-GREEN-RED-IR","378373","518935","906253","47.634912","22.793042","0.012256","555743","802780","762732","23.763762","8.670742","0.014484","699449","843591","815705","16.654619","5.669803","0.016718","738957","882660","865949","12.281410","4.024565","0.027364","672132","836320","955645","8.044300","2.578860","0.044614","39006","67541","93723","20598","27465","31409","13504","16940","18714","9983","13380","15036","8157","11260","12724",""
"MA200-0416","27922","84","1","1.10","1.4","2023-05-25T16:46:31","120","2023/05/25","16:46:31","-15.795872986316681","35.00293649965897","0.0","15","30","64","33","-4456","-5872","-25084","13","150","149.80","115.63","34.17","27.71","39.7","12.77","90272","27.69","DUALSPOT-UV-BLUE-GREEN-RED-IR","374280","515860","906194","48.559952","23.290592","0.012598","553091","800917","762263","24.130434","8.819074","0.015234","697633","842501","815394","16.854902","5.751724","0.021850","737623","881647","865448","12.396293","4.073673","0.032218","671305","835545","955135","8.107277","2.609499","0.060187","46990","85522","121037","23508","32179","37174","14380","19903","22764","9968","14418","16596","7608","12525","14859",""
"MA200-0416","27923","84","1","1.10","1.4","2023-05-25T16:47:01","120","2023/05/25","16:47:01","-15.795874655246735","35.00294016650878","0.0","15","30","64","32","-4656","-5940","-25836","13","150","149.96","115.47","34.49","27.68","39.7","12.74","90276","27.69","DUALSPOT-UV-BLUE-GREEN-RED-IR","371947","514152","906099","49.465760","23.770676","0.012101","551497","799856","762009","24.482304","8.961714","0.014723","696408","841772","815142","17.045462","5.827076","0.019352","736516","880810","864877","12.501972","4.117638","0.029549","670926","835266","954974","8.162048","2.636875","0.061104","46074","81761","114775","22589","30660","35320","13700","18139","20444","9181","12789","14560","6626","11088","13218",""
"MA200-0416","27924","84","1","1.10","1.4","2023-05-25T16:47:31","120","2023/05/25","16:47:31","-15.79587072134018","35.00293549965136","0.0","15","30","64","33","-4492","-5828","-24928","13","150","149.83","115.20","34.63","27.66","39.7","12.72","90272","27.63","DUALSPOT-UV-BLUE-GREEN-RED-IR","367450","510364","905049","50.554108","24.385834","0.012454","548998","798169","761801","24.908494","9.142829","0.015862","694520","840617","814826","17.277476","5.923897","0.021487","734416","878938","863553","12.633167","4.175717","0.032748","669870","834210","954100","8.232059","2.671704","0.059787","55492","104323","149827","27427","38766","45342","16721","23209","26594","11426","16823","19488","8490","14047","16718",""
"MA200-0416","27925","84","1","1.10","1.4","2023-05-25T16:48:01","120","2023/05/25","16:48:01","-15.7958744764328","35.002950000111014","0.0","15","30","68","32","-4576","-5952","-25480","14","150","147.77","117.50","30.27","27.67","39.7","12.72","90272","27.81","DUALSPOT-UV-BLUE-GREEN-RED-IR","828620","726353","905714","0.000000","0.000000","0.000000","801038","911870","763954","0.000000","0.000000","0.000000","894949","913130","813629","0.000000","0.000000","0.000000","876211","927498","859624","0.000000","0.000000","0.000000","745955","861134","951440","0.000000","0.000000","0.000000","0","0","0","0","0","0","0","0","0","0","0","0","0","0","0","Tape advance"
"MA200-0416","27926","84","1","1.10","1.4","2023-05-25T16:48:31","120","2023/05/25","16:48:31","-15.795869171619415","35.00293783308007","0.1","15","30","68","32","-4396","-5844","-25556","14","150","149.64","116.52","33.11","27.65","39.7","12.70","90272","27.75","DUALSPOT-UV-BLUE-GREEN-RED-IR","811077","723516","908693","0.000000","0.000000","0.000000","798123","912004","765212","0.000000","0.000000","0.000000","893860","913813","814883","0.000000","0.000000","0.000000","876637","929116","861610","0.000000","0.000000","0.000000","746338","862374","953143","0.000000","0.000000","0.000000","","","","","","","","","","","","","","","","Tape advance"
"MA200-0416","27927","84","1","1.10","1.4","2023-05-25T16:49:01","120","2023/05/25","16:49:01","-15.795872807502747","35.00293666636571","0.0","15","30","64","32","-9560","-6360","-23332","14","150","149.57","116.39","33.18","27.63","39.6","12.64","90276","27.69","DUALSPOT-UV-BLUE-GREEN-RED-IR","807605","721910","907496","0.317078","0.095340","0.000000","797089","911383","764910","0.096476","0.030313","0.000000","896998","917381","818226","0.059807","0.019115","0.000000","881222","934155","866453","0.038838","0.013840","0.000000","745162","861162","951865","0.025207","0.006760","0.000000","16001","16878","16001","6144","6773","6144","4266","4783","4266","3347","4185","3347","3025","2846","3025",""
"MA200-0416","27928","84","1","1.10","1.4","2023-05-25T16:49:31","120","2023/05/25","16:49:31","-15.795871675014496","35.002959666308016","0.0","15","30","64","32","-8661","-6411","-24103","14","150","149.87","116.50","33.37","27.59","39.5","12.59","90276","27.63","DUALSPOT-UV-BLUE-GREEN-RED-IR","804058","719917","905621","0.573362","0.171279","0.000000","794935","909426","763432","0.179583","0.053874","0.000000","896220","916893","817935","0.113052","0.034994","0.000000","880067","933165","865597","0.075829","0.026154","0.000000","744624","860657","951362","0.047046","0.012373","0.000000","12920","13368","12920","5288","5234","5288","3794","3951","3794","3185","3702","3185","2618","2350","2618",""
"MA200-0416","27929","84","1","1.10","1.4","2023-05-25T16:50:01","120","2023/05/25","16:50:01","-15.795864701271057","35.00295766652562","0.0","15","30","64","32","-8752","-6304","-24484","14","150","150.30","116.59","33.71","27.57","39.5","12.57","0","0.00","DUALSPOT-UV-BLUE-GREEN-RED-IR","801009","717759","903219","0.754924","0.225833","0.000000","793135","907729","762127","0.247347","0.072019","0.000000","894619","915540","816789","0.160182","0.048923","0.000000","877681","930798","863480","0.106024","0.034940","0.000000","747921","864587","955682","0.063451","0.015692","0.000000","9146","9504","9146","4308","3989","4308","3356","3430","3356","2598","2614","2598","1965","1375","1965",""
"MA200-0416","27930","84","1","1.10","1.4","2023-05-25T16:50:31","120","2023/05/25","16:50:31","-15.795862853527069","35.002956833224744","0.0","15","30","64","32","-8372","-6176","-24336","14","150","149.89","116.78","33.11","27.54","39.5","12.53","0","0.00","DUALSPOT-UV-BLUE-GREEN-RED-IR","805255","721836","908523","0.796733","0.239576","0.000000","796510","911872","765699","0.287259","0.083738","0.000000","892918","913984","815514","0.192689","0.058948","0.000000","875095","928187","861139","0.128954","0.044185","0.000000","746703","863280","954274","0.075973","0.017802","0.000000","2102","2437","2102","2533","2623","2533","2311","2513","2311","1969","2801","1969","1497","890","1497",""
"MA200-0416","27931","84","1","1.10","1.4","2023-05-25T16:51:01","120","2023/05/25","16:51:01","-15.795864045619965","35.00295133306645","0.0","15","30","64","32","-8592","-5903","-24019","14","150","150.49","117.50","32.99","27.52","39.5","12.51","90280","27.44","DUALSPOT-UV-BLUE-GREEN-RED-IR","798033","717627","904345","1.254019","0.371013","0.000000","792568","908138","762829","0.409895","0.117998","0.000000","890888","912390","814224","0.263685","0.079047","0.000000","877810","931398","864221","0.174587","0.056940","0.000000","744707","861091","951936","0.100486","0.024456","0.000000","22858","23401","22858","7737","7698","7737","5016","5058","5016","3896","3879","3896","2914","2817","2914",""
"MA200-0416","27932","84","1","1.10","1.4","2023-05-25T16:51:31","120","2023/05/25","16:51:31","-15.795863032341003","35.00295533309691","0.0","16","30","64","32","-8384","-6104","-24256","14","150","150.43","116.83","33.60","27.49","39.5","12.49","90276","27.38","DUALSPOT-UV-BLUE-GREEN-RED-IR","795728","717554","905347","1.566175","0.462785","0.000000","792217","908488","763377","0.504428","0.144720","0.000000","890874","912818","814787","0.323093","0.095283","0.000000","878622","932530","865402","0.213932","0.068670","0.000000","745213","861874","952865","0.121910","0.028844","0.000000","15694","16043","15694","5998","5895","5998","4221","4011","4221","3378","3502","3378","2561","1824","2561",""
"MA200-0416","27933","84","1","1.10","1.4","2023-05-25T16:52:01","120","2023/05/25","16:52:01","-15.795871376991272","35.002947999862954","0.0","16","30","64","32","-8656","-6132","-24092","14","150","150.16","116.47","33.69","27.46","39.6","12.50","90284","27.38","DUALSPOT-UV-BLUE-GREEN-RED-IR","786926","714742","904526","2.603881","0.770311","0.000000","789826","907232","762776","0.737601","0.210571","0.000000","893700","916542","818395","0.448513","0.131141","0.000000","876316","930604","863790","0.293499","0.091969","0.000000","744346","861136","952155","0.167919","0.041537","0.000000","52332","53610","52332","14841","14489","14841","8940","8835","8940","6853","6937","6853","5518","5262","5518",""
"MA200-0416","27934","84","1","1.10","1.4","2023-05-25T16:52:31","120","2023/05/25","16:52:31","-15.795871019363403","35.00295633310452","0.0","15","30","64","32","-8396","-6248","-23960","14","150","150.29","116.71","33.59","27.42","39.6","12.47","90280","27.31","DUALSPOT-UV-BLUE-GREEN-RED-IR","790174","718475","909625","2.816457","0.832111","0.000000","787775","905330","761352","0.817281","0.232236","0.000000","892115","915242","817362","0.504213","0.147241","0.000000","874892","929291","862659","0.331407","0.104284","0.000000","743254","860026","950979","0.188966","0.046558","0.000000","10698","10807","10698","5061","4782","5061","3962","3979","3962","3258","3678","3258","2519","2088","2519",""
"MA200-0416","27935","84","1","1.10","1.4","2023-05-25T16:53:01","120","2023/05/25","16:53:01","-15.79587197303772","35.002959166420624","0.0","15","30","64","32","-8540","-6508","-23528","14","150","150.09","116.35","33.75","27.40","39.6","12.46","90280","27.25","DUALSPOT-UV-BLUE-GREEN-RED-IR","785946","716059","907303","3.098897","0.913732","-0.001671","790439","909038","764663","0.913215","0.258485","0.000000","890498","914046","816442","0.570964","0.165462","0.000000","872647","927226","860894","0.378811","0.117266","0.000000","746910","864411","955902","0.215339","0.053676","0.000000","14258","14206","14184","6112","5766","6112","4763","4482","4763","4087","3859","4087","3166","2946","3166",""
"MA200-0416","27936","84","1","1.10","1.4","2023-05-25T16:53:31","120","2023/05/25","16:53:31","-15.795859396457672","35.002948832931","0.0","16","30","64","32","-8256","-6004","-24568","14","150","150.29","116.39","33.90","27.37","39.7","12.45","90284","27.25","DUALSPOT-UV-BLUE-GREEN-RED-IR","784928","715318","906429","3.144742","0.926631","-0.016155","789777","908615","764384","0.965684","0.272041","0.000000","889529","913295","815866","0.614494","0.177537","0.000000","877113","932202","865566","0.410288","0.126701","0.000000","745770","863183","954536","0.232580","0.058173","0.000000","2313","2234","2201","3342","2963","3342","3105","2956","3105","2713","2792","2713","2069","1852","2069",""
"MA200-0416","27937","84","1","1.10","1.4","2023-05-25T16:54:01","120","2023/05/25","16:54:01","-15.795869410037994","35.00293383328244","0.1","16","30","64","32","-8616","-6156","-24688","14","150","150.09","116.63","33.47","27.34","39.7","12.42","90284","27.19","DUALSPOT-UV-BLUE-GREEN-RED-IR","783391","714052","904905","3.174110","0.935047","-0.000656","788043","906922","763068","1.012140","0.285011","0.000000","888837","912860","815583","0.654644","0.188385","0.000000","876454","931677","865168","0.440627","0.136000","0.000000","745695","863208","954625","0.250034","0.062706","0.000000","1479","1476","1475","2952","2872","2952","2858","2691","2858","2609","2787","2609","2090","1892","2090",""
"MA200-0416","27938","84","1","1.10","1.4","2023-05-25T16:54:31","120","2023/05/25","16:54:31","-15.795868337154388","35.002937332959846","0.0","16","30","64","32","-7960","-6044","-24796","14","150","149.85","116.13","33.72","27.30","39.7","12.40","90284","27.19","DUALSPOT-UV-BLUE-GREEN-RED-IR","787676","718118","910174","3.203583","0.943462","-0.007539","786605","905621","762086","1.063597","0.298749","0.000000","886994","911272","814235","0.699144","0.200634","0.000000","874083","929363","863099","0.473588","0.144875","0.000000","744383","861812","953142","0.268239","0.066926","0.000000","1490","1465","1455","3284","3020","3284","3181","3015","3181","2847","2640","2847","2189","1747","2189",""
"MA200-0416","27939","84","1","1.10","1.4","2023-05-25T16:55:01","120","2023/05/25","16:55:01","-15.795871555805206","35.00293999980204","0.0","16","30","64","32","-8804","-6168","-24852","14","150","150.49","116.76","33.73","27.28","39.7","12.38","90284","27.13","DUALSPOT-UV-BLUE-GREEN-RED-IR","784987","715802","907293","3.233614","0.950847","-0.082504","784300","903263","760201","1.113838","0.313655","0.000000","890076","914741","817432","0.743496","0.213700","0.000000","870595","925876","859965","0.505292","0.155329","0.000000","742265","859493","950604","0.285964","0.072306","0.000000","1510","1286","1192","3189","3276","3189","3153","3215","3153","2724","3109","2724","2120","2228","2120",""
"MA200-0416","27940","84","1","1.10","1.4","2023-05-25T16:55:31","120","2023/05/25","16:55:31","-15.795864045619965","35.00294499984011","0.0","16","30","64","32","-8532","-6440","-23844","14","150","149.93","116.77","33.15","27.24","39.7","12.36","90284","27.06","DUALSPOT-UV-BLUE-GREEN-RED-IR","785543","716503","908316","3.269503","0.963027","0.066344","789566","909648","765692","1.165169","0.326978","0.000000","889553","914495","817339","0.787795","0.225734","0.000000","871037","926614","860711","0.538623","0.164717","0.000000","742886","860329","951587","0.306089","0.077092","0.000000","1805","2157","2305","3258","2979","3258","3149","3013","3149","2863","2841","2863","2407","2016","2407",""
"MA200-0416","27941","84","1","1.10","1.4","2023-05-25T16:56:01","120","2023/05/25","16:56:01","-15.795857787132263","35.00294699985534","0.0","17","30","64","32","-8234","-6323","-23434","14","150","149.90","116.11","33.79","27.21","39.8","12.34","90288","27.00","DUALSPOT-UV-BLUE-GREEN-RED-IR","783256","714715","906144","3.327283","0.978185","-0.048705","787821","908003","764437","1.221502","0.342445","0.000000","888565","913770","816786","0.833720","0.238716","0.000000","875581","931663","865497","0.574451","0.175744","0.000000","741644","859023","950148","0.325941","0.081679","0.000000","2922","2635","2515","3596","3393","3596","3283","3189","3283","3095","3274","3095","2388","1896","2388",""
"MA200-0416","27942","84","1","1.10","1.4","2023-05-25T16:56:31","120","2023/05/25","16:56:31","-15.795869529247284","35.002948499750346","0.0","17","30","64","32","-8500","-6024","-23768","14","150","149.64","116.19","33.45","27.16","39.8","12.32","90288","26.94","DUALSPOT-UV-BLUE-GREEN-RED-IR","778132","711193","902310","3.536485","1.042169","0.022941","783772","903929","761168","1.305085","0.365066","0.000000","885959","911517","814928","0.895923","0.257039","0.000000","872670","928842","863004","0.619494","0.189107","0.000000","744746","862775","954400","0.351861","0.088537","0.000000","10575","11234","11509","5332","5012","5332","4444","4547","4444","3889","4007","3889","3116","2863","3116",""
"MA200-0416","27943","84","1","1.10","1.4","2023-05-25T16:57:01","120","2023/05/25","16:57:01","-15.795860052108765","35.002954999916255","0.0","17","30","64","32","-8424","-6344","-23612","14","150","150.14","116.59","33.56","27.12","39.9","12.30","90288","26.88","DUALSPOT-UV-BLUE-GREEN-RED-IR","784131","716844","909577","3.594439","1.058475","-0.009188","784420","904972","762158","1.354474","0.378643","0.000000","885342","911104","814639","0.937109","0.268059","0.000000","872008","928330","862604","0.650346","0.197965","0.000000","744539","862647","954304","0.369230","0.092796","0.000000","2919","2853","2826","3140","2999","3140","2932","2726","2932","2654","2647","2654","2081","1772","2081",""
"MA200-0416","27944","84","1","1.10","1.4","2023-05-25T16:57:31","120","2023/05/25","16:57:31","-15.795854389667511","35.002961666556075","0.0","17","30","64","32","-8484","-6200","-23968","14","150","149.63","116.15","33.48","27.09","40.0","12.31","90288","26.81","DUALSPOT-UV-BLUE-GREEN-RED-IR","782655","715930","908657","3.666637","1.079397","0.002022","787872","909372","765986","1.412618","0.395076","0.000000","884439","910501","814202","0.984466","0.281321","0.000000","870352","926768","861249","0.685018","0.208574","0.000000","743676","861795","953389","0.387996","0.097821","0.000000","3650","3670","3678","3711","3638","3711","3385","3288","3385","2994","3179","2994","2257","2096","2257",""
"MA200-0416","27945","84","1","1.10","1.4","2023-05-25T16:58:01","120","2023/05/25","16:58:01","-15.795857012271881","35.00296049984172","0.0","17","30","64","32","-8494","-6161","-24416","14","150","149.90","116.15","33.75","27.06","40.0","12.29","90292","26.81","DUALSPOT-UV-BLUE-GREEN-RED-IR","780785","714571","907103","3.742195","1.102350","0.016216","786459","908131","765031","1.470196","0.410596","0.000000","883309","909650","813543","1.029527","0.293385","0.000000","875427","932430","866600","0.721776","0.220799","0.000000","743065","861154","952760","0.407037","0.103993","0.000000","3820","3995","4067","3674","3409","3674","3220","2967","3220","3175","3634","3175","2290","2555","2290",""
"MA200-0416","27946","84","1","1.10","1.4","2023-05-25T16:58:31","120","2023/05/25","16:58:31","-15.795858263969421","35.00295533309691","0.0","17","30","64","31","-8519","-6136","-24161","14","150","149.53","116.09","33.44","27.02","40.1","12.30","90300","26.81","DUALSPOT-UV-BLUE-GREEN-RED-IR","778031","712544","904782","3.810105","1.118709","-0.079196","783886","905600","763063","1.530600","0.426340","0.000000","886350","913172","816817","1.082528","0.308245","0.000000","871785","928830","863363","0.759518","0.230801","0.000000","741204","859178","950622","0.430410","0.108965","0.000000","3436","2873","2639","3857","3490","3857","3790","3689","3790","3261","3000","3261","2812","2077","2812",""
"MA200-0416","27947","84","1","1.10","1.4","2023-05-25T16:59:01","120","2023/05/25","16:59:01","-15.795847535133362","35.00295166647993","0.0","17","30","64","32","-8556","-6040","-24540","14","150","150.49","116.39","34.10","26.99","40.2","12.31","90292","26.69","DUALSPOT-UV-BLUE-GREEN-RED-IR","778524","713332","905945","3.902833","1.144578","-0.018615","784117","906315","763816","1.606500","0.446407","0.000000","886368","913560","817307","1.144170","0.325036","0.000000","872618","930021","864581","0.806307","0.243282","0.000000","741712","859982","951554","0.459550","0.115323","0.000000","4679","4455","4362","4834","4362","4834","4397","4087","4397","4033","3671","4033","3497","2604","3497",""
"MA200-0416","27948","84","1","1.10","1.4","2023-05-25T16:59:31","120","2023/05/25","16:59:31","-15.795855522155762","35.00296099972911","0.0","17","30","64","32","-8544","-6048","-23872","14","150","149.33","116.79","32.54","26.95","40.3","12.31","90300","26.69","DUALSPOT-UV-BLUE-GREEN-RED-IR","776829","712211","904712","3.979305","1.165277","-0.010593","782914","905476","763242","1.681238","0.466703","0.000000","885054","912660","816640","1.208890","0.342440","0.000000","871325","929006","863728","0.858235","0.258380","0.000000","741314","859712","951362","0.493602","0.124806","0.000000","3845","3735","3690","4744","4623","4744","4600","4440","4600","4460","4654","4460","4072","4070","4072",""
"MA200-0416","27949","84","1","1.10","1.4","2023-05-25T17:00:01","120","2023/05/25","17:00:01","-15.79585200548172","35.00296933273785","0.0","17","30","64","31","-8672","-6184","-24656","14","150","149.80","116.63","33.17","26.92","40.3","12.30","90300","26.69","DUALSPOT-UV-BLUE-GREEN-RED-IR","778762","714398","907727","4.062214","1.188446","-0.006210","779815","902378","760824","1.762497","0.487409","0.000000","882882","910908","815214","1.277560","0.359231","0.000000","867619","925449","860552","0.914144","0.272834","0.000000","743796","862825","954889","0.526821","0.131641","0.000000","4175","4102","4072","5165","4627","5165","4888","4202","4888","4809","4372","4809","3978","2878","3978",""
"MA200-0416","27950","84","1","1.10","1.4","2023-05-25T17:00:31","120","2023/05/25","17:00:31","-15.795858263969421","35.002970999572426","0.0","17","30","64","32","-8628","-6196","-23916","14","150","149.63","116.15","33.48","26.90","40.4","12.30","90300","26.63","DUALSPOT-UV-BLUE-GREEN-RED-IR","779264","715350","909102","4.148669","1.211231","-0.033209","779938","903199","761671","1.853800","0.510494","0.000000","882473","911028","815504","1.358140","0.381797","0.000000","868456","926798","861954","0.977164","0.289499","0.000000","744361","863749","955981","0.567453","0.141377","0.000000","4371","3997","3842","5827","5111","5827","5759","5595","5759","5443","4993","5443","4886","4062","4886",""
"MA200-0416","27951","84","1","1.10","1.4","2023-05-25T17:01:01","120","2023/05/25","17:01:01","-15.795860230922699","35.002961833262816","0.0","17","30","64","32","-8248","-5980","-24696","14","150","149.70","116.55","33.15","26.86","40.5","12.30","90300","26.63","DUALSPOT-UV-BLUE-GREEN-RED-IR","777780","714349","908046","4.225997","1.231699","-0.025704","783456","907766","765660","1.936221","0.532459","0.000000","881951","910930","815557","1.427525","0.397664","0.000000","866836","925388","860789","1.032793","0.304359","0.000000","744008","863589","955904","0.601587","0.149610","0.000000","3897","3626","3515","5242","4911","5242","4942","3973","4942","4788","4497","4788","4091","3469","4091",""
"MA200-0416","27952","84","1","1.10","1.4","2023-05-25T17:01:31","120","2023/05/25","17:01:31","-15.795855224132538","35.002952832961455","0.0","17","30","64","31","-8352","-6280","-23768","14","150","150.28","116.67","33.61","26.83","40.6","12.31","90296","26.56","DUALSPOT-UV-BLUE-GREEN-RED-IR","776432","713489","907103","4.297956","1.251247","-0.020397","777298","901130","760208","2.010739","0.550394","0.000000","880343","909721","814604","1.492160","0.415700","0.000000","872345","931639","866701","1.084679","0.318348","0.000000","743235","862895","955202","0.634319","0.156578","0.000000","3622","3415","3330","4734","3955","4734","4599","4454","4599","4461","4175","4461","3919","2895","3919",""
"MA200-0416","27953","84","1","1.10","1.4","2023-05-25T17:02:01","120","2023/05/25","17:02:01","-15.795851051807404","35.00294449971989","0.0","17","30","64","31","-8704","-6204","-24560","14","150","150.17","116.86","33.32","26.80","40.6","12.30","90296","26.56","DUALSPOT-UV-BLUE-GREEN-RED-IR","774448","711971","905311","4.357647","1.267587","-0.013694","780638","905417","763963","2.073813","0.568676","0.000000","879941","909631","814640","1.546419","0.430393","0.000000","871647","931156","866382","1.128333","0.331193","0.000000","742868","862612","954944","0.659566","0.163358","0.000000","3000","2880","2831","4001","4067","4001","3854","3660","3854","3748","3867","3748","3018","2842","3018",""
"MA200-0416","27954","84","1","1.10","1.4","2023-05-25T17:02:31","120","2023/05/25","17:02:31","-15.795853674411774","35.00293766637333","0.0","17","30","64","31","-8120","-5892","-24852","14","150","150.40","116.24","34.16","26.77","40.7","12.29","90296","26.56","DUALSPOT-UV-BLUE-GREEN-RED-IR","773746","711586","904948","4.409412","1.283275","0.009621","779740","904753","763537","2.131432","0.584899","0.000000","879138","909101","814278","1.594305","0.443869","0.000000","870762","930409","865801","1.164460","0.342351","0.000000","742533","862373","954728","0.680913","0.169060","0.000000","2615","2697","2731","3674","3521","3674","3420","3275","3420","3117","3277","3117","2565","2332","2565",""
"MA200-0416","27955","84","1","1.10","1.4","2023-05-25T17:03:01","120","2023/05/25","17:03:01","-15.795857667922974","35.002945999847725","0.0","17","30","64","31","-8396","-6257","-24069","14","150","149.33","116.98","32.34","26.75","40.8","12.31","90296","26.50","DUALSPOT-UV-BLUE-GREEN-RED-IR","778495","716253","911047","4.466434","1.299045","0.000119","778627","903868","762905","2.192479","0.601005","0.000000","882830","913289","818138","1.647127","0.458037","0.000000","868575","928375","863966","1.205748","0.353312","0.000000","741685","861557","953886","0.707553","0.175580","0.000000","2862","2864","2864","3868","3691","3868","3748","3637","3748","3540","3400","3540","3181","2816","3181",""
"MA200-0416","27956","84","1","1.10","1.4","2023-05-25T17:03:31","120","2023/05/25","17:03:31","-15.795859396457672","35.00295199966058","0.0","17","30","64","31","-8644","-6340","-23780","14","150","150.63","116.71","33.92","26.70","40.8","12.28","90300","26.50","DUALSPOT-UV-BLUE-GREEN-RED-IR","777466","715641","910402","4.525598","1.313678","-0.058704","777513","903002","762292","2.252918","0.616537","0.000000","877543","908197","813691","1.698649","0.472593","0.000000","867935","928015","863743","1.246017","0.364893","0.000000","741337","861316","953685","0.729311","0.180662","0.000000","2977","2533","2352","3839","3394","3839","3665","3562","3665","3461","3425","3461","2604","2092","2604",""
"MA200-0416","27957","84","1","1.10","1.4","2023-05-25T17:04:01","120","2023/05/25","17:04:01","-15.795862376689911","35.00295549980365","0.0","17","30","64","31","-8916","-6364","-24516","14","150","150.06","116.58","33.49","26.68","40.9","12.29","90296","26.44","DUALSPOT-UV-BLUE-GREEN-RED-IR","775714","714328","908886","4.587898","1.330936","-0.011537","776523","902217","761780","2.317500","0.634067","0.000000","880742","911827","817079","1.754736","0.487357","0.000000","865721","925939","861938","1.289957","0.376284","0.000000","740102","860058","952337","0.757793","0.186429","0.000000","3138","3026","2981","4106","3880","4106","3994","3660","3994","3781","3412","3781","3413","2406","3413",""
"MA200-0416","27958","84","1","1.10","1.4","2023-05-25T17:04:31","120","2023/05/25","17:04:31","-15.795854687690735","35.00295116659254","0.0","17","30","64","31","-8628","-5984","-24244","14","150","149.50","116.35","33.14","26.65","41.0","12.30","90296","26.44","DUALSPOT-UV-BLUE-GREEN-RED-IR","772385","711553","905523","4.648013","1.348470","0.007019","778623","905112","764320","2.377582","0.649915","0.000000","878106","909419","815043","1.805437","0.501256","0.000000","862218","922427","858723","1.329147","0.388371","0.000000","738149","857939","950005","0.781843","0.192398","0.000000","3034","3107","3136","3828","3544","3828","3617","3481","3617","3379","3658","3379","2887","2515","2887",""
"MA200-0416","27959","84","1","1.10","1.4","2023-05-25T17:05:01","120","2023/05/25","17:05:01","-15.795855522155762","35.00295083317906","0.0","17","30","64","31","-8656","-6060","-24444","14","150","150.22","116.19","34.03","26.62","41.0","12.30","90296","26.38","DUALSPOT-UV-BLUE-GREEN-RED-IR","772439","711915","906096","4.705441","1.361576","-0.095802","778427","905226","764544","2.434462","0.665275","0.000000","878390","910084","815712","1.854085","0.514525","0.000000","869302","930249","866128","1.367652","0.399386","0.000000","738492","858478","950666","0.804355","0.197229","0.000000","2903","2262","2001","3629","3346","3629","3476","3237","3476","3324","3247","3324","2706","1983","2706",""
"MA200-0416","27960","84","1","1.10","1.4","2023-05-25T17:05:31","120","2023/05/25","17:05:31","-15.795851051807404","35.00295333308168","0.0","17","30","64","31","-8368","-6028","-24400","14","150","149.73","116.67","33.06","26.60","41.1","12.29","90292","26.31","DUALSPOT-UV-BLUE-GREEN-RED-IR","771029","710934","905003","4.765556","1.378721","0.001901","777358","904403","763973","2.492684","0.680357","0.000000","877459","909420","815231","1.902407","0.526410","0.000000","867768","928856","864898","1.405030","0.409084","0.000000","737988","857996","950223","0.825691","0.203445","0.000000","3026","3046","3054","3699","3381","3699","3438","2984","3438","3214","2942","3214","2554","2626","2554",""
"MA200-0416","27961","84","1","1.10","1.4","2023-05-25T17:06:01","120","2023/05/25","17:06:01","-15.795847713947296","35.00294983293861","0.0","17","30","64","31","-8468","-6711","-23420","14","150","149.53","116.50","33.02","26.55","41.2","12.28","90296","26.31","DUALSPOT-UV-BLUE-GREEN-RED-IR","775687","715564","911053","4.827518","1.396053","-0.003914","776022","903251","763136","2.554190","0.696973","0.000000","876039","908300","814346","1.954091","0.541335","0.000000","866400","927676","863923","1.447492","0.421852","0.000000","741794","862613","955385","0.851154","0.210310","0.000000","3123","3082","3065","3913","3730","3913","3683","3752","3683","3656","3878","3656","3053","2904","3053",""
"MA200-0416","27962","84","1","1.10","1.4","2023-05-25T17:06:31","120","2023/05/25","17:06:31","-15.795846998691559","35.002950000111014","0.0","17","30","64","31","-8452","-6072","-24788","14","150","149.83","116.35","33.48","26.53","41.2","12.28","90292","26.25","DUALSPOT-UV-BLUE-GREEN-RED-IR","773601","714054","909356","4.909576","1.418537","-0.014693","774167","901585","761871","2.632272","0.716964","0.000000","879912","912813","818526","2.023256","0.557857","0.000000","865555","927156","863550","1.500499","0.435292","0.000000","741256","862213","955031","0.885271","0.217588","0.000000","4142","3944","3863","4975","4426","4975","4935","4097","4935","4570","4027","4570","4096","3036","4096",""
"MA200-0416","27963","84","1","1.10","1.4","2023-05-25T17:07:01","120","2023/05/25","17:07:01","-15.795850396156311","35.00294733326882","0.0","17","30","64","31","-8488","-6208","-24044","14","150","149.46","116.29","33.17","26.49","41.3","12.27","90292","26.19","DUALSPOT-UV-BLUE-GREEN-RED-IR","772543","713396","908648","4.971161","1.434476","-0.030074","772860","900449","761024","2.692467","0.733076","0.000000","878848","912027","817937","2.073121","0.572008","0.000000","864225","925964","862541","1.539480","0.445765","0.000000","740717","861771","954556","0.909494","0.223342","0.000000","3110","2822","2705","3837","3600","3837","3559","3541","3559","3362","3167","3362","2909","2423","2909",""
"MA200-0416","27964","84","1","1.10","1.4","2023-05-25T17:07:31","120","2023/05/25","17:07:31","-15.795843362808228","35.00295199966058","0.0","17","30","64","31","-8424","-6016","-24752","14","150","149.73","116.79","32.94","26.45","41.4","12.25","90288","26.19","DUALSPOT-UV-BLUE-GREEN-RED-IR","770323","711650","906589","5.027328","1.451223","0.014826","776370","904913","764943","2.747727","0.748931","0.000000","877629","911025","817167","2.119792","0.586401","0.000000","862283","924141","860928","1.577270","0.458079","0.000000","739893","860929","953704","0.931283","0.228877","0.000000","2824","2986","3052","3507","3568","3507","3317","3628","3317","3246","3751","3246","2606","2347","2606",""
"MA200-0416","27965","84","1","1.10","1.4","2023-05-25T17:08:01","120","2023/05/25","17:08:01","-15.79584276676178","35.00295816641301","0.0","17","30","64","31","-8432","-6052","-24544","14","150","150.08","116.50","33.57","26.42","41.5","12.28","90292","26.13","DUALSPOT-UV-BLUE-GREEN-RED-IR","767271","709159","903571","5.092342","1.468887","-0.017166","774154","902750","763201","2.807993","0.764381","0.000000","875622","909321","815747","2.172286","0.599109","0.000000","865076","927416","864088","1.619178","0.468945","0.000000","737614","858460","951002","0.956684","0.233907","0.000000","3277","3090","3014","3834","3411","3834","3740","3142","3740","3608","3246","3608","3045","2093","3045",""
"MA200-0416","27966","84","1","1.10","1.4","2023-05-25T17:08:31","120","2023/05/25","17:08:31","-15.795844078063965","35.00296483305283","0.0","17","30","64","31","-8380","-6048","-24432","14","150","149.87","116.67","33.20","26.38","41.5","12.26","90292","26.13","DUALSPOT-UV-BLUE-GREEN-RED-IR","768297","710450","905371","5.158449","1.486341","-0.021861","774574","903619","764102","2.871436","0.780647","0.000000","875781","909841","816320","2.226621","0.613414","0.000000","866127","928862","865495","1.660430","0.479161","0.000000","738470","859604","952371","0.980567","0.240325","0.000000","3328","3088","2990","4031","3632","4031","3866","3577","3866","3547","3087","3547","2859","2700","2859",""
"MA200-0416","27967","84","1","1.10","1.4","2023-05-25T17:09:01","120","2023/05/25","17:09:01","-15.79583328962326","35.00296299974434","0.0","17","30","64","31","-8546","-6138","-24242","14","150","150.28","116.96","33.32","26.36","41.6","12.28","90292","26.13","DUALSPOT-UV-BLUE-GREEN-RED-IR","767362","709928","904892","5.226146","1.505254","-0.005362","773369","902687","763384","2.933550","0.797700","0.000000","875484","909885","816481","2.277660","0.627428","0.000000","865385","928291","865083","1.702773","0.493353","0.000000","738587","859916","952744","1.006750","0.246944","0.000000","3399","3333","3307","3936","3793","3936","3622","3491","3622","3632","4272","3632","3127","2774","3127",""
"MA200-0416","27968","84","1","1.10","1.4","2023-05-25T17:09:31","120","2023/05/25","17:09:31","-15.79583191871643","35.00296199996956","0.0","17","30","64","31","-8548","-6280","-24256","14","150","150.43","116.79","33.64","26.33","41.7","12.27","90292","26.06","DUALSPOT-UV-BLUE-GREEN-RED-IR","771008","713659","909800","5.293316","1.525087","0.006430","772124","901623","762640","2.996999","0.815181","0.000000","874287","908968","815787","2.331233","0.643264","0.000000","864288","927384","864374","1.744782","0.505501","0.000000","737757","859093","951913","1.032262","0.253376","0.000000","3378","3462","3497","4027","3852","4027","3808","3908","3808","3608","3622","3608","3051","2670","3051",""
"MA200-0416","27969","84","1","1.10","1.4","2023-05-25T17:10:01","120","2023/05/25","17:10:01","-15.795829355716705","35.002957499818876","0.0","17","30","64","31","-8333","-6091","-24525","14","150","150.22","116.79","33.43","26.30","41.8","12.27","90296","26.06","DUALSPOT-UV-BLUE-GREEN-RED-IR","767753","710979","906569","5.363710","1.544904","-0.004398","769478","898919","760498","3.060037","0.834005","0.018359","872050","906976","814118","2.384537","0.658822","0.000000","861480","924624","861943","1.787232","0.518507","0.000000","735986","857208","949874","1.058908","0.260956","0.000000","3540","3482","3458","4001","4174","4239","3789","3863","3789","3646","3903","3646","3187","3168","3187",""
"MA200-0416","27970","84","1","1.10","1.4","2023-05-25T17:10:31","120","2023/05/25","17:10:31","-15.795831084251404","35.00296099972911","0.0","17","30","64","31","-8424","-6140","-24320","14","150","149.50","116.57","32.93","26.26","41.9","12.28","90288","26.00","DUALSPOT-UV-BLUE-GREEN-RED-IR","770301","713688","910201","5.431181","1.564395","0.005710","770843","900941","762331","3.123689","0.851499","-0.012307","872451","907749","814937","2.438211","0.673866","0.000000","861391","924864","862255","1.828924","0.529462","0.000000","741038","863262","956653","1.084676","0.267761","0.000000","3399","3477","3508","4047","3938","3898","3822","3793","3822","3588","3338","3588","3087","2886","3087",""
"MA200-0416","27971","84","1","1.10","1.4","2023-05-25T17:11:01","120","2023/05/25","17:11:01","-15.795830309391022","35.00296433316544","0.0","17","30","64","31","-8556","-6340","-24180","14","150","149.53","116.84","32.69","26.24","41.9","12.28","90292","26.00","DUALSPOT-UV-BLUE-GREEN-RED-IR","768309","712197","908500","5.500023","1.582288","-0.020150","773972","904969","765881","3.183639","0.867616","-0.017868","871729","907349","814697","2.490217","0.687271","0.000000","861223","924946","862389","1.868747","0.540977","0.000000","736162","857739","950584","1.108381","0.272568","0.000000","3460","3214","3115","3803","3654","3599","3695","3404","3695","3419","3534","3419","2834","2054","2834",""
"MA200-0416","27972","84","1","1.10","1.4","2023-05-25T17:11:31","120","2023/05/25","17:11:31","-15.795833587646484","35.00296516646631","0.0","17","30","64","31","-8557","-6007","-24357","14","150","149.63","117.18","32.45","26.21","42.0","12.27","90292","25.94","DUALSPOT-UV-BLUE-GREEN-RED-IR","765401","709960","905848","5.585554","1.607303","0.013099","772219","903390","764676","3.250533","0.885890","-0.005779","870092","905988","813578","2.546119","0.703620","0.000000","859409","923267","860968","1.914282","0.554323","0.000000","735635","857264","950132","1.133670","0.279359","0.000000","4287","4528","4625","4231","4175","4153","3960","4183","3960","3898","4126","3898","3014","2923","3014",""
"MA200-0416","27973","84","1","1.10","1.4","2023-05-25T17:12:01","120","2023/05/25","17:12:01","-15.795832931995392","35.00296666636132","0.0","17","30","64","30","-8564","-6196","-24212","14","150","150.40","117.17","33.23","26.18","42.0","12.25","90292","25.94","DUALSPOT-UV-BLUE-GREEN-RED-IR","763876","708885","904656","5.656410","1.628889","0.016708","770269","901516","763232","3.310418","0.902420","-0.011477","872950","909317","816732","2.595853","0.718206","0.000000","861548","925813","863432","1.952240","0.566613","0.000000","738056","860273","953494","1.157354","0.285914","0.000000","3551","3815","3922","3788","3687","3650","3523","3644","3523","3250","3711","3250","2823","2755","2823",""
"MA200-0416","27974","84","1","1.10","1.4","2023-05-25T17:12:31","120","2023/05/25","17:12:31","-15.795836389064789","35.002966499654576","0.0","17","30","64","31","-8560","-6040","-24292","14","150","149.46","116.63","32.84","26.15","42.1","12.25","90292","25.88","DUALSPOT-UV-BLUE-GREEN-RED-IR","763841","709251","905361","5.737840","1.652151","0.003512","770450","902160","763948","3.380793","0.923275","0.019941","873610","910340","817784","2.653336","0.734925","0.000000","863594","928349","865883","1.997705","0.578975","0.000000","738979","861485","954937","1.186449","0.294317","0.000000","4101","4161","4185","4473","4708","4796","4092","4227","4092","3911","3777","3911","3484","3574","3484",""
"MA200-0416","27975","84","1","1.10","1.4","2023-05-25T17:13:01","120","2023/05/25","17:13:01","-15.795836687088013","35.0029768331442","0.0","17","30","64","31","-8216","-6024","-24452","14","150","149.96","117.18","32.78","26.11","42.1","12.25","90288","25.81","DUALSPOT-UV-BLUE-GREEN-RED-IR","768171","713704","911210","5.819435","1.674175","-0.008885","769501","901484","763513","3.450394","0.941848","-0.019555","871985","909045","816760","2.711290","0.750285","0.000000","861189","926051","863874","2.045200","0.592756","0.000000","737827","860374","953763","1.214298","0.301201","0.000000","4089","3946","3888","4403","4200","4124","4105","3890","4105","4066","4217","4066","3319","2934","3319",""
"MA200-0416","27976","84","1","1.10","1.4","2023-05-25T17:13:31","120","2023/05/25","17:13:31","-15.795836567878723","35.00298316613771","0.0","17","30","64","31","-8332","-6120","-24564","14","150","149.83","116.95","32.88","26.09","42.2","12.26","90288","25.81","DUALSPOT-UV-BLUE-GREEN-RED-IR","765639","711883","909145","5.913904","1.700460","-0.002533","767607","899855","762276","3.529286","0.961469","-0.053499","870920","908420","816300","2.779639","0.768303","0.000000","859564","924684","862717","2.098317","0.606841","0.000000","737045","859671","953061","1.247867","0.307823","0.000000","4744","4694","4674","5001","4423","4206","4852","4549","4852","4556","4297","4556","4009","2812","4009",""
"MA200-0416","27977","84","1","1.10","1.4","2023-05-25T17:14:01","120","2023/05/25","17:14:01","-15.79583078622818","35.002970832865685","0.0","17","30","64","31","-8460","-6096","-24448","14","150","149.73","116.34","33.39","26.06","42.3","12.25","90296","25.81","DUALSPOT-UV-BLUE-GREEN-RED-IR","764000","710909","908204","6.022430","1.731704","0.000686","766273","898839","761644","3.617454","0.986705","-0.001086","869428","907327","815490","2.850545","0.788294","0.000000","858176","923539","861830","2.155005","0.623303","0.000000","736335","859081","952498","1.284513","0.318092","0.000000","5479","5495","5502","5618","5602","5596","5060","4970","5060","4888","4946","4888","4400","4295","4400",""
"MA200-0416","27978","84","1","1.10","1.4","2023-05-25T17:14:31","120","2023/05/25","17:14:31","-15.7958202958107","35.002977166324854","0.0","17","30","64","30","-8444","-6064","-24632","14","150","150.04","116.96","33.08","26.03","42.4","12.24","90296","25.75","DUALSPOT-UV-BLUE-GREEN-RED-IR","762499","710104","907457","6.139272","1.765060","0.002091","764570","897427","760614","3.707397","1.010620","-0.024252","868304","906687","815074","2.928299","0.807905","0.000000","857212","922934","861411","2.217438","0.640219","0.000000","736003","858952","952450","1.325410","0.327224","0.000000","5867","5922","5944","5701","5359","5230","5519","4921","5519","5355","5130","5355","4884","3856","4884",""
"MA200-0416","27979","84","1","1.10","1.4","2023-05-25T17:15:01","120","2023/05/25","17:15:01","-15.795824885368347","35.00297366618179","0.0","17","30","64","31","-8400","-5980","-23688","14","150","150.16","116.79","33.37","26.01","42.4","12.25","90296","25.75","DUALSPOT-UV-BLUE-GREEN-RED-IR","760767","708933","906220","6.233120","1.792211","0.002740","768500","902562","765114","3.787780","1.032983","-0.009964","867613","906368","814921","2.994692","0.827151","0.000000","855503","921425","860129","2.270526","0.655228","0.000000","735324","858387","951901","1.360235","0.337258","0.000000","4719","4778","4801","5102","4967","4916","4719","4787","4719","4560","4511","4560","4165","4199","4165",""
"MA200-0416","27980","84","1","1.10","1.4","2023-05-25T17:15:31","120","2023/05/25","17:15:31","-15.79583328962326","35.0029538332019","0.0","17","30","64","30","-8620","-6268","-24232","14","150","149.09","115.75","33.33","25.97","42.5","12.24","90300","25.69","DUALSPOT-UV-BLUE-GREEN-RED-IR","757198","706080","902801","6.327184","1.818376","-0.007945","765568","899628","762788","3.866261","1.054430","-0.019548","865182","904277","813211","3.061890","0.845896","-0.014783","858432","924962","863541","2.322683","0.668966","0.000000","733472","856442","949835","1.393169","0.344581","0.000000","4773","4610","4544","5026","4769","4673","4819","4668","4611","4520","4134","4520","3974","3068","3974",""
"MA200-0416","27981","84","1","1.10","1.4","2023-05-25T17:16:01","120","2023/05/25","17:16:01","-15.79584002494812","35.00296299974434","0.0","17","30","64","31","-8421","-5997","-24483","14","150","150.09","116.39","33.71","25.94","42.5","12.23","90304","25.69","DUALSPOT-UV-BLUE-GREEN-RED-IR","763130","712023","910618","6.413357","1.843099","-0.002064","765534","900067","763299","3.940201","1.075290","-0.009332","865168","904645","813695","3.122949","0.861727","-0.054139","860083","927016","865569","2.373152","0.684142","0.000000","734101","857363","950920","1.424154","0.353665","0.000000","4348","4308","4291","4709","4588","4542","4355","3899","3725","4350","4517","4350","3718","3764","3718",""
"MA200-0416","27982","84","1","1.10","1.4","2023-05-25T17:16:31","120","2023/05/25","17:16:31","-15.795852541923523","35.00295883323997","0.1","17","30","64","30","-8492","-5964","-23976","14","150","149.63","117.26","32.37","25.91","42.6","12.21","90308","25.63","DUALSPOT-UV-BLUE-GREEN-RED-IR","762202","711574","910216","6.488502","1.864173","0.003384","764519","899270","762752","4.003554","1.092414","-0.007347","869232","909245","817966","3.176076","0.877666","0.033758","857928","925007","863772","2.414657","0.695306","0.000000","733087","856329","949843","1.449928","0.359323","0.000000","3763","3824","3848","4005","3921","3890","3761","4088","4213","3551","3460","3551","3070","2441","3070",""
"MA200-0416","27983","84","1","1.10","1.4","2023-05-25T17:17:01","120","2023/05/25","17:17:01","-15.795830309391022","35.0029669997748","0.0","17","30","64","30","-8396","-6100","-24248","14","150","149.32","116.89","32.42","25.87","42.6","12.19","0","0.00","DUALSPOT-UV-BLUE-GREEN-RED-IR","761637","711429","910303","6.568149","1.890495","0.032261","763637","898636","762357","4.065233","1.111494","0.033675","868329","908623","817526","3.228807","0.894660","0.056660","857013","924277","863236","2.455855","0.709218","0.000000","737261","861339","955451","1.473993","0.366688","0.000000","4002","4768","5078","3911","4362","4532","3745","4351","4583","3535","4304","3535","2875","3173","2875",""
"MA200-0416","27984","84","1","1.10","1.4","2023-05-25T17:17:31","120","2023/05/25","17:17:31","-15.795805811882019","35.0029356663581","0.0","17","30","64","30","-8526","-6207","-24138","14","150","149.43","116.70","32.73","25.83","42.7","12.18","0","0.00","DUALSPOT-UV-BLUE-GREEN-RED-IR","758908","709277","907753","6.646671","1.912643","0.001222","762195","897333","761416","4.129821","1.129978","0.006657","867111","907719","816814","3.282666","0.908851","-0.027752","855939","923420","862519","2.498259","0.721758","0.000000","736459","860577","954664","1.499452","0.372442","0.000000","3951","3974","3984","4102","4187","4218","3831","3600","3511","3645","3844","3645","3047","2455","3047",""
"MA200-0416","27985","84","1","1.10","1.4","2023-05-25T17:18:01","120","2023/05/25","17:18:01","-15.79580694437027","35.002945999847725","0.1","17","30","64","30","-8576","-5968","-24120","14","150","150.36","116.55","33.81","25.81","42.7","12.19","90312","25.56","DUALSPOT-UV-BLUE-GREEN-RED-IR","757664","708457","906858","6.717643","1.933439","0.002056","765727","901863","765388","4.186690","1.147590","0.020322","866187","907046","816318","3.328759","0.922471","0.007488","855026","922632","861896","2.536150","0.733810","0.000000","735925","860143","954224","1.522436","0.378803","0.000000","3576","3612","3626","3617","3861","3953","3283","3343","3367","3261","3575","3261","2754","2627","2754",""
"MA200-0416","27986","84","1","1.10","1.4","2023-05-25T17:18:31","120","2023/05/25","17:18:31","-15.795797646045685","35.0029689995572","0.1","17","30","64","30","-8496","-6148","-24204","14","150","149.73","116.79","32.94","25.79","42.8","12.20","90312","25.50","DUALSPOT-UV-BLUE-GREEN-RED-IR","756790","708055","906558","6.797827","1.956361","0.002788","765025","901448","765142","4.248053","1.163541","-0.028410","865812","906976","816380","3.380019","0.936328","-0.017935","853272","920998","860494","2.574742","0.744497","0.000000","735156","859358","953461","1.545858","0.384924","0.000000","4032","4087","4110","3894","3590","3475","3643","3493","3435","3315","3255","3315","2801","2596","2801",""
"MA200-0416","27987","84","1","1.10","1.4","2023-05-25T17:19:01","120","2023/05/25","17:19:01","-15.795795321464539","35.00296816625632","0.1","17","30","64","30","-8353","-5973","-24515","14","150","149.90","117.06","32.83","25.76","42.9","12.19","90316","25.50","DUALSPOT-UV-BLUE-GREEN-RED-IR","755286","707123","905642","6.884218","1.981655","0.008439","764109","900813","764767","4.312415","1.180219","-0.027124","864400","905845","815499","3.432625","0.951194","0.003024","851962","919881","859518","2.616571","0.756639","0.000000","734819","859099","953204","1.570144","0.390904","0.000000","4334","4525","4601","4075","3765","3649","3730","3759","3770","3584","3710","3584","2898","2544","2898",""
"MA200-0416","27988","84","1","1.10","1.4","2023-05-25T17:19:31","120","2023/05/25","17:19:31","-15.795803308486938","35.00296049984172","0.1","17","30","64","30","-8612","-6044","-24640","14","150","150.30","116.86","33.45","25.73","43.0","12.20","90316","25.50","DUALSPOT-UV-BLUE-GREEN-RED-IR","753618","706373","905098","7.047069","2.028745","0.002021","762606","899538","763862","4.395096","1.203697","-0.002507","864111","905947","815690","3.492391","0.966840","-0.038316","851902","920131","859848","2.661521","0.768017","0.000000","734812","859335","953555","1.600240","0.397663","0.000000","8185","8269","8303","5245","5203","5188","4246","3883","3745","3859","3413","3859","3597","2822","3597",""
"MA200-0416","27989","84","1","1.10","1.4","2023-05-25T17:20:01","120","2023/05/25","17:20:01","-15.795838356018066","35.00297133275308","0.1","17","30","64","30","-8323","-6061","-23496","14","150","149.86","117.20","32.66","25.71","43.0","12.20","90316","25.44","DUALSPOT-UV-BLUE-GREEN-RED-IR","752565","705829","904612","7.142563","2.056795","0.009870","762346","899659","764095","4.463949","1.223861","0.014673","863296","905460","815425","3.549671","0.984340","0.033120","856896","925781","865286","2.706480","0.782949","0.000000","733952","858487","952658","1.626726","0.404462","0.000000","4785","5044","5148","4355","4576","4660","4057","4448","4598","3848","4586","3848","3156","2908","3156",""
"MA200-0416","27990","84","1","1.10","1.4","2023-05-25T17:20:31","120","2023/05/25","17:20:31","-15.795856177806854","35.0029746661894","0.1","17","30","64","30","-8388","-6052","-24492","14","150","149.73","116.70","33.03","25.68","43.1","12.20","90312","25.44","DUALSPOT-UV-BLUE-GREEN-RED-IR","752716","706403","905612","7.232511","2.084713","0.016533","762240","900042","764569","4.534010","1.242803","-0.014476","862860","905393","815480","3.607935","0.999778","-0.026817","857044","926236","865810","2.752458","0.795585","0.000000","733771","858441","952724","1.656562","0.412823","0.000000","4527","4964","5141","4450","4251","4176","4144","3880","3779","3952","3838","3952","3571","3536","3571",""
"MA200-0416","27991","84","1","1.10","1.4","2023-05-25T17:21:01","120","2023/05/25","17:21:01","-15.79587334394455","35.002970832865685","0.1","17","30","64","30","-8312","-6252","-24180","14","150","150.23","116.94","33.30","25.65","43.2","12.20","90316","25.44","DUALSPOT-UV-BLUE-GREEN-RED-IR","749919","704260","903115","7.327736","2.112131","0.002103","760446","898352","763298","4.604395","1.261781","-0.017147","866219","909331","819145","3.667432","1.016532","-0.004258","854852","924200","864031","2.798603","0.807577","0.000000","733153","857913","952176","1.684766","0.420033","0.000000","4783","4836","4857","4462","4225","4135","4224","4177","4159","3959","3613","3959","3369","3024","3369",""
"MA200-0416","27992","84","1","1.10","1.4","2023-05-25T17:21:31","120","2023/05/25","17:21:31","-15.795857667922974","35.002979832934216","0.0","17","30","64","30","-8361","-6069","-24488","14","150","150.23","116.79","33.44","25.64","43.2","12.21","90316","25.38","DUALSPOT-UV-BLUE-GREEN-RED-IR","755029","709540","910112","7.419603","2.138031","-0.002983","759673","897899","763056","4.676039","1.281976","-0.004689","865426","908861","818871","3.725910","1.031637","-0.042055","854218","923836","863770","2.845310","0.821155","0.000000","732855","857740","952040","1.713583","0.426834","0.000000","4620","4549","4520","4547","4476","4450","4157","3749","3594","4012","4073","4012","3446","2840","3446",""
"MA200-0416","27993","84","1","1.10","1.4","2023-05-25T17:22:01","120","2023/05/25","17:22:01","-15.795847535133362","35.002981999423355","0.0","17","30","64","30","-8620","-6036","-23952","14","150","149.90","117.10","32.79","25.61","43.3","12.19","90320","25.38","DUALSPOT-UV-BLUE-GREEN-RED-IR","751665","706736","906771","7.500511","2.163049","0.017041","756414","894418","760227","4.740018","1.300554","0.010222","863317","906997","817288","3.777701","1.047545","0.031304","851131","920741","860994","2.886553","0.832986","0.000000","731124","855848","950039","1.738679","0.433463","0.000000","4058","4481","4652","4050","4199","4256","3671","4027","4164","3533","3619","3533","2993","2823","2993",""
"MA200-0416","27994","84","1","1.10","1.4","2023-05-25T17:22:31","120","2023/05/25","17:22:31","-15.795836687088013","35.002973166061565","0.0","17","30","64","30","-8424","-6208","-23944","14","150","149.90","117.06","32.83","25.58","43.3","12.19","90316","25.38","DUALSPOT-UV-BLUE-GREEN-RED-IR","751359","706884","907179","7.582075","2.186416","0.003867","756698","895194","761045","4.802408","1.317863","-0.003139","858632","902385","813283","3.830260","1.062011","-0.006901","851148","921031","861371","2.926113","0.844365","0.000000","731670","856680","950952","1.762882","0.439391","0.000000","4092","4180","4216","3950","3908","3892","3727","3658","3631","3390","3477","3390","2888","2522","2888",""
"MA200-0416","27995","84","1","1.10","1.4","2023-05-25T17:23:01","120","2023/05/25","17:23:01","-15.795820832252502","35.00297366618179","0.1","17","30","64","30","-8400","-5980","-24276","14","150","149.90","116.91","32.99","25.54","43.4","12.17","90316","25.31","DUALSPOT-UV-BLUE-GREEN-RED-IR","749903","705930","906144","7.664713","2.209766","0.000231","760365","899950","765196","4.865593","1.335130","-0.009358","861776","906044","816689","3.880495","1.075779","-0.010688","849749","919778","860280","2.964867","0.855571","0.000000","735096","860859","955667","1.785862","0.444592","0.000000","4151","4157","4159","4006","3880","3832","3567","3464","3425","3325","3407","3325","2745","2202","2745",""
"MA200-0416","27996","84","1","1.10","1.4","2023-05-25T17:23:31","120","2023/05/25","17:23:31","-15.7958265542984","35.0029801663477","0.0","17","30","64","30","-8465","-6084","-24307","14","150","149.63","116.55","33.08","25.53","43.4","12.19","90316","25.31","DUALSPOT-UV-BLUE-GREEN-RED-IR","750017","706427","907035","7.746715","2.235536","0.016886","759968","899891","765295","4.927149","1.352809","0.003236","861513","906088","816847","3.930974","1.090251","0.003457","855593","926355","866528","3.004493","0.867152","0.013271","734817","860659","955507","1.809406","0.450561","0.000000","4132","4575","4754","3915","3961","3978","3595","3631","3645","3411","3511","3552","2822","2520","2822",""
"MA200-0416","27997","84","1","1.10","1.4","2023-05-25T17:24:01","120","2023/05/25","17:24:01","-15.795828640460968","35.00297849974595","0.0","17","30","64","30","-8728","-6008","-24204","14","150","150.16","117.06","33.10","25.51","43.5","12.20","90316","25.31","DUALSPOT-UV-BLUE-GREEN-RED-IR","751170","707931","909159","7.829057","2.260305","0.010541","756667","896372","762436","4.991782","1.370679","-0.006278","859299","904098","815178","3.985571","1.105570","-0.002655","852521","923304","863776","3.045669","0.879120","0.012492","733128","858882","953563","1.833498","0.456954","0.000000","4131","4395","4503","4092","4002","3968","3872","3842","3831","3528","3628","3668","2874","2698","2874",""
"MA200-0416","27998","84","1","1.10","1.4","2023-05-25T17:24:31","120","2023/05/25","17:24:31","-15.795815467834473","35.00295083317906","0.0","17","30","64","30","-8324","-6216","-23664","14","150","150.16","116.98","33.18","25.48","43.6","12.20","90312","25.25","DUALSPOT-UV-BLUE-GREEN-RED-IR","746507","704007","904351","7.921356","2.287220","0.004825","757075","897281","763357","5.059858","1.389455","-0.007767","859846","905035","816141","4.040253","1.120114","-0.023277","853755","924922","865413","3.088940","0.890964","-0.016666","733953","859987","954903","1.860506","0.463320","0.000000","4634","4765","4818","4313","4195","4150","3880","3639","3547","3710","3581","3529","3225","2680","3225",""
"MA200-0416","27999","84","1","1.10","1.4","2023-05-25T17:25:01","120","2023/05/25","17:25:01","-15.795798003673553","35.0029509998858","0.1","17","30","64","30","-8444","-6128","-24188","14","150","149.80","117.20","32.60","25.46","43.6","12.19","90312","25.25","DUALSPOT-UV-BLUE-GREEN-RED-IR","750018","707747","909451","8.009336","2.312858","0.007848","755819","896224","762581","5.123361","1.406942","-0.002728","858925","904436","815730","4.092520","1.135307","0.014343","853183","924561","865170","3.129546","0.902950","0.025333","733638","859759","954729","1.885276","0.470150","0.000000","4409","4619","4705","4016","3976","3961","3702","3869","3933","3476","3689","3775","2952","2926","2952",""
"MA200-0416","28000","84","1","1.10","1.4","2023-05-25T17:25:31","120","2023/05/25","17:25:31","-15.795780599117279","35.002939332975075","0.1","17","30","64","30","-8496","-6084","-24252","14","150","149.45","117.02","32.42","25.43","43.7","12.18","90312","25.19","DUALSPOT-UV-BLUE-GREEN-RED-IR","748716","707071","908867","8.113390","2.344001","0.012511","754891","895601","762215","5.193176","1.427291","0.012910","857537","903316","814833","4.148060","1.150571","-0.002682","850630","922086","862966","3.173495","0.915783","0.022233","732437","858530","953410","1.910999","0.476384","0.000000","5222","5642","5812","4422","4653","4740","3940","3908","3896","3767","3971","4053","3070","2686","3070",""
"MA200-0416","28001","84","1","1.10","1.4","2023-05-25T17:26:01","120","2023/05/25","17:26:01","-15.795787394046783","35.00295466626994","0.1","17","30","64","29","-8464","-6084","-24396","14","150","149.53","116.75","32.77","25.40","43.8","12.20","90316","25.19","DUALSPOT-UV-BLUE-GREEN-RED-IR","743498","703375","904776","8.346794","2.412592","0.007411","755524","897449","764141","5.350837","1.470016","-0.009369","854672","901220","813242","4.277062","1.185774","-0.009376","847008","918917","860272","3.277500","0.943696","-0.020062","730298","856498","951322","1.978689","0.493808","0.000000","11742","12292","12516","10010","9664","9532","9173","8917","8819","8937","8544","8385","8099","7427","8099",""
"MA200-0416","28002","84","1","1.10","1.4","2023-05-25T17:26:31","120","2023/05/25","17:26:31","-15.795795679092407","35.00296916603111","0.0","17","30","64","30","-8073","-6076","-24769","14","150","149.83","117.18","32.65","25.37","43.9","12.18","90312","25.13","DUALSPOT-UV-BLUE-GREEN-RED-IR","743151","704375","906792","8.622324","2.493642","0.008457","755759","898767","765583","5.515303","1.514583","-0.007094","854621","901966","814187","4.407263","1.219326","-0.026256","847040","919628","861110","3.377590","0.968468","-0.054927","730901","857588","952649","2.041791","0.508412","0.000000","13810","14582","14896","10404","10120","10012","9224","8532","8267","8569","7612","7228","7522","6249","7522",""
"MA200-0416","28003","84","1","1.10","1.4","2023-05-25T17:27:01","120","2023/05/25","17:27:01","-15.795804142951965","35.0029718328733","0.1","17","30","64","30","-8496","-5984","-24580","14","150","149.33","116.87","32.46","25.35","43.9","12.19","90316","25.13","DUALSPOT-UV-BLUE-GREEN-RED-IR","732723","701373","906912","9.863920","2.881731","0.015251","749726","896252","764990","6.149515","1.691913","0.001480","849819","900501","814083","4.881334","1.348143","-0.006336","843611","918741","861243","3.738378","1.064848","-0.015106","728790","856817","952457","2.273941","0.567158","0.000000","62401","70223","73451","40230","40498","40600","33678","32947","32668","30973","29789","29317","27749","25281","27749",""
"MA200-0416","28004","84","1","1.10","1.4","2023-05-25T17:27:31","120","2023/05/25","17:27:31","-15.795795500278473","35.002968666143715","0.1","17","30","64","29","-8384","-6040","-24476","14","150","149.39","116.67","32.72","25.33","44.0","12.20","90316","25.13","DUALSPOT-UV-BLUE-GREEN-RED-IR","690822","688557","907095","13.880056","4.130045","0.009625","718179","885264","764849","9.033651","2.504099","0.000628","824911","896754","818572","7.249433","1.992308","-0.005965","819962","911603","860978","5.624506","1.561707","-0.016308","715243","852732","952457","3.525089","0.884524","-0.041462","202192","224092","233369","183265","184020","184310","168519","163454","161534","162197","152353","148569","149810","135500","130707",""
"MA200-0416","28005","84","1","1.10","1.4","2023-05-25T17:28:01","120","2023/05/25","17:28:01","-15.79578983783722","35.002957499818876","0.0","17","30","64","29","-8624","-6064","-24040","14","150","149.43","116.55","32.88","25.30","44.2","12.22","90312","25.06","DUALSPOT-UV-BLUE-GREEN-RED-IR","665959","679159","904698","19.230472","5.867506","0.009289","700385","878235","764101","12.829678","3.601825","0.002627","802800","886117","813575","10.486905","2.887034","-0.002752","811579","914094","867335","8.287444","2.266699","-0.011166","706608","850061","952246","5.315456","1.328733","-0.036007","269634","310384","328276","241448","247506","249870","230615","225927","224146","229227","215122","209811","214589","188733","180116",""
"MA200-0416","28006","84","1","1.10","1.4","2023-05-25T17:28:31","120","2023/05/25","17:28:31","-15.795793235301971","35.002957499818876","0.0","17","30","64","29","-8440","-6012","-24252","14","150","149.90","116.23","33.67","25.28","44.3","12.23","90316","25.06","DUALSPOT-UV-BLUE-GREEN-RED-IR","659162","676978","905122","20.268158","6.222416","0.010208","695051","876888","765032","13.673144","3.860080","0.005386","800834","888748","817824","11.219868","3.101849","0.001431","805841","911758","866667","8.898700","2.438098","-0.005172","703336","848832","951913","5.734894","1.437300","-0.028853","52438","61918","66118","53797","56866","58074","52355","52974","53210","52762","51077","50441","50411","45048","43254",""
"MA200-0416","28007","84","1","1.10","1.4","2023-05-25T17:29:01","120","2023/05/25","17:29:01","-15.795783340930939","35.00295816641301","0.0","17","30","64","29","-8368","-6104","-24276","14","150","149.57","116.39","33.18","25.24","44.4","12.25","90316","25.06","DUALSPOT-UV-BLUE-GREEN-RED-IR","654277","675522","905785","21.205196","6.549219","0.011523","691144","875503","765153","14.359446","4.069822","0.006368","797074","887684","817995","11.806515","3.272456","0.002304","796681","904094","860337","9.386202","2.572870","-0.004620","701329","848232","951910","6.070146","1.523091","-0.026051","47288","57856","62579","43713","46866","48113","41847","42693","43017","42023","40755","40276","40238","36123","34744",""
"MA200-0416","28008","84","1","1.10","1.4","2023-05-25T17:29:31","120","2023/05/25","17:29:31","-15.795803487300873","35.002964166458696","0.0","17","30","64","29","-8340","-6128","-24324","14","150","149.33","116.23","33.10","25.22","44.5","12.25","90316","25.06","DUALSPOT-UV-BLUE-GREEN-RED-IR","575872","642922","905654","31.308494","10.425133","0.010935","651741","858588","765205","18.941850","5.580066","0.009631","760855","871476","813627","15.050231","4.287839","0.008102","772688","895887","860601","11.848625","3.311813","0.005870","686988","843488","952265","7.749988","1.996951","-0.001649","510565","687850","776353","292273","338279","357491","231699","254709","263876","212553","223999","228440","201899","200008","199351",""
"MA200-0416","28009","84","1","1.10","1.4","2023-05-25T17:30:01","120","2023/05/25","17:30:01","-15.795805513858795","35.00296516646631","0.1","17","30","64","29","-8388","-6060","-24628","14","150","149.42","116.15","33.26","25.22","44.6","12.29","90316","25.06","DUALSPOT-UV-BLUE-GREEN-RED-IR","541823","626055","903926","39.489300","13.787949","0.010151","630736","847680","763752","23.113986","7.039881","0.010463","745442","867877","816867","18.211170","5.335193","0.009980","755736","888031","858279","14.304762","4.084641","0.008490","677167","839134","950934","9.393753","2.472500","0.001461","413684","593814","690447","266280","325350","351221","225935","261418","276120","212149","233102","241476","197692","199719","200443",""
"MA200-0416","28010","84","1","1.10","1.4","2023-05-25T17:30:31","120","2023/05/25","17:30:31","-15.795789361000061","35.002984166378155","0.0","17","30","64","29","-8188","-6000","-24272","14","150","149.90","115.47","34.42","25.22","44.6","12.31","90316","25.06","DUALSPOT-UV-BLUE-GREEN-RED-IR","431433","561990","905735","62.857512","24.950454","0.007950","571942","817435","765125","33.291516","10.925262","0.008851","695965","844583","813923","24.891006","7.750684","0.009493","728776","882278","866683","19.048948","5.753649","0.010770","658793","832237","952678","12.428986","3.513045","0.013917","1188629","1904695","2376010","653387","836768","926343","480265","582590","628861","412191","486450","518586","367189","422281","443988",""
"MA200-0416","28011","84","1","1.10","1.4","2023-05-25T17:31:01","120","2023/05/25","17:31:01","-15.795788526535034","35.00297633279115","0.0","17","30","68","29","-8111","-5912","-24632","15","150","149.53","114.94","34.59","25.22","44.7","12.32","90324","25.31","DUALSPOT-UV-BLUE-GREEN-RED-IR","787852","720457","906680","0.000000","0.000000","0.000000","787573","914568","766037","0.000000","0.000000","0.000000","886382","917017","815546","0.000000","0.000000","0.000000","871914","931915","861121","0.000000","0.000000","0.000000","749802","868404","955496","0.000000","0.000000","0.000000","0","0","0","0","0","0","0","0","0","0","0","0","0","0","0","Tape advance"
"MA200-0416","28012","84","1","1.10","1.4","2023-05-25T17:31:31","120","2023/05/25","17:31:31","-15.795777440071106","35.002963999984786","0.0","17","30","68","29","-8172","-5984","-24196","15","150","150.23","115.08","35.15","25.22","44.7","12.35","90320","25.19","DUALSPOT-UV-BLUE-GREEN-RED-IR","772798","715653","905845","0.000000","0.000000","0.000000","776734","906929","761303","0.000000","0.000000","0.000000","881253","915223","815177","0.000000","0.000000","0.000000","874597","937418","867097","0.000000","0.000000","0.000000","747779","867525","955125","0.000000","0.000000","0.000000","","","","","","","","","","","","","","","","Tape advance"
"MA200-0416","28013","84","1","1.10","1.4","2023-05-25T17:32:01","120","2023/05/25","17:32:01","-15.795778810977936","35.002966332947835","0.0","17","30","64","29","-8115","-5812","-24176","15","150","150.09","114.96","35.14","25.21","44.8","12.35","90316","25.13","DUALSPOT-UV-BLUE-GREEN-RED-IR","769995","713924","904133","0.148643","0.047588","0.000000","779573","910977","764953","0.104707","0.029767","0.000000","879492","913942","814190","0.079500","0.023120","0.000000","872473","935573","865503","0.058060","0.016933","0.000000","746036","865759","953294","0.039030","0.009318","0.000000","7594","7954","7594","6752","6280","6752","5741","5462","5741","5067","4835","5067","4742","3704","4742",""
"MA200-0416","28014","84","1","1.10","1.4","2023-05-25T17:32:31","120","2023/05/25","17:32:31","-15.795764803886414","35.002964166458696","0.0","17","30","64","29","-8304","-5872","-24516","15","150","149.93","115.02","34.90","25.21","44.8","12.37","90316","25.06","DUALSPOT-UV-BLUE-GREEN-RED-IR","773777","718020","909747","0.258260","0.084379","0.000000","777701","909407","763817","0.196605","0.055253","0.000000","877911","912764","813330","0.149744","0.042659","0.000000","870474","933783","864026","0.111567","0.032288","0.000000","745049","864816","952343","0.074205","0.018965","0.000000","5597","6191","5597","5922","5413","5922","5070","4647","5070","4667","4413","4667","4272","3861","4272",""
"MA200-0416","28015","84","1","1.10","1.4","2023-05-25T17:33:01","120","2023/05/25","17:33:01","-15.795763432979584","35.002959833014756","0.0","17","30","64","29","-8207","-5888","-24603","15","150","149.96","115.27","34.69","25.19","44.8","12.35","90312","25.00","DUALSPOT-UV-BLUE-GREEN-RED-IR","771261","716269","907882","0.393636","0.128608","0.000000","776238","908169","762998","0.284749","0.080764","0.000000","881318","916701","816995","0.217437","0.061935","0.000000","868734","932205","862676","0.161069","0.046903","0.000000","743992","863789","951276","0.104742","0.027000","0.000000","6897","7489","6897","5668","5452","5668","4875","4613","4875","4308","4227","4308","3700","3235","3700",""
"MA200-0416","28016","84","1","1.10","1.4","2023-05-25T17:33:31","120","2023/05/25","17:33:31","-15.795771777629852","35.002970999572426","0.1","17","30","64","29","-8136","-5920","-24392","15","150","149.45","114.80","34.65","25.17","44.9","12.34","90316","25.00","DUALSPOT-UV-BLUE-GREEN-RED-IR","758788","712253","907209","1.636999","0.515720","0.000000","772428","906167","762143","0.592410","0.170244","0.000000","879483","916180","817044","0.393843","0.114798","0.000000","866255","930499","861550","0.289785","0.087529","0.000000","742669","862939","950701","0.203477","0.058197","0.000000","63616","65623","63616","19867","19145","19867","12757","12666","12757","11249","11763","11249","12014","12577","12014",""
"MA200-0416","28017","84","1","1.10","1.4","2023-05-25T17:34:01","120","2023/05/25","17:34:01","-15.795782089233398","35.002961833262816","0.1","17","30","64","29","-8195","-5895","-24579","15","150","149.76","114.92","34.85","25.15","44.9","12.35","90308","24.94","DUALSPOT-UV-BLUE-GREEN-RED-IR","738305","705392","906142","3.769615","1.207189","0.024527","767621","904153","761756","1.081514","0.316484","0.000000","876000","914470","816316","0.660997","0.198787","0.000000","863849","929315","861088","0.482577","0.151515","0.000000","745680","867420","956197","0.350093","0.106719","0.000000","109001","116550","120106","31552","31111","31552","19300","20010","19300","16831","18422","16831","17822","19451","17822",""
"MA200-0416","28018","84","1","1.10","1.4","2023-05-25T17:34:31","120","2023/05/25","17:34:31","-15.795782744884491","35.00294049968943","0.0","17","30","64","29","-8284","-5936","-24308","15","150","149.57","114.80","34.77","25.12","45.0","12.34","90312","24.88","DUALSPOT-UV-BLUE-GREEN-RED-IR","729421","702447","905961","5.756660","1.863317","0.020457","769412","908035","765699","1.516121","0.447702","0.000000","874421","913777","816088","0.890445","0.271756","0.000000","861998","927993","860184","0.645035","0.205475","0.000000","744915","867003","955973","0.476057","0.148811","0.000000","101666","110844","115237","28065","27978","28065","16593","17424","16593","14198","15571","14198","15328","16912","15328",""
"MA200-0416","28019","84","1","1.10","1.4","2023-05-25T17:35:01","120","2023/05/25","17:35:01","-15.795777142047882","35.002932666335255","0.1","17","30","64","29","-8165","-5915","-24530","15","150","149.39","114.80","34.59","25.09","45.0","12.33","90308","24.88","DUALSPOT-UV-BLUE-GREEN-RED-IR","726680","700655","904191","5.972633","1.938962","0.032470","768019","907077","765083","1.622974","0.478208","0.000000","873186","912949","815543","0.962352","0.293166","0.000000","867200","933919","865789","0.696229","0.221818","0.000000","744133","866271","955287","0.505489","0.157145","0.000000","11050","12845","13708","6900","6538","6900","5200","5139","5200","4474","4740","4474","3581","3366","3581",""
"MA200-0416","28020","84","1","1.10","1.4","2023-05-25T17:35:31","120","2023/05/25","17:35:31","-15.795774281024933","35.00294216652401","0.0","17","30","64","29","-8208","-5976","-24312","15","150","149.83","114.76","35.07","25.07","45.1","12.34","0","0.00","DUALSPOT-UV-BLUE-GREEN-RED-IR","729860","704475","909661","6.112739","1.986249","0.021901","765984","905298","763824","1.717609","0.505455","0.000000","871910","912089","814902","1.031422","0.311988","0.000000","866044","932972","865049","0.744593","0.234979","0.000000","743187","865374","954340","0.535045","0.165690","0.000000","7170","7919","8279","6113","5759","6113","4996","4455","4996","4228","3764","4228","3597","3403","3597",""
"MA200-0416","28021","84","1","1.10","1.4","2023-05-25T17:36:01","120","2023/05/25","17:36:01","-15.795779585838318","35.00296533317305","0.0","17","30","64","29","-8253","-5888","-24561","15","150","150.11","114.69","35.42","25.04","45.2","12.33","0","0.00","DUALSPOT-UV-BLUE-GREEN-RED-IR","713870","699872","910825","8.345337","2.730867","0.012701","762246","904158","764048","2.216641","0.655479","0.000000","869649","911344","814932","1.286995","0.394696","0.000000","863924","931815","864501","0.922199","0.296992","0.000000","741996","864771","954191","0.672708","0.215619","0.000000","114340","123461","127897","32257","31395","32257","18501","19383","18501","15536","17562","15536","16768","19689","16768",""
"MA200-0416","28022","84","1","1.10","1.4","2023-05-25T17:36:31","120","2023/05/25","17:36:31","-15.795787513256073","35.0029768331442","0.0","17","30","64","28","-8173","-5819","-24315","15","150","149.09","114.88","34.21","25.02","45.2","12.31","90304","24.81","DUALSPOT-UV-BLUE-GREEN-RED-IR","709974","696410","906565","8.556686","2.803421","0.021638","759597","901557","762058","2.326555","0.688423","0.000000","867469","909477","813405","1.362675","0.417083","0.000000","860698","928648","861692","0.973894","0.313103","0.000000","740588","863272","952587","0.703044","0.223524","0.000000","10806","12457","13261","7093","7139","7093","5469","5433","5469","4514","4724","4514","3689","3228","3689",""
"MA200-0416","28023","84","1","1.10","1.4","2023-05-25T17:37:01","120","2023/05/25","17:37:01","-15.795779824256897","35.00295116659254","0.1","17","30","64","29","-8252","-5788","-24328","15","150","150.29","114.80","35.50","25.00","45.3","12.33","90308","24.75","DUALSPOT-UV-BLUE-GREEN-RED-IR","702484","694561","907885","9.280638","3.052602","0.015552","758110","901725","762880","2.540719","0.753105","0.000000","866800","909804","814127","1.485145","0.455302","0.000000","861630","930365","863594","1.059315","0.340193","0.000000","740717","863907","953571","0.762968","0.243993","0.000000","37040","41233","43288","13830","13509","13830","8857","8939","8857","7465","7657","7465","7291","8056","7291",""
"MA200-0416","28024","84","1","1.10","1.4","2023-05-25T17:37:31","120","2023/05/25","17:37:31","-15.795772135257721","35.00294949952513","0.1","17","30","64","29","-8220","-5780","-24276","15","150","149.83","115.08","34.75","24.98","45.3","12.32","90304","24.75","DUALSPOT-UV-BLUE-GREEN-RED-IR","695911","692313","907792","10.577679","3.495069","0.015327","756308","901122","762935","2.853384","0.847126","0.000000","865785","909563","814249","1.649266","0.508898","0.000000","860262","929377","862974","1.167931","0.379449","0.000000","739938","863338","953142","0.842577","0.272573","0.000000","66202","74779","79011","20142","20055","20142","11840","12803","11840","9469","11332","9469","9664","11487","9664",""
"MA200-0416","28025","84","1","1.10","1.4","2023-05-25T17:38:01","120","2023/05/25","17:38:01","-15.795761466026306","35.00296583306044","0.0","17","30","64","28","-8184","-5864","-24496","15","150","149.63","114.96","34.67","24.95","45.4","12.32","90312","24.75","DUALSPOT-UV-BLUE-GREEN-RED-IR","691024","689087","904732","10.996973","3.638496","0.015176","753165","898316","760901","3.009753","0.893915","-0.003821","867493","911952","816622","1.744008","0.536412","0.000000","856885","926126","860130","1.234504","0.401008","0.000000","737935","861265","951001","0.887727","0.287038","0.000000","21423","24295","25715","10083","10003","9969","6842","6587","6842","5810","6237","5810","5486","5827","5486",""
"MA200-0416","28026","84","1","1.10","1.4","2023-05-25T17:38:31","120","2023/05/25","17:38:31","-15.795757412910461","35.00296099972911","0.1","17","30","64","29","-8160","-5872","-24460","15","150","149.67","115.14","34.53","24.93","45.4","12.32","90312","24.75","DUALSPOT-UV-BLUE-GREEN-RED-IR","685927","685341","900734","11.357216","3.762876","0.016262","753216","899261","761978","3.159325","0.937057","-0.018101","863753","908644","813888","1.843953","0.565326","0.000000","858429","928271","862266","1.304534","0.421381","0.000000","739239","863034","953059","0.931242","0.300189","0.000000","18376","21159","22539","9629","9263","9109","7206","6953","7206","6101","5920","6101","5279","5320","5279",""
"MA200-0416","28027","84","1","1.10","1.4","2023-05-25T17:39:01","120","2023/05/25","17:39:01","-15.795763969421387","35.00296683306806","0.1","17","30","64","29","-8240","-6060","-24552","15","150","150.23","114.76","35.47","24.91","45.5","12.32","90308","24.69","DUALSPOT-UV-BLUE-GREEN-RED-IR","688495","688353","905008","11.459705","3.799306","0.015998","756191","903483","765767","3.260733","0.964355","-0.068805","866794","912355","817420","1.925265","0.587839","0.000000","857304","927411","861654","1.364297","0.438279","0.000000","738533","862443","952483","0.967100","0.309377","0.000000","5245","6032","6423","6550","5705","5350","5882","5269","5882","5224","4779","5224","4365","3618","4365",""
"MA200-0416","28028","84","1","1.10","1.4","2023-05-25T17:39:31","120","2023/05/25","17:39:31","-15.795754969120026","35.002995499642566","0.0","17","30","64","29","-8120","-5904","-24472","15","150","149.90","114.96","34.94","24.89","45.5","12.32","90312","24.69","DUALSPOT-UV-BLUE-GREEN-RED-IR","681209","683080","899486","11.828821","3.927456","0.014845","750650","897892","761443","3.413812","1.010978","0.000867","866051","912318","817626","2.029991","0.618083","0.000000","861672","932708","866784","1.440808","0.460279","0.000000","737456","861528","951664","1.019928","0.325019","0.000000","18859","21542","22876","9871","9892","9901","7563","7186","7563","6677","6317","6677","6419","6254","6419",""
"MA200-0416","28029","84","1","1.10","1.4","2023-05-25T17:40:01","120","2023/05/25","17:40:01","-15.79575514793396","35.00300733326003","0.0","17","30","64","28","-8152","-5912","-24180","15","150","149.63","114.52","35.11","24.87","45.6","12.31","90312","24.63","DUALSPOT-UV-BLUE-GREEN-RED-IR","681299","684658","902628","12.249760","4.074682","0.014217","751516","899925","763520","3.582357","1.060875","-0.014370","863222","910016","815812","2.144056","0.652337","0.000000","858541","929841","864298","1.526269","0.486845","0.000000","735763","859872","949921","1.075862","0.341585","0.000000","21589","24628","26142","10910","10534","10376","8269","8099","8269","7487","7590","7487","6823","6590","6823",""
"MA200-0416","28030","84","1","1.10","1.4","2023-05-25T17:40:31","120","2023/05/25","17:40:31","-15.795770645141602","35.003010833170265","0.0","17","30","64","28","-8212","-5916","-24304","15","150","149.58","115.21","34.38","24.85","45.6","12.30","90312","24.63","DUALSPOT-UV-BLUE-GREEN-RED-IR","686713","690330","910268","12.298559","4.091486","0.015244","751706","900755","764434","3.679662","1.087808","-0.031125","863132","910450","816408","2.225297","0.674421","0.000000","858782","930484","865053","1.587666","0.503117","0.000000","736260","860699","950941","1.111831","0.350304","0.000000","2487","2871","3062","6261","5808","5618","5854","5333","5854","5346","4748","5346","4361","3543","4361",""
"MA200-0416","28031","84","1","1.10","1.4","2023-05-25T17:41:01","120","2023/05/25","17:41:01","-15.795757412910461","35.00300883338787","0.0","17","30","64","28","-8250","-5938","-24565","15","150","149.45","114.68","34.77","24.83","45.6","12.29","90312","24.63","DUALSPOT-UV-BLUE-GREEN-RED-IR","684353","688841","908932","12.478144","4.154211","0.014878","750191","899740","763830","3.796536","1.121200","-0.023449","861438","909272","815539","2.314835","0.699097","0.000000","857682","929809","864597","1.655060","0.521761","0.000000","739966","865290","956145","1.154258","0.362461","0.000000","9197","10596","11294","7555","7120","6937","6482","5892","6482","5896","5380","5896","5168","4884","5168",""
"MA200-0416","28032","84","1","1.10","1.4","2023-05-25T17:41:31","120","2023/05/25","17:41:31","-15.795752167701721","35.00299883284606","0.1","17","30","64","28","-8128","-5760","-24300","15","150","149.59","114.54","35.05","24.80","45.7","12.30","90316","24.56","DUALSPOT-UV-BLUE-GREEN-RED-IR","673776","684874","908645","13.926577","4.669174","0.014070","746823","898106","763338","4.172569","1.235950","-0.000904","859035","908067","815031","2.527475","0.766093","0.000000","855384","928309","863637","1.809189","0.572330","0.000000","738732","864491","955655","1.269260","0.403224","0.000000","74273","86304","92372","24336","24272","24245","15412","15870","15412","13499","14476","13499","14025","16248","14025",""
"MA200-0416","28033","84","1","1.10","1.4","2023-05-25T17:42:01","120","2023/05/25","17:42:01","-15.795752167701721","35.00299216643907","0.1","16","30","64","28","-8079","-5944","-25000","15","150","150.23","115.12","35.11","24.78","45.8","12.30","90316","24.56","DUALSPOT-UV-BLUE-GREEN-RED-IR","669598","682695","907276","14.435963","4.853340","0.015122","744634","896636","762519","4.360264","1.292020","-0.006906","857705","907429","814750","2.648609","0.802738","0.000000","853960","927315","862951","1.895182","0.599861","0.000000","737926","863886","955150","1.323906","0.421384","0.000000","25990","30808","33248","12087","11838","11733","8736","8665","8736","7494","7866","7494","6631","7225","6631",""
"MA200-0416","28034","84","1","1.10","1.4","2023-05-25T17:42:31","120","2023/05/25","17:42:31","-15.795740962028503","35.0029759996105","0.0","16","30","64","28","-8172","-5848","-24480","15","150","149.57","114.92","34.65","24.76","45.8","12.29","90312","24.56","DUALSPOT-UV-BLUE-GREEN-RED-IR","666843","681722","907465","14.736753","4.964985","0.017534","743463","896383","762718","4.513839","1.338399","0.000509","856531","906960","814602","2.755075","0.833678","0.000000","852851","926622","862523","1.972245","0.622695","0.000000","737475","863693","955143","1.373546","0.435726","0.000000","15373","18925","20730","9907","9923","9929","7691","7413","7691","6727","6612","6727","6034","5782","6034",""
"MA200-0416","28035","84","1","1.10","1.4","2023-05-25T17:43:01","120","2023/05/25","17:43:01","-15.79574429988861","35.00297899963334","0.1","16","30","64","28","-8208","-5928","-24764","15","150","150.43","115.20","35.23","24.74","45.8","12.27","90312","24.50","DUALSPOT-UV-BLUE-GREEN-RED-IR","663564","680058","906506","15.133440","5.110138","0.015117","741493","895073","761965","4.682731","1.387620","-0.015306","859737","911082","818611","2.868932","0.867295","0.000000","851511","925678","861865","2.053614","0.647079","0.000000","736693","863043","954552","1.424112","0.450160","0.000000","20226","24200","26226","10868","10357","10142","8205","7922","8205","7086","6944","7086","6132","5723","6132",""
"MA200-0416","28036","84","1","1.10","1.4","2023-05-25T17:43:31","120","2023/05/25","17:43:31","-15.795747339725494","35.002981832949445","0.0","16","30","64","28","-8052","-5936","-24712","15","150","150.23","115.31","34.91","24.72","45.9","12.28","90312","24.50","DUALSPOT-UV-BLUE-GREEN-RED-IR","660877","678854","906116","15.670889","5.308702","0.015948","739997","894169","761535","4.873300","1.446159","0.004176","854037","905639","813950","2.985715","0.902998","0.000000","850382","924887","861281","2.135375","0.672799","0.000000","736255","862793","954384","1.477315","0.466839","0.000000","27375","33406","36496","12251","12430","12505","8408","8490","8408","7113","7391","7113","6445","6673","6445",""
"MA200-0416","28037","84","1","1.10","1.4","2023-05-25T17:44:01","120","2023/05/25","17:44:01","-15.795748770236969","35.00297849974595","0.1","16","30","64","28","-8124","-6020","-24460","15","150","150.05","115.11","34.94","24.70","45.9","12.27","90308","24.50","DUALSPOT-UV-BLUE-GREEN-RED-IR","659646","677727","904692","15.707190","5.321974","0.015029","742972","898228","765208","4.951343","1.469755","-0.001170","853521","905525","813969","3.050577","0.922036","-0.016361","850016","924770","861307","2.179765","0.685071","0.000000","736013","862678","954308","1.502569","0.473236","0.000000","1852","2230","2424","5026","5005","4997","4678","4523","4455","3869","3523","3869","3064","2557","3064",""
"MA200-0416","28038","84","1","1.10","1.4","2023-05-25T17:44:31","120","2023/05/25","17:44:31","-15.79574567079544","35.00297833303921","0.0","16","30","64","28","-8156","-5832","-24392","15","150","150.03","115.04","34.99","24.66","46.0","12.25","90308","24.44","DUALSPOT-UV-BLUE-GREEN-RED-IR","658626","677897","905811","15.828350","5.363884","0.010855","742175","898151","765413","5.052128","1.499778","-0.005993","857259","910097","818332","3.125911","0.942499","-0.057882","848783","923843","860617","2.235220","0.701636","0.000000","735584","862420","954154","1.534647","0.482163","0.000000","6186","7034","7469","6494","6360","6304","5436","4855","4603","4836","4749","4836","3895","3563","3895",""
"MA200-0416","28039","84","1","1.10","1.4","2023-05-25T17:45:01","120","2023/05/25","17:45:01","-15.7957404255867","35.0029788329266","0.0","16","30","64","28","-8111","-5844","-24244","15","150","150.58","114.93","35.65","24.64","46.0","12.26","90308","24.44","DUALSPOT-UV-BLUE-GREEN-RED-IR","656553","676626","904794","16.178532","5.490019","0.012128","740625","897085","764813","5.211446","1.547510","-0.009783","856131","909527","818048","3.238803","0.976199","-0.017557","853895","929975","866494","2.316863","0.724715","0.000000","734892","861936","953707","1.587211","0.496552","0.000000","17896","20782","22265","10276","9926","9778","8155","7848","7716","7127","6495","7127","6389","5638","6389",""
"MA200-0416","28040","84","1","1.10","1.4","2023-05-25T17:45:31","120","2023/05/25","17:45:31","-15.795737981796265","35.00295599969104","0.0","16","30","64","28","-8164","-5828","-24416","15","150","150.09","114.72","35.38","24.62","46.0","12.24","90308","24.38","DUALSPOT-UV-BLUE-GREEN-RED-IR","659129","680064","909979","16.343807","5.546734","0.008922","739254","896122","764243","5.321673","1.579607","-0.016177","854822","908670","817438","3.321295","0.999791","-0.034898","851758","928001","864801","2.378529","0.743311","0.000000","733778","860792","952611","1.626630","0.509809","0.000000","8462","9416","9906","7123","6726","6558","5970","5536","5350","5393","5274","5393","4800","5234","4800",""
"MA200-0416","28041","84","1","1.10","1.4","2023-05-25T17:46:01","120","2023/05/25","17:46:01","-15.795759856700897","35.00296033313498","0.1","16","30","64","28","-8276","-5784","-24004","15","150","149.94","114.88","35.06","24.60","46.1","12.24","90308","24.38","DUALSPOT-UV-BLUE-GREEN-RED-IR","652412","673599","901605","16.459030","5.586380","0.009824","737423","894566","763136","5.427383","1.610887","-0.008333","853437","907766","816862","3.407961","1.025278","-0.016116","851067","927686","864679","2.443298","0.762045","0.000000","733210","860440","952273","1.665281","0.519545","0.000000","5891","6641","7027","6821","6614","6526","6263","6035","5937","5656","5360","5656","4700","3879","4700",""
"MA200-0416","28042","84","1","1.10","1.4","2023-05-25T17:46:31","120","2023/05/25","17:46:31","-15.795767366886139","35.00297399959527","0.0","16","30","64","28","-8196","-5816","-24588","15","150","150.03","115.00","35.03","24.59","46.1","12.24","90308","24.38","DUALSPOT-UV-BLUE-GREEN-RED-IR","654377","676152","905392","16.586609","5.630615","0.010430","734733","891927","761095","5.530439","1.639511","-0.025947","851130","905792","815245","3.487289","1.045984","-0.073722","848098","924826","862141","2.502934","0.778901","0.000000","731754","858916","950665","1.702770","0.528582","0.000000","6516","7416","7879","6643","6057","5809","5727","4907","4555","5202","4827","5202","4554","3603","4554",""
"MA200-0416","28043","84","1","1.10","1.4","2023-05-25T17:47:01","120","2023/05/25","17:47:01","-15.795764088630676","35.002981999423355","0.2","16","30","64","28","-8232","-5848","-24108","15","150","150.09","114.76","35.34","24.56","46.2","12.23","90308","24.31","DUALSPOT-UV-BLUE-GREEN-RED-IR","653940","676502","906407","16.751709","5.686422","0.007694","734811","892749","762049","5.641290","1.671207","-0.020009","851117","906385","815998","3.575921","1.071274","-0.032703","848607","925839","863258","2.568911","0.796675","0.000000","732105","859631","951561","1.743570","0.539732","0.000000","8450","9276","9700","7160","6649","6434","6412","5941","5740","5768","5046","5768","4966","4408","4966",""
"MA200-0416","28044","84","1","1.10","1.4","2023-05-25T17:47:31","120","2023/05/25","17:47:31","-15.79576313495636","35.00298349978402","0.1","16","30","64","28","-8156","-5912","-24204","15","150","149.39","115.04","34.35","24.54","46.2","12.21","90312","24.31","DUALSPOT-UV-BLUE-GREEN-RED-IR","652152","675792","906194","16.976428","5.759138","0.006621","733597","892168","761852","5.772028","1.708360","-0.012762","849607","905458","815368","3.674930","1.097566","-0.050989","846250","923792","861532","2.644080","0.816369","0.000000","730826","858444","950380","1.792865","0.552283","0.000000","11473","12434","12926","8425","8018","7847","7145","6354","6017","6555","5752","6555","5986","5104","5986",""
"MA200-0416","28045","84","1","1.10","1.4","2023-05-25T17:48:01","120","2023/05/25","17:48:01","-15.795763790607452","35.002982166130096","0.0","16","30","64","28","-8203","-5830","-24326","15","150","150.29","115.00","35.30","24.51","46.3","12.22","90308","24.25","DUALSPOT-UV-BLUE-GREEN-RED-IR","651251","675345","905965","17.118802","5.808952","0.010211","732745","891781","761748","5.884188","1.740301","-0.019404","849109","905487","815578","3.763949","1.122039","-0.046373","845576","923502","861424","2.713211","0.836050","0.000000","735378","864060","956680","1.837064","0.563540","0.000000","7271","8289","8812","7230","6708","6489","6426","5756","5471","6031","5594","6031","5369","4455","5369",""
