"Serial number","Datum ID","Session ID","Data format version","Firmware version","App version","Date / time local","Timezone offset (mins)","Date local (yyyy/MM/dd)","Time local (hh:mm:ss)","GPS lat (ddmm.mmmmm)","GPS long (dddmm.mmmmm)","GPS speed (km/h)","GPS sat count","Timebase (s)","Status","Battery remaining (%)","Accel X","Accel Y","Accel Z","Tape position","Flow setpoint (mL/min)","Flow total (mL/min)","Flow1 (mL/min)","Flow2 (mL/min)","Sample temp (C)","Sample RH (%)","Sample dewpoint (C)","Internal pressure (Pa)","Internal temp (C)","Optical config","UV Sen1","UV Sen2","UV Ref","UV ATN1","UV ATN2","UV K","Blue Sen1","Blue Sen2","Blue Ref","Blue ATN1","Blue ATN2","Blue K","Green Sen1","Green Sen2","Green Ref","Green ATN1","Green ATN2","Green K","Red Sen1","Red Sen2","Red Ref","Red ATN1","Red ATN2","Red K","IR Sen1","IR Sen2","IR Ref","IR ATN1","IR ATN2","IR K","UV BC1","UV BC2","UV BCc","Blue BC1","Blue BC2","Blue BCc","Green BC1","Green BC2","Green BCc","Red BC1","Red BC2","Red BCc","IR BC1","IR BC2","IR BCc","Readable status"
"MA200-0416","27330","80","1","1.10","1.4","2023-05-24T09:13:00","120","2023/05/24","09:13:00","-15.794099271297455","35.08367849141359","0.0","16","30","66","86","-17892","3587","14620","7","150","149.37","114.99","34.38","28.68","55.6","18.92","88764","28.94","DUALSPOT-UV-BLUE-GREEN-RED-IR","862144","740426","911963","0.000000","0.000000","0.000000","810584","917446","765144","0.000000","0.000000","0.000000","903932","918837","815152","0.000000","0.000000","0.000000","883677","932131","861147","0.000000","0.000000","0.000000","752493","863760","952334","0.000000","0.000000","0.000000","","","","","","","","","","","","","","","","Start up"
"MA200-0416","27331","80","1","1.10","1.4","2023-05-24T09:13:30","120","2023/05/24","09:13:30","-15.79408860206604","35.083665817976","0.0","16","30","66","86","-18800","2887","14133","7","150","149.64","115.24","34.40","28.77","54.0","18.55","88768","29.19","DUALSPOT-UV-BLUE-GREEN-RED-IR","855162","734967","905536","0.000000","0.000000","0.000000","810208","917349","765266","0.000000","0.000000","0.000000","902082","917263","813907","0.000000","0.000000","0.000000","883806","932493","861674","0.000000","0.000000","0.000000","755368","867277","956349","0.000000","0.000000","0.000000","","","","","","","","","","","","","","","","Start up"
"MA200-0416","27332","80","1","1.10","1.4","2023-05-24T09:14:00","120","2023/05/24","09:14:00","-15.794096827507019","35.08367032557726","0.0","16","30","66","86","-19136","2832","13836","7","150","150.29","115.71","34.58","28.86","52.8","18.27","88772","29.31","DUALSPOT-UV-BLUE-GREEN-RED-IR","858943","738713","910400","0.000000","0.000000","0.000000","808135","915327","763669","0.000000","0.000000","0.000000","904815","920311","816665","0.000000","0.000000","0.000000","887429","936515","865412","0.000000","0.000000","0.000000","752864","864557","953428","0.000000","0.000000","0.000000","","","","","","","","","","","","","","","","Start up"
"MA200-0416","27333","80","1","1.10","1.4","2023-05-24T09:14:30","120","2023/05/24","09:14:30","-15.794084370136261","35.08365764468908","1.4","16","30","66","86","-24584","624","3092","7","150","149.51","115.24","34.27","28.93","51.8","18.04","88776","29.38","DUALSPOT-UV-BLUE-GREEN-RED-IR","854497","735566","906768","0.000000","0.000000","0.000000","804827","912090","761109","0.000000","0.000000","0.000000","901709","917548","814333","0.000000","0.000000","0.000000","885675","934938","864042","0.000000","0.000000","0.000000","754694","866838","956004","0.000000","0.000000","0.000000","","","","","","","","","","","","","","","","Start up"
"MA200-0416","27334","80","1","1.10","1.4","2023-05-24T09:15:00","120","2023/05/24","09:15:00","-15.794098138809204","35.083665147423744","0.0","16","30","66","85","-24256","904","3432","7","150","149.70","115.20","34.50","29.01","50.8","17.79","88780","29.44","DUALSPOT-UV-BLUE-GREEN-RED-IR","855953","737895","910053","0.000000","0.000000","0.000000","806241","914542","763365","0.000000","0.000000","0.000000","902151","918680","815503","0.000000","0.000000","0.000000","886047","935862","865048","0.000000","0.000000","0.000000","750935","862878","951778","0.000000","0.000000","0.000000","","","","","","","","","","","","","","","","Start up"
"MA200-0416","27335","80","1","1.10","1.4","2023-05-24T09:15:30","120","2023/05/24","09:15:30","-15.794119715690613","35.0837249904871","0.5","16","30","64","86","-22660","2360","8224","7","150","149.86","115.71","34.14","29.08","49.8","17.55","88776","29.50","DUALSPOT-UV-BLUE-GREEN-RED-IR","856786","739032","911656","0.000000","0.000000","0.000000","806871","915557","764306","0.000000","0.000000","0.000000","902277","919056","815914","0.000000","0.000000","0.000000","880797","930477","860124","0.000000","0.000000","0.000000","751202","863310","952324","0.000000","0.000000","0.000000","","","","","","","","","","","","","","","",""
"MA200-0416","27336","80","1","1.10","1.4","2023-05-24T09:16:00","120","2023/05/24","09:16:00","-15.79411494731903","35.0836783349514","0.3","16","30","64","85","-22468","2560","8192","7","150","149.59","115.42","34.17","29.15","49.1","17.37","88776","29.50","DUALSPOT-UV-BLUE-GREEN-RED-IR","849597","733309","904755","0.085424","0.018926","0.000000","807831","916995","765592","0.049877","0.009418","0.000000","903082","920160","816945","0.038510","0.007665","0.000000","882827","932892","862338","0.027388","0.002997","0.000000","751408","863740","952856","0.022821","0.004102","0.000000","4347","3253","4347","3203","2043","3203","2770","1862","2770","2380","880","2380","2762","1677","2762",""
"MA200-0416","27337","80","1","1.10","1.4","2023-05-24T09:16:30","120","2023/05/24","09:16:30","-15.794118583202362","35.083690986037254","0.0","16","30","64","85","-22412","2356","8496","7","150","146.45","115.75","30.70","29.20","48.6","17.25","88776","29.50","DUALSPOT-UV-BLUE-GREEN-RED-IR","848235","732619","904091","0.171010","0.038946","0.000000","801742","910499","760250","0.101202","0.020469","0.000000","901841","919206","816126","0.077295","0.013649","0.000000","881697","931937","861492","0.054872","0.005692","0.000000","750515","862860","951900","0.044801","0.007797","0.000000","4342","3829","4342","3287","2668","3287","2781","1618","2781","2382","880","2382","2652","1681","2652",""
"MA200-0416","27338","80","1","1.10","1.4","2023-05-24T09:17:00","120","2023/05/24","09:17:00","-15.794096946716309","35.08362215012312","0.2","16","30","64","85","-22900","1587","9750","7","150","149.70","115.91","33.79","29.26","48.1","17.16","88776","29.50","DUALSPOT-UV-BLUE-GREEN-RED-IR","850945","735609","907995","0.262951","0.060644","0.000000","803961","913554","762913","0.158905","0.031930","0.000000","898556","916247","813615","0.119811","0.019854","0.000000","884749","935451","864807","0.086933","0.009298","0.000000","752100","864899","954222","0.070280","0.013124","0.000000","4658","3772","4658","3690","2514","3690","3045","1524","3045","2775","1070","2775","3070","2202","3070",""
"MA200-0416","27339","80","1","1.10","1.4","2023-05-24T09:17:30","120","2023/05/24","09:17:30","-15.794086158275604","35.08362215012312","0.1","16","30","64","85","-24236","2620","1576","7","150","149.61","115.45","34.16","29.31","47.7","17.05","88772","29.56","DUALSPOT-UV-BLUE-GREEN-RED-IR","836954","732686","908714","1.872924","0.498741","0.000000","792260","910008","763039","1.530314","0.406772","0.000000","887589","913742","814294","1.322960","0.347656","0.000000","870373","927763","860269","1.101088","0.282490","0.000000","741937","858351","949106","0.821964","0.217854","0.000000","81910","75332","81910","88062","81351","88062","86523","79674","86523","88133","80241","88133","90956","83728","90956",""
"MA200-0416","27340","80","1","1.10","1.4","2023-05-24T09:18:00","120","2023/05/24","09:18:00","-15.794091522693634","35.0836456567049","0.2","16","30","64","85","-22756","-2884","-12360","7","150","150.31","115.75","34.56","29.36","47.2","16.93","0","0.00","DUALSPOT-UV-BLUE-GREEN-RED-IR","833097","731081","907491","2.311857","0.617790","0.000000","789481","908588","762372","1.889282","0.501907","0.000000","885084","912733","813884","1.642781","0.432068","0.000000","873578","932557","865091","1.371365","0.351262","0.000000","744850","862637","954209","1.023782","0.270977","0.000000","22272","20234","22272","22990","20408","22990","22939","20279","22939","23426","19966","23426","24356","21474","24356",""
"MA200-0416","27341","80","1","1.10","1.4","2023-05-24T09:18:30","120","2023/05/24","09:18:30","-15.794090628623962","35.08369382470846","0.4","16","30","64","85","-23932","-6520","-6908","7","150","150.09","116.35","33.75","29.41","46.6","16.77","0","0.00","DUALSPOT-UV-BLUE-GREEN-RED-IR","834299","732927","910204","2.488209","0.662794","0.000000","790487","910516","764217","2.024615","0.535316","0.000000","885173","913511","814754","1.761984","0.460386","0.000000","868688","927898","860932","1.470112","0.372630","0.000000","691266","800968","886157","1.100580","0.290401","0.000000","8902","7833","8902","8622","7339","8622","8506","6966","8506","8514","6352","8514","9220","8040","9220",""
"MA200-0416","27342","80","1","1.10","1.4","2023-05-24T09:19:00","120","2023/05/24","09:19:00","-15.794080793857574","35.08370898663998","0.3","16","30","64","85","-24808","-2396","-2644","7","150","149.90","115.79","34.10","29.45","46.2","16.69","88760","29.56","DUALSPOT-UV-BLUE-GREEN-RED-IR","834505","733886","911663","2.636251","0.699834","0.000000","790597","911352","765090","2.137059","0.563436","0.000000","884784","913732","815108","1.854843","0.480801","0.000000","868747","928486","861611","1.547157","0.389355","0.000000","740494","858330","949710","1.159101","0.302391","0.000000","7509","6379","7509","7198","6112","7198","6657","4969","6657","6675","4920","6675","7060","4911","7060",""
"MA200-0416","27343","80","1","1.10","1.4","2023-05-24T09:19:30","120","2023/05/24","09:19:30","-15.79408860206604","35.08369932323694","0.0","16","30","64","85","-23672","-7996","-6864","7","150","149.53","115.84","33.69","29.49","45.8","16.59","88764","29.56","DUALSPOT-UV-BLUE-GREEN-RED-IR","832053","732241","909784","2.727646","0.723278","0.000000","788108","908918","763167","2.199405","0.577264","0.000000","883454","912673","814255","1.907146","0.491917","0.000000","867419","927382","860636","1.586771","0.395220","0.000000","739348","857279","948548","1.189621","0.308959","0.000000","4634","4087","4634","3990","3042","3990","3748","2739","3748","3430","1746","3430","3680","2723","3680",""
"MA200-0416","27344","80","1","1.10","1.4","2023-05-24T09:20:00","120","2023/05/24","09:20:00","-15.794085502624512","35.08367799222469","0.0","16","30","64","85","-23676","-7996","-6843","7","150","150.21","116.25","33.96","29.52","45.5","16.51","88760","29.56","DUALSPOT-UV-BLUE-GREEN-RED-IR","825024","726470","902818","2.805379","0.741643","0.000000","789176","910527","764597","2.252162","0.588315","0.000000","884155","913737","815294","1.950467","0.499350","0.000000","868638","928908","862065","1.618307","0.400084","0.000000","739928","858090","949522","1.214717","0.312771","0.000000","3927","3176","3927","3364","2412","3364","3093","1817","3093","2721","1436","2721","3015","1567","3015",""
"MA200-0416","27345","80","1","1.10","1.4","2023-05-24T09:20:30","120","2023/05/24","09:20:30","-15.794099986553192","35.08366799354553","0.5","16","30","64","85","-23653","-6876","-7650","7","150","150.17","116.02","34.16","29.56","45.2","16.44","88768","29.56","DUALSPOT-UV-BLUE-GREEN-RED-IR","824489","726476","902981","2.886655","0.760458","0.000000","788838","910528","764714","2.307755","0.601381","0.000000","883417","913328","814959","1.993888","0.508678","0.000000","868320","928871","862090","1.652860","0.405019","0.000000","739603","857871","949336","1.239486","0.317242","0.000000","4114","3235","4114","3552","2835","3552","3107","2267","3107","2987","1449","2987","2982","1828","2982",""
"MA200-0416","27346","80","1","1.10","1.4","2023-05-24T09:21:00","120","2023/05/24","09:21:00","-15.794110655784607","35.08366882055998","0.2","16","30","64","85","-23880","-7424","-6852","7","150","150.70","115.84","34.86","29.59","45.0","16.41","88760","29.63","DUALSPOT-UV-BLUE-GREEN-RED-IR","830736","732514","910706","2.986211","0.783338","0.000000","788003","910069","764429","2.375358","0.615972","0.000000","882487","912783","814562","2.049655","0.519878","0.000000","867669","928486","861780","1.693737","0.411391","0.000000","743682","862868","954915","1.271902","0.324208","0.000000","5048","3854","5048","4326","3102","4326","3996","2667","3996","3540","1833","3540","3909","2791","3909",""
"MA200-0416","27347","80","1","1.10","1.4","2023-05-24T09:21:30","120","2023/05/24","09:21:30","-15.794102668762207","35.08366832882166","0.1","16","30","64","85","-23765","-7346","-7188","7","150","149.45","115.67","33.77","29.63","45.0","16.45","88760","29.63","DUALSPOT-UV-BLUE-GREEN-RED-IR","823448","726669","903677","3.092798","0.809663","-0.085287","788356","910967","765293","2.447820","0.630903","0.000000","882763","913463","815276","2.107936","0.530910","0.000000","867455","928606","861961","1.738530","0.420337","0.000000","739222","857897","949502","1.302715","0.329973","0.000000","5412","4578","4282","4643","3277","4643","4183","2711","4183","3885","2657","3885","3721","2384","3721",""
"MA200-0416","27348","80","1","1.10","1.4","2023-05-24T09:22:00","120","2023/05/24","09:22:00","-15.794107735157013","35.083658650517464","0.1","16","30","64","85","-23860","-6815","-7456","7","150","149.76","115.56","34.21","29.66","45.1","16.50","88760","29.69","DUALSPOT-UV-BLUE-GREEN-RED-IR","824052","727637","905045","3.175868","0.831338","-0.060219","788978","912040","766287","2.501243","0.642091","0.000000","883099","914135","815934","2.151346","0.538451","0.000000","867883","929310","862682","1.771563","0.424867","0.000000","739298","858122","949763","1.327076","0.335106","0.000000","4222","3721","3544","3427","2424","3427","3118","1830","3118","2867","1328","2867","2944","2096","2944",""
"MA200-0416","27349","80","1","1.10","1.4","2023-05-24T09:22:30","120","2023/05/24","09:22:30","-15.794127404689789","35.08365797996521","0.3","16","30","64","85","-23079","-10516","-5537","7","150","149.96","115.24","34.73","29.71","45.1","16.55","88756","29.75","DUALSPOT-UV-BLUE-GREEN-RED-IR","824520","728531","906401","3.259739","0.852943","-0.075117","783796","906492","761720","2.557278","0.655426","0.000000","883346","914732","816553","2.197045","0.549263","0.000000","869325","931102","864405","1.805275","0.429647","0.000000","739852","858907","950709","1.351797","0.339974","0.000000","4274","3654","3434","3604","2846","3604","3292","2584","3292","2935","1381","2935","2996","1958","2996",""
"MA200-0416","27350","80","1","1.10","1.4","2023-05-24T09:23:00","120","2023/05/24","09:23:00","-15.794142544269562","35.083633817732334","0.1","16","30","64","85","-23040","-10404","-6104","7","150","150.11","115.90","34.21","29.75","45.3","16.63","88760","29.75","DUALSPOT-UV-BLUE-GREEN-RED-IR","823570","728120","906076","3.341163","0.872583","-0.098348","783798","906814","762114","2.612012","0.667804","0.000000","883106","914791","816691","2.240485","0.557589","0.000000","869965","932085","865340","1.838409","0.435381","0.000000","740017","859312","951160","1.376985","0.344433","0.000000","4126","3372","3105","3500","2682","3500","3111","2020","3111","2868","1681","2868","3035","1821","3035",""
"MA200-0416","27351","80","1","1.10","1.4","2023-05-24T09:23:30","120","2023/05/24","09:23:30","-15.79413217306137","35.08365149050951","0.0","16","30","64","85","-23532","-8464","-7000","7","150","149.80","115.22","34.58","29.78","45.3","16.68","88760","29.81","DUALSPOT-UV-BLUE-GREEN-RED-IR","824166","729553","908227","3.485444","0.909730","-0.068258","783987","907894","763216","2.715629","0.692672","0.000000","883148","915505","817509","2.324874","0.577772","0.000000","869329","931918","865357","1.906055","0.451558","0.000000","739659","859255","951256","1.426559","0.357142","0.000000","7355","6310","5941","6666","5331","6666","6080","4846","6080","5890","4693","5890","6010","5134","6010",""
"MA200-0416","27352","80","1","1.10","1.4","2023-05-24T09:24:00","120","2023/05/24","09:24:00","-15.794155478477478","35.083648815751076","0.0","16","30","64","85","-23944","-6536","-7311","7","150","149.33","115.31","34.01","29.81","45.3","16.70","88752","29.81","DUALSPOT-UV-BLUE-GREEN-RED-IR","822598","729086","908079","3.665419","0.959245","-0.027325","782538","907061","762784","2.846628","0.727844","0.000000","881659","914712","817050","2.434796","0.605935","0.000000","869513","932727","866286","1.993042","0.472408","0.000000","739342","859299","951442","1.490169","0.373639","0.000000","9167","8550","8332","8421","7666","8421","7914","6874","7914","7568","6150","7568","7705","6775","7705",""
"MA200-0416","27353","80","1","1.10","1.4","2023-05-24T09:24:30","120","2023/05/24","09:24:30","-15.794159054756165","35.08363415300846","0.0","16","30","64","85","-23958","-6325","-7087","7","150","149.53","115.46","34.06","29.86","45.4","16.77","88756","29.81","DUALSPOT-UV-BLUE-GREEN-RED-IR","821629","728766","907929","3.782191","0.989835","-0.047328","782518","907566","763339","2.931648","0.749416","0.000000","881565","915033","817439","2.505970","0.623858","0.000000","869712","933284","866870","2.047962","0.484347","0.000000","739299","859461","951722","1.529806","0.383196","0.000000","5940","5274","5038","5458","4694","5458","5117","4368","5117","4772","3516","4772","4795","3919","4795",""
"MA200-0416","27354","80","1","1.10","1.4","2023-05-24T09:25:00","120","2023/05/24","09:25:00","-15.794155478477478","35.083615981042385","0.0","16","30","64","85","-24000","-6964","-6875","7","150","149.64","114.77","34.86","29.89","45.6","16.87","88752","29.88","DUALSPOT-UV-BLUE-GREEN-RED-IR","822444","729834","909457","3.856726","1.009649","-0.052758","783423","908943","764588","2.982694","0.760717","0.000000","881192","914953","817402","2.546370","0.630969","0.000000","862852","926197","860305","2.079147","0.489139","0.000000","739045","859292","951582","1.551784","0.387157","0.000000","3814","3338","3169","3297","2403","3297","2922","1693","2922","2725","1379","2725","2675","1587","2675",""
"MA200-0416","27355","80","1","1.10","1.4","2023-05-24T09:25:30","120","2023/05/24","09:25:30","-15.794154703617096","35.08363764733076","0.0","16","30","64","85","-23636","-7284","-7856","7","150","149.45","115.24","34.21","29.93","45.8","16.99","88756","29.88","DUALSPOT-UV-BLUE-GREEN-RED-IR","822177","730089","909949","3.937806","1.031587","-0.034638","782936","908756","764504","3.036111","0.772352","-0.183028","876478","910355","813385","2.589238","0.640052","0.000000","864415","928093","862148","2.111154","0.494938","0.000000","739273","859753","952109","1.575149","0.391592","0.000000","4132","3766","3636","3436","2521","2208","3088","2204","3088","2786","1700","2786","2832","1811","2832",""
"MA200-0416","27356","80","1","1.10","1.4","2023-05-24T09:26:00","120","2023/05/24","09:26:00","-15.794164836406708","35.08364548534155","0.0","16","30","64","84","-23258","-9958","-6133","7","150","150.71","115.84","34.87","29.97","46.0","17.09","88756","29.94","DUALSPOT-UV-BLUE-GREEN-RED-IR","823224","731480","911883","4.023732","1.053148","-0.072329","779163","904726","761236","3.093487","0.786823","-0.089809","876721","910936","813987","2.634603","0.650198","0.000000","864260","928181","862284","2.146339","0.501483","0.000000","739420","860110","952562","1.601728","0.397124","0.000000","4356","3631","3374","3671","3076","2873","3251","2415","3251","3047","1883","3047","3205","2215","3205",""
"MA200-0416","27357","80","1","1.10","1.4","2023-05-24T09:26:30","120","2023/05/24","09:26:30","-15.794162154197693","35.08362965285778","0.8","16","30","64","84","-23313","-7908","-7283","7","150","149.73","115.46","34.27","30.02","46.1","17.15","88756","30.00","DUALSPOT-UV-BLUE-GREEN-RED-IR","816329","725855","905095","4.114368","1.076677","-0.049700","779394","905481","761985","3.154528","0.799894","-0.188695","876839","911418","814511","2.683169","0.660294","0.000000","865289","929592","863662","2.184009","0.508821","0.000000","735338","855557","947576","1.628511","0.403845","0.000000","4610","4032","3828","3919","2827","2456","3492","2446","3492","3273","2148","3273","3240","2739","3240",""
"MA200-0416","27358","80","1","1.10","1.4","2023-05-24T09:27:00","120","2023/05/24","09:27:00","-15.794163167476654","35.08343031257391","0.9","16","30","64","84","-22012","-9324","-5888","7","150","150.69","115.79","34.90","30.06","46.2","17.22","88788","30.06","DUALSPOT-UV-BLUE-GREEN-RED-IR","816545","726474","906057","4.199151","1.098604","-0.056640","780046","906568","763022","3.211498","0.814319","-0.084852","877309","912253","815334","2.731306","0.669324","0.000000","866562","931185","865191","2.219969","0.514834","0.000000","740370","861540","954275","1.655517","0.409098","0.000000","4300","3690","3474","3647","3064","2866","3451","2148","3451","3115","1728","3115","3258","2102","3258",""
"MA200-0416","27359","80","1","1.10","1.4","2023-05-24T09:27:30","120","2023/05/24","09:27:30","-15.794179379940033","35.083122819662094","1.3","16","30","64","84","-22020","-8812","-6588","7","150","150.38","115.89","34.49","30.10","46.3","17.31","88812","30.06","DUALSPOT-UV-BLUE-GREEN-RED-IR","815916","726391","906151","4.286600","1.122480","-0.029429","779160","905974","762594","3.268230","0.825935","-0.219429","876321","911532","814745","2.775663","0.677812","0.000000","865490","930324","864444","2.255076","0.521457","0.000000","739651","860881","953589","1.680873","0.414420","0.000000","4432","4065","3935","3629","2496","2113","3177","2042","3177","3039","1926","3039","3056","2155","3056",""
"MA200-0416","27360","80","1","1.10","1.4","2023-05-24T09:28:00","120","2023/05/24","09:28:00","-15.794268548488617","35.08283281326294","1.2","16","30","64","84","-23919","-8434","-6223","7","150","150.23","115.79","34.43","30.15","46.4","17.40","88848","30.13","DUALSPOT-UV-BLUE-GREEN-RED-IR","818867","729573","910393","4.387190","1.148092","-0.055140","776997","903918","760972","3.328854","0.839120","-0.168373","878455","914066","817118","2.822906","0.689506","0.000000","862787","927701","862077","2.289402","0.526958","0.000000","737004","857999","950424","1.704727","0.419504","0.000000","5102","4368","4108","3881","2838","2487","3387","2819","3387","2974","1602","2974","2877","2062","2877",""
"MA200-0416","27361","80","1","1.10","1.4","2023-05-24T09:28:30","120","2023/05/24","09:28:30","-15.79426497220993","35.08254947513342","1.0","16","30","64","84","-21536","-9524","-8448","7","150","149.59","115.67","33.92","30.20","46.6","17.50","88876","30.25","DUALSPOT-UV-BLUE-GREEN-RED-IR","812952","724747","904583","4.474643","1.174526","0.008926","782515","910684","766742","3.381693","0.852890","-0.051788","875029","910843","814291","2.864015","0.697869","0.000000","865260","930575","864759","2.319276","0.531500","0.000000","738309","859634","952289","1.726469","0.423584","0.000000","4440","4577","4625","3386","3009","2881","2950","2046","2950","2591","1343","2591","2625","1680","2625",""
"MA200-0416","27362","80","1","1.10","1.4","2023-05-24T09:29:00","120","2023/05/24","09:29:00","-15.793995320796967","35.08254797756672","1.0","16","30","64","84","-21768","-9792","-7147","7","150","150.13","115.81","34.32","30.25","46.6","17.55","88900","30.31","DUALSPOT-UV-BLUE-GREEN-RED-IR","811678","724221","904193","4.582180","1.203529","-0.030323","777282","905058","762155","3.447419","0.869525","-0.070342","873868","910031","813668","2.915310","0.708354","0.000000","863943","929490","863832","2.358424","0.539403","0.000000","737255","858612","951255","1.753871","0.430266","0.000000","5454","4963","4788","4207","3593","3386","3677","2536","3677","3391","2310","3391","3305","2719","3305",""
"MA200-0416","27363","80","1","1.10","1.4","2023-05-24T09:29:30","120","2023/05/24","09:29:30","-15.793715476989746","35.08251614868641","0.7","16","30","64","84","-22820","-8376","-4228","7","150","149.40","115.96","33.44","30.31","46.4","17.55","88920","30.31","DUALSPOT-UV-BLUE-GREEN-RED-IR","815168","727851","908999","4.688701","1.232526","-0.017537","779764","908333","765030","3.509903","0.884975","-0.067108","876455","912986","816406","2.963001","0.720018","0.000000","861227","926808","861385","2.394420","0.546193","0.000000","739528","861416","954391","1.780510","0.436184","0.000000","5395","5093","4985","3994","3425","3233","3414","2896","3414","3114","2036","3114","3209","2472","3209",""
"MA200-0416","27364","80","1","1.10","1.4","2023-05-24T09:30:00","120","2023/05/24","09:30:00","-15.793381035327911","35.082592472434044","1.4","16","30","64","84","-24544","-7840","-1096","7","150","149.55","115.96","33.59","30.35","46.1","17.47","88924","30.38","DUALSPOT-UV-BLUE-GREEN-RED-IR","815384","728584","910192","4.798157","1.264194","-0.000375","774959","903100","760741","3.567147","0.899948","-0.041863","877146","914029","817384","3.005665","0.728940","-0.193031","862834","928742","863246","2.424124","0.551855","0.000000","740482","862674","955812","1.802295","0.440595","0.000000","5544","5536","5534","3659","3304","3184","3054","2205","1933","2569","1691","2569","2624","1834","2624",""
"MA200-0416","27365","80","1","1.10","1.4","2023-05-24T09:30:30","120","2023/05/24","09:30:30","-15.793117880821228","35.082672983407974","0.7","16","30","64","84","-22872","-8740","-6708","7","150","150.14","116.00","34.14","30.40","45.7","17.39","88948","30.38","DUALSPOT-UV-BLUE-GREEN-RED-IR","815081","728783","910671","4.886198","1.288276","-0.021718","780155","909485","766205","3.616601","0.913471","-0.028996","876339","913441","816946","3.044337","0.738901","-0.064894","862373","928490","863056","2.452298","0.557577","0.000000","740079","862349","955510","1.821777","0.444875","0.000000","4457","4142","4030","3160","2936","2860","2767","2421","2311","2436","1681","2436","2346","1751","2346",""
"MA200-0416","27366","80","1","1.10","1.4","2023-05-24T09:31:00","120","2023/05/24","09:31:00","-15.792915344238281","35.08274547755718","1.0","16","30","64","84","-24336","-8824","-5416","7","150","150.39","115.64","34.76","30.45","45.3","17.28","88952","30.38","DUALSPOT-UV-BLUE-GREEN-RED-IR","810597","727754","910975","5.137086","1.363361","-0.001164","773474","903495","761763","3.742176","0.947399","-0.041869","874483","912705","816659","3.128433","0.759614","-0.100126","861283","928117","862934","2.510472","0.570696","0.000000","739029","861550","954778","1.858446","0.453962","0.000000","12743","12687","12667","8050","7236","6960","6037","4947","4597","5047","3786","5047","4429","3651","4429",""
"MA200-0416","27367","80","1","1.10","1.4","2023-05-24T09:31:30","120","2023/05/24","09:31:30","-15.792940199375153","35.08276614546776","0.6","16","30","64","84","-24036","-6296","-4908","7","150","150.03","116.07","33.96","30.48","45.0","17.21","88928","30.38","DUALSPOT-UV-BLUE-GREEN-RED-IR","807466","727183","911391","5.909252","1.589834","0.000576","772549","903746","762349","4.091799","1.040966","-0.031553","874118","913341","817497","3.368014","0.820673","-0.060989","861364","928949","863920","2.672199","0.606513","0.000000","739091","862035","955440","1.950244","0.474255","0.000000","39074","39172","39208","22330","20426","19776","17136","14928","14216","13979","10581","13979","11048","8348","11048",""
"MA200-0416","27368","80","1","1.10","1.4","2023-05-24T09:32:00","120","2023/05/24","09:32:00","-15.792900800704956","35.0828203111887","0.1","16","30","64","84","-23144","-8868","-7200","7","150","149.70","115.27","34.42","30.52","44.8","17.18","88928","30.44","DUALSPOT-UV-BLUE-GREEN-RED-IR","800894","721538","904435","5.958210","1.603403","-0.018303","772414","903852","762474","4.127097","1.048141","-0.181249","869613","908854","813512","3.395176","0.824022","-1.015705","862910","930827","865662","2.692490","0.608020","0.000000","734965","857340","950248","1.965995","0.477029","0.000000","2494","2315","2249","2269","1545","1298","1956","807","439","1766","439","1766","1908","1125","1908",""
"MA200-0416","27369","80","1","1.10","1.4","2023-05-24T09:32:30","120","2023/05/24","09:32:30","-15.79289823770523","35.08285831660032","0.3","16","30","64","84","-23284","-8424","-7240","7","150","149.57","115.59","33.97","30.56","44.6","17.14","88932","30.50","DUALSPOT-UV-BLUE-GREEN-RED-IR","801293","722189","905420","6.016403","1.619991","-0.007138","772730","904467","763063","4.163819","1.056993","-0.076250","869785","909229","813936","3.425628","0.831330","-0.093315","863543","931681","866476","2.713909","0.612199","0.000000","735298","857871","950862","1.981535","0.479184","0.000000","2956","2867","2835","2355","1931","1787","2187","1785","1657","1859","1234","1859","1877","885","1877",""
"MA200-0416","27370","80","1","1.10","1.4","2023-05-24T09:33:00","120","2023/05/24","09:33:00","-15.792815506458282","35.08296298235655","0.3","16","30","64","84","-23724","-9352","-2316","7","150","149.70","115.67","34.03","30.60","44.4","17.08","88916","30.44","DUALSPOT-UV-BLUE-GREEN-RED-IR","801412","722780","906353","6.102800","1.643529","-0.018405","773479","905670","764192","4.212743","1.070446","-0.022738","869475","909164","813935","3.461051","0.838816","-0.170833","856999","924799","860133","2.738755","0.615483","0.000000","734900","857511","950503","2.000480","0.483213","0.000000","4387","4063","3944","3135","2931","2861","2542","1826","1597","2154","968","2154","2288","1654","2288",""
"MA200-0416","27371","80","1","1.10","1.4","2023-05-24T09:33:30","120","2023/05/24","09:33:30","-15.792770028114319","35.08301914483309","0.6","16","30","64","83","-23908","-4676","-3239","7","150","150.09","115.51","34.58","30.64","44.1","17.04","88912","30.44","DUALSPOT-UV-BLUE-GREEN-RED-IR","799334","721232","904618","6.171465","1.663232","-0.009759","771908","904172","762979","4.254943","1.079143","-0.168383","868327","908229","813142","3.494060","0.845193","-0.251581","854909","922741","858240","2.762757","0.619232","0.000000","734126","856702","949647","2.017129","0.486001","0.000000","3491","3346","3293","2708","1864","1577","2372","1531","1262","2084","1087","2084","2013","1126","2013",""
"MA200-0416","27372","80","1","1.10","1.4","2023-05-24T09:34:00","120","2023/05/24","09:34:00","-15.79270452260971","35.08308181166649","0.2","16","30","64","84","-23800","-8353","-5069","7","150","149.53","115.38","34.15","30.67","43.8","16.95","88892","30.50","DUALSPOT-UV-BLUE-GREEN-RED-IR","801434","723465","907556","6.235977","1.680967","-0.017316","772942","905622","764304","4.296327","1.090032","-0.040658","870396","910575","815295","3.525686","0.852663","-0.103052","857783","926030","861325","2.785892","0.623219","0.000000","735612","858537","951734","2.034401","0.490771","0.000000","3284","3050","2964","2659","2363","2263","2275","1815","1669","2011","1171","2011","2091","1951","2091",""
"MA200-0416","27373","80","1","1.10","1.4","2023-05-24T09:34:30","120","2023/05/24","09:34:30","-15.792686104774475","35.08310713618994","0.0","16","30","64","84","-23264","-10364","-4636","7","150","149.53","115.75","33.77","30.72","43.5","16.87","88888","30.44","DUALSPOT-UV-BLUE-GREEN-RED-IR","800162","722592","906631","6.292172","1.697448","0.001122","772723","905597","764364","4.331064","1.098775","-0.052082","869581","909895","814724","3.551596","0.857996","-0.178692","858205","926607","861901","2.804626","0.625658","0.000000","735218","858204","951350","2.048965","0.493413","0.000000","2851","2866","2871","2224","1919","1815","1858","1311","1136","1623","724","1623","1757","1093","1757",""
"MA200-0416","27374","80","1","1.10","1.4","2023-05-24T09:35:00","120","2023/05/24","09:35:00","-15.792689383029938","35.08315747231245","0.1","16","30","64","83","-23800","-8460","-756","7","150","150.35","116.04","34.31","30.72","43.2","16.76","88872","30.44","DUALSPOT-UV-BLUE-GREEN-RED-IR","798565","721478","905375","6.351871","1.714157","-0.012415","771477","904365","763388","4.367834","1.108141","-0.052192","867934","908383","813439","3.582281","0.865000","-0.119951","855086","923426","858956","2.827362","0.629174","0.000000","733776","856642","949641","2.065977","0.495357","0.000000","3021","2860","2800","2349","2023","1912","2195","1694","1535","1965","1028","1965","2047","791","2047",""
"MA200-0416","27375","80","1","1.10","1.4","2023-05-24T09:35:30","120","2023/05/24","09:35:30","-15.792686223983765","35.08333147317171","0.5","16","30","64","84","-23880","-5996","-867","7","150","150.49","116.46","34.03","30.72","42.9","16.66","88844","30.44","DUALSPOT-UV-BLUE-GREEN-RED-IR","800132","723305","907859","6.426779","1.734037","-0.022340","772669","906128","764958","4.414749","1.119083","-0.083872","868544","909304","814320","3.617352","0.871408","-0.269441","857159","925886","861271","2.852356","0.633668","0.000000","734435","857520","950673","2.083705","0.499402","0.000000","3777","3431","3303","2986","2383","2179","2500","1563","1266","2153","1325","2153","2126","1660","2126",""
"MA200-0416","27376","80","1","1.10","1.4","2023-05-24T09:36:00","120","2023/05/24","09:36:00","-15.79260241985321","35.08344265073538","0.3","16","30","64","84","-23072","-9896","-2844","7","150","150.56","115.83","34.73","30.74","42.7","16.60","88816","30.38","DUALSPOT-UV-BLUE-GREEN-RED-IR","799596","723272","907979","6.511513","1.757692","-0.015980","772388","906143","765049","4.467362","1.132513","-0.055622","868779","909846","814882","3.658599","0.880677","-0.134517","856729","925613","861074","2.882160","0.639086","0.000000","734243","857447","950604","2.104478","0.502586","0.000000","4296","4001","3891","3367","2866","2697","2956","2215","1981","2581","1565","2581","2505","1280","2505",""
"MA200-0416","27377","80","1","1.10","1.4","2023-05-24T09:36:30","120","2023/05/24","09:36:30","-15.79254138469696","35.0835889801383","1.0","16","30","64","84","-24624","-5176","-2292","7","150","149.76","115.35","34.41","30.76","42.4","16.52","88792","30.38","DUALSPOT-UV-BLUE-GREEN-RED-IR","798276","722410","907092","6.580473","1.775957","-0.027556","771646","905562","764647","4.508561","1.142234","-0.086176","867428","908657","813872","3.690570","0.886696","-0.255638","862695","932225","867272","2.904376","0.642073","0.000000","733511","856716","949851","2.121868","0.506114","0.000000","3511","3117","2972","2647","2094","1906","2301","1452","1184","1932","870","1932","2105","1432","2105",""
"MA200-0416","27378","80","1","1.10","1.4","2023-05-24T09:37:00","120","2023/05/24","09:37:00","-15.792376399040222","35.08357264846563","0.7","16","30","64","84","-24500","-1908","1600","7","150","149.94","115.92","34.02","30.79","42.2","16.48","88776","30.38","DUALSPOT-UV-BLUE-GREEN-RED-IR","797509","722063","906791","6.642812","1.791580","-0.037621","770709","904738","764018","4.549485","1.150930","-0.128775","867345","908825","814066","3.722751","0.893616","-0.145712","862552","932234","867310","2.927938","0.645798","0.000000","733387","856701","949838","2.137893","0.508889","0.000000","3158","2697","2527","2617","1894","1650","2304","1688","1494","2039","1098","2039","1931","1139","1931",""
"MA200-0416","27379","80","1","1.10","1.4","2023-05-24T09:37:30","120","2023/05/24","09:37:30","-15.792218923568726","35.08349098265171","0.9","16","30","64","83","-22484","-9672","-6312","7","150","150.09","115.51","34.58","30.80","42.1","16.45","88776","30.38","DUALSPOT-UV-BLUE-GREEN-RED-IR","796974","722254","907396","6.732423","1.816255","-0.018324","770707","905183","764522","4.599768","1.163030","-0.077395","867628","909451","814744","3.761065","0.901592","-0.177780","861755","931651","866797","2.954408","0.649076","0.000000","733134","856539","949697","2.155389","0.511574","0.000000","4556","4191","4056","3226","2593","2379","2753","1914","1650","2298","951","2298","2115","1084","2115",""
"MA200-0416","27380","80","1","1.10","1.4","2023-05-24T09:38:00","120","2023/05/24","09:38:00","-15.792159080505371","35.08347316086292","0.8","16","30","64","83","-24472","-7352","-4480","7","150","149.39","115.12","34.27","30.82","41.8","16.36","88772","30.38","DUALSPOT-UV-BLUE-GREEN-RED-IR","790465","719827","906258","7.439728","2.032142","0.004517","767736","903799","764012","4.917711","1.249534","-0.026530","864584","907684","813603","3.976506","0.958943","-0.040744","860544","931371","866855","3.099708","0.684666","-0.094987","736690","861232","955103","2.237695","0.530199","0.000000","36089","37001","37343","20475","18712","18112","15537","13893","13371","12663","10419","9782","9987","7591","9987",""
"MA200-0416","27381","80","1","1.10","1.4","2023-05-24T09:38:30","120","2023/05/24","09:38:30","-15.791978597640991","35.08365365117788","0.4","16","30","64","83","-24124","-7643","408","7","150","149.90","115.43","34.46","30.84","41.6","16.29","88748","30.38","DUALSPOT-UV-BLUE-GREEN-RED-IR","790529","720175","906788","7.523781","2.056053","-0.009220","767293","903529","763872","4.971451","1.264101","-0.028334","864699","908036","813988","4.019660","0.967753","-0.177518","854456","925015","860963","3.133477","0.691503","-0.224585","732387","856367","949715","2.259193","0.533635","0.000000","4276","4075","3999","3451","3133","3025","3103","2122","1811","2935","1990","1722","2601","1392","2601",""
"MA200-0416","27382","80","1","1.10","1.4","2023-05-24T09:39:00","120","2023/05/24","09:39:00","-15.791934549808502","35.083696983754635","0.9","16","30","64","83","-22545","-9245","-3441","7","150","150.09","116.03","34.06","30.85","41.4","16.23","88748","30.38","DUALSPOT-UV-BLUE-GREEN-RED-IR","790740","720590","907466","7.575341","2.070327","-0.011230","767456","903946","764263","5.008203","1.272661","-0.076509","864988","908567","814508","4.048681","0.975287","-0.044426","859861","930995","866590","3.155088","0.695758","-0.231717","732541","856632","950042","2.274667","0.537046","0.000000","2610","2461","2405","2348","1862","1697","2076","1836","1759","1868","1253","1079","1863","1398","1863",""
"MA200-0416","27383","80","1","1.10","1.4","2023-05-24T09:39:30","120","2023/05/24","09:39:30","-15.792130529880524","35.083814822137356","0.5","16","30","64","83","-23552","-8464","-4588","7","150","149.50","115.48","34.02","30.86","41.3","16.19","88748","30.38","DUALSPOT-UV-BLUE-GREEN-RED-IR","790054","720201","907085","7.616748","2.082008","-0.008141","767386","904103","764438","5.038750","1.279628","-0.086110","863947","907640","813718","4.075420","0.980550","-0.190415","860000","931322","866897","3.173915","0.698149","-0.849610","736169","860980","954916","2.289184","0.539770","0.000000","2106","2016","1983","1961","1518","1367","1922","1284","1082","1635","704","442","1756","1118","1756",""
"MA200-0416","27384","80","1","1.10","1.4","2023-05-24T09:40:00","120","2023/05/24","09:40:00","-15.792181074619293","35.08388181775808","0.8","16","30","64","83","-23052","-8222","-5627","7","150","150.01","115.84","34.17","30.87","41.4","16.25","88756","30.44","DUALSPOT-UV-BLUE-GREEN-RED-IR","789811","720233","907232","7.663221","2.093912","-0.028884","762391","898458","759737","5.074280","1.286584","-0.161614","864167","908084","814173","4.103315","0.984728","-0.448069","853428","924328","860421","3.194416","0.700109","-2.013954","731615","855764","949103","2.302377","0.541461","0.000000","2356","2046","1929","2273","1509","1249","1999","1015","704","1775","575","238","1591","691","1591",""
"MA200-0416","27385","80","1","1.10","1.4","2023-05-24T09:40:30","120","2023/05/24","09:40:30","-15.792221367359161","35.084075316786766","0.6","16","30","64","83","-24580","-7738","-2530","7","150","149.90","115.63","34.26","30.90","41.4","16.27","88732","30.50","DUALSPOT-UV-BLUE-GREEN-RED-IR","793112","723441","911422","7.705907","2.106754","0.002683","765566","902373","763151","5.104595","1.295131","-0.013622","865808","909993","815929","4.126990","0.990128","-0.105319","857901","929344","865106","3.213455","0.704836","-0.081568","733914","858521","952199","2.315416","0.544582","0.000000","2168","2201","2213","1943","1849","1817","1699","1308","1184","1651","1384","1308","1575","1272","1575",""
"MA200-0416","27386","80","1","1.10","1.4","2023-05-24T09:41:00","120","2023/05/24","09:41:00","-15.79207068681717","35.084208980202675","0.8","16","30","64","83","-23420","-7745","-6954","7","150","149.96","115.47","34.49","30.93","41.3","16.25","88732","30.56","DUALSPOT-UV-BLUE-GREEN-RED-IR","787565","718680","905557","7.761002","2.123531","0.003376","766571","903841","764429","5.142367","1.303733","-0.090730","866403","910839","816711","4.155272","0.996739","-0.096392","859060","930789","866509","3.236610","0.709939","-0.156270","734408","859260","953083","2.334221","0.549394","0.000000","2802","2857","2877","2424","1849","1653","2033","1591","1451","2011","1484","1336","2274","1949","2274",""
"MA200-0416","27387","80","1","1.10","1.4","2023-05-24T09:41:30","120","2023/05/24","09:41:30","-15.791918694972992","35.08425430953503","0.9","16","30","64","83","-22604","-8900","-7068","7","150","149.96","115.35","34.61","30.95","41.2","16.23","88736","30.63","DUALSPOT-UV-BLUE-GREEN-RED-IR","786741","718312","905231","7.828085","2.141555","-0.021441","765544","902966","763779","5.186123","1.315708","-0.025719","862424","906885","813235","4.190773","1.004672","-0.120564","852203","923519","859789","3.259782","0.713425","-0.540941","730164","854350","947681","2.350729","0.553561","0.000000","3415","3059","2924","2811","2565","2481","2555","1903","1697","2015","1010","729","1999","1681","1999",""
"MA200-0416","27388","80","1","1.10","1.4","2023-05-24T09:42:00","120","2023/05/24","09:42:00","-15.791667819023132","35.084246806800365","1.0","16","30","64","83","-23792","-9048","-6336","7","150","149.96","115.67","34.29","30.97","41.1","16.23","88744","30.69","DUALSPOT-UV-BLUE-GREEN-RED-IR","788691","720599","908389","7.929117","2.168319","-0.021632","762577","899919","761376","5.264527","1.336509","-0.031107","862956","907863","814269","4.255938","1.021254","-0.053790","854734","926620","862784","3.311869","0.726389","-0.078071","735383","860752","954826","2.389431","0.561733","0.000000","5130","4584","4379","5024","4497","4317","4677","4014","3805","4517","3793","3589","4673","3329","4673",""
"MA200-0416","27389","80","1","1.10","1.4","2023-05-24T09:42:30","120","2023/05/24","09:42:30","-15.791406333446503","35.08421082049608","0.8","16","30","64","83","-23808","-8612","-6364","7","150","149.38","115.31","34.06","31.00","41.1","16.25","88752","30.69","DUALSPOT-UV-BLUE-GREEN-RED-IR","789529","721751","910015","7.993498","2.187296","-0.000383","763499","901355","762673","5.305314","1.344341","-0.166354","863158","908371","814782","4.288900","1.028043","-0.154267","855781","927964","864049","3.336984","0.731056","-0.271185","731485","856302","949938","2.405391","0.564841","0.000000","3279","3271","3269","2622","1704","1392","2373","1654","1428","2185","1374","1147","1933","1274","1933",""
"MA200-0416","27390","80","1","1.10","1.4","2023-05-24T09:43:00","120","2023/05/24","09:43:00","-15.791136682033539","35.08422181755304","0.7","16","30","64","83","-23612","-9120","-8000","7","150","149.66","115.79","33.87","31.04","41.1","16.28","88760","30.81","DUALSPOT-UV-BLUE-GREEN-RED-IR","788786","721364","909670","8.059995","2.206236","-0.004634","762008","899875","761511","5.348587","1.357151","0.002994","863387","908782","815216","4.321540","1.036698","-0.032411","855542","927825","863979","3.357290","0.735223","-0.184193","731613","856532","950219","2.420576","0.568795","0.000000","3373","3284","3251","2770","2804","2815","2340","2121","2052","1759","1234","1087","1831","1630","1831",""
"MA200-0416","27391","80","1","1.10","1.4","2023-05-24T09:43:30","120","2023/05/24","09:43:30","-15.790926992893219","35.08435282111168","0.5","17","30","64","83","-23620","-8516","-7875","7","150","150.36","115.99","34.37","31.06","41.1","16.30","88780","30.81","DUALSPOT-UV-BLUE-GREEN-RED-IR","783951","717276","904691","8.125244","2.225628","0.000513","764040","902570","763859","5.390435","1.367647","-0.048046","864364","910077","816414","4.353470","1.043898","-0.105302","850474","922546","859115","3.382622","0.739890","-0.277434","733012","858262","952189","2.436309","0.572919","0.000000","3304","3314","3317","2674","2264","2124","2285","1739","1567","2191","1362","1130","1894","1676","1894",""
"MA200-0416","27392","80","1","1.10","1.4","2023-05-24T09:44:00","120","2023/05/24","09:44:00","-15.790829956531525","35.084535643458366","1.0","17","30","64","83","-23056","-8860","-7008","7","150","149.83","115.59","34.24","31.09","41.1","16.31","88808","30.88","DUALSPOT-UV-BLUE-GREEN-RED-IR","784160","718112","906123","8.240414","2.259435","-0.001509","764970","904117","765296","5.454586","1.384771","-0.027966","864666","910730","817117","4.401577","1.056498","-0.040799","850850","923188","859782","3.415186","0.747776","-0.089207","733194","858627","952657","2.458871","0.577801","0.000000","5852","5799","5780","4114","3707","3569","3455","3055","2929","2826","2310","2166","2726","1991","2726",""
"MA200-0416","27393","80","1","1.10","1.4","2023-05-24T09:44:30","120","2023/05/24","09:44:30","-15.79062807559967","35.08451948314905","0.3","17","30","64","83","-22560","-8524","-6172","7","150","149.96","115.67","34.29","31.12","41.0","16.33","88804","30.94","DUALSPOT-UV-BLUE-GREEN-RED-IR","781518","716731","904855","8.421191","2.308586","-0.015295","763346","902935","764521","5.559480","1.410711","-0.051368","862743","909273","815977","4.476756","1.073849","-0.091820","849160","921722","858488","3.464860","0.759345","-0.109195","731940","857416","951350","2.492132","0.585828","0.000000","9179","8419","8132","6722","5608","5229","5395","4201","3824","4308","3384","3125","4016","3270","4016",""
"MA200-0416","27394","80","1","1.10","1.4","2023-05-24T09:45:00","120","2023/05/24","09:45:00","-15.790394842624664","35.08463381975889","1.0","17","30","64","83","-22068","-10316","-7192","7","150","149.46","115.42","34.04","31.14","41.0","16.34","88820","31.00","DUALSPOT-UV-BLUE-GREEN-RED-IR","783032","718955","908099","8.597303","2.358074","-0.008113","759618","899194","761535","5.657722","1.435899","-0.037551","859846","906673","813768","4.549605","1.091164","-0.075414","852868","926138","862674","3.515788","0.768869","-0.250580","733921","859950","954249","2.523588","0.591506","0.000000","8962","8538","8377","6310","5484","5204","5240","4222","3901","4426","2806","2353","3807","2329","3807",""
"MA200-0416","27395","80","1","1.10","1.4","2023-05-24T09:45:30","120","2023/05/24","09:45:30","-15.790130257606506","35.084629490971565","0.7","17","30","64","83","-23352","-7452","-3628","7","150","149.53","115.87","33.66","31.18","41.0","16.36","88828","31.00","DUALSPOT-UV-BLUE-GREEN-RED-IR","782894","719536","909191","8.743840","2.400358","-0.001050","759827","899918","762312","5.737068","1.457149","-0.020359","860751","908000","815068","4.608548","1.107109","-0.021582","853533","927114","863685","3.557430","0.778704","-0.088435","734679","861004","955463","2.550729","0.598740","0.000000","7428","7379","7360","5076","4680","4545","4223","3933","3841","3605","2931","2742","3272","3002","3272",""
"MA200-0416","27396","80","1","1.10","1.4","2023-05-24T09:46:00","120","2023/05/24","09:46:00","-15.790028274059296","35.08456864207983","0.5","17","30","64","82","-23376","-9260","-3916","7","150","149.59","115.84","33.76","31.21","41.0","16.39","88824","31.00","DUALSPOT-UV-BLUE-GREEN-RED-IR","779252","717829","907874","8.995255","2.474170","0.001136","757949","898753","761620","5.866911","1.490999","-0.028043","858256","906147","813628","4.697287","1.128584","-0.061141","851288","925190","862050","3.615997","0.792556","-0.087919","728535","854051","947876","2.587291","0.607206","0.000000","12748","12843","12880","8309","7434","7135","6360","5282","4941","5072","4117","3848","4409","3503","4409",""
"MA200-0416","27397","80","1","1.10","1.4","2023-05-24T09:46:30","120","2023/05/24","09:46:30","-15.789802014827728","35.08439965546131","0.9","17","30","64","83","-23676","-10208","-7292","7","150","149.83","115.47","34.36","31.23","41.0","16.41","88836","31.06","DUALSPOT-UV-BLUE-GREEN-RED-IR","779193","719323","910561","9.375880","2.582513","-0.006777","758822","900851","763746","6.060461","1.541549","-0.032334","859114","907784","815288","4.828942","1.159620","-0.077888","853770","928448","865207","3.704987","0.811213","-0.164146","729908","855973","950063","2.636963","0.618188","0.000000","19360","18522","18203","12425","10907","10389","9465","7499","6878","7731","5448","4807","6009","4465","6009",""
"MA200-0416","27398","80","1","1.10","1.4","2023-05-24T09:47:00","120","2023/05/24","09:47:00","-15.789564907550812","35.08440198004246","0.5","17","30","64","83","-22296","-8308","-7072","7","150","149.54","115.68","33.87","31.26","41.1","16.46","88864","31.13","DUALSPOT-UV-BLUE-GREEN-RED-IR","772924","713856","903796","9.442343","2.602813","0.005960","759133","901497","764377","6.105591","1.553793","-0.017896","860126","909070","816557","4.864866","1.168287","-0.061960","854972","929901","866635","3.732509","0.817871","-0.076668","731143","857535","951864","2.656494","0.622659","0.000000","3374","3520","3575","2892","2679","2607","2578","2124","1981","2387","1972","1855","2358","1844","2358",""
"MA200-0416","27399","80","1","1.10","1.4","2023-05-24T09:47:30","120","2023/05/24","09:47:30","-15.789316594600677","35.084397815167904","0.5","17","30","64","83","-24364","-8576","-4988","7","150","150.05","115.79","34.26","31.29","41.0","16.47","88900","31.13","DUALSPOT-UV-BLUE-GREEN-RED-IR","773856","714999","905389","9.499894","2.621286","0.011044","759808","902521","765310","6.143261","1.563812","-0.025521","859685","908816","816394","4.896033","1.176316","-0.041888","848171","922690","859932","3.754031","0.821471","-0.334095","730791","857230","951568","2.673727","0.626895","0.000000","2919","3167","3261","2411","2168","2084","2234","1945","1854","1864","1054","827","2079","1727","2079",""
"MA200-0416","27400","80","1","1.10","1.4","2023-05-24T09:48:00","120","2023/05/24","09:48:00","-15.789029359817505","35.08439499884844","0.9","17","30","64","82","-23616","-8187","-6950","7","150","150.10","115.87","34.23","31.31","40.9","16.47","88936","31.19","DUALSPOT-UV-BLUE-GREEN-RED-IR","774207","715775","906642","9.573501","2.643037","0.000025","755200","897463","761153","6.191768","1.576162","-0.036783","859891","909401","817016","4.933149","1.185477","-0.056078","848673","923502","860762","3.782473","0.828027","-0.103522","731242","857943","952369","2.693777","0.630771","0.000000","3731","3731","3732","3103","2674","2527","2659","2221","2083","2462","1921","1769","2417","1581","2417",""
"MA200-0416","27401","80","1","1.10","1.4","2023-05-24T09:48:30","120","2023/05/24","09:48:30","-15.788778603076935","35.08453131467104","0.7","17","30","64","82","-23213","-6305","1425","7","150","149.70","116.15","33.55","31.34","40.8","16.45","88944","31.19","DUALSPOT-UV-BLUE-GREEN-RED-IR","773776","715955","907213","9.692098","2.679313","0.007779","755596","898349","762060","6.265722","1.598323","0.007653","859061","908874","816622","4.993004","1.200521","-0.041277","848024","923089","860457","3.826488","0.839138","-0.050324","731062","857862","952409","2.721836","0.638051","0.000000","5997","6351","6486","4720","4897","4957","4278","3723","3547","3801","3322","3188","3374","3031","3374",""
"MA200-0416","27402","80","1","1.10","1.4","2023-05-24T09:49:00","120","2023/05/24","09:49:00","-15.788557469844818","35.08471515029669","0.7","17","30","64","83","-24132","-9096","-5912","7","150","149.54","115.56","33.98","31.37","40.7","16.41","88932","31.19","DUALSPOT-UV-BLUE-GREEN-RED-IR","773462","716010","907466","9.778392","2.706627","0.009764","754953","897966","761800","6.321614","1.612281","-0.040134","854825","904613","812878","5.034608","1.212031","-0.016799","848719","924026","861373","3.856294","0.844639","-0.236297","731189","858135","952734","2.743026","0.642298","0.000000","4386","4720","4849","3585","3044","2859","2988","2811","2755","2587","1624","1353","2561","1746","2561",""
"MA200-0416","27403","80","1","1.10","1.4","2023-05-24T09:49:30","120","2023/05/24","09:49:30","-15.788454592227936","35.08490764349699","0.8","17","30","64","82","-23736","-9992","-7184","7","150","150.36","116.13","34.23","31.40","40.5","16.39","88928","31.25","DUALSPOT-UV-BLUE-GREEN-RED-IR","773038","715885","907444","9.832874","2.722158","-0.004848","754681","897825","761755","6.357849","1.622337","-0.013422","859152","909429","817264","5.065096","1.218819","-0.093833","848920","924432","861812","3.880312","0.849920","-0.124263","731189","858323","952928","2.758478","0.645566","0.000000","2755","2664","2630","2313","2177","2131","2179","1646","1477","2074","1547","1399","1858","1333","1858",""
"MA200-0416","27404","80","1","1.10","1.4","2023-05-24T09:50:00","120","2023/05/24","09:50:00","-15.788266956806183","35.08496914803982","0.1","17","30","64","82","-22620","-9570","-8245","7","150","150.29","116.11","34.18","31.43","40.4","16.38","88952","31.25","DUALSPOT-UV-BLUE-GREEN-RED-IR","771200","714467","905791","9.888456","2.738992","0.003871","753846","897130","761251","6.397288","1.632207","-0.039376","857318","907706","815772","5.095560","1.225525","-0.097598","846311","921765","859340","3.903319","0.854068","-0.252192","729105","855981","950359","2.775743","0.649128","0.000000","2811","2892","2923","2518","2140","2011","2178","1628","1454","1987","1217","1001","2077","1455","2077",""
"MA200-0416","27405","80","1","1.10","1.4","2023-05-24T09:50:30","120","2023/05/24","09:50:30","-15.78810578584671","35.08504582196474","0.8","17","30","64","82","-22544","-8548","-5996","7","150","150.09","115.83","34.26","31.45","40.4","16.38","88956","31.25","DUALSPOT-UV-BLUE-GREEN-RED-IR","771314","714834","906390","9.939724","2.753456","-0.006877","753891","897406","761549","6.433659","1.642108","-0.018630","857218","907815","815919","5.124521","1.233124","-0.034110","846362","921980","859572","3.925592","0.858962","-0.125057","729000","855913","950366","2.792551","0.653258","0.000000","2599","2479","2433","2327","2142","2078","2075","1841","1766","1929","1432","1293","2027","1683","2027",""
"MA200-0416","27406","80","1","1.10","1.4","2023-05-24T09:51:00","120","2023/05/24","09:51:00","-15.787876546382904","35.08522181212902","0.7","17","30","64","82","-23372","-9592","-7892","7","150","150.35","116.17","34.18","31.48","40.3","16.36","0","0.00","DUALSPOT-UV-BLUE-GREEN-RED-IR","772998","716623","908816","9.988272","2.769739","0.016229","755165","899142","763104","6.466382","1.650882","-0.020941","854160","904744","813192","5.150420","1.239950","-0.030946","849305","925307","862722","3.943972","0.863212","-0.095829","731002","858366","953092","2.805935","0.655971","0.000000","2454","2797","2929","2088","1902","1839","1850","1657","1596","1587","1247","1151","1609","1108","1609",""
"MA200-0416","27407","80","1","1.10","1.4","2023-05-24T09:51:30","120","2023/05/24","09:51:30","-15.78782570362091","35.0853016525507","0.9","17","30","64","82","-23272","-10004","-6920","7","150","150.36","115.83","34.54","31.50","40.3","16.39","0","0.00","DUALSPOT-UV-BLUE-GREEN-RED-IR","773308","717421","910041","10.077694","2.794016","-0.014024","755590","900038","763984","6.521844","1.663709","-0.066083","855158","906088","814509","5.191786","1.248097","-0.155613","850160","926405","863831","3.969876","0.867897","-0.255484","731852","859509","954399","2.823152","0.660206","0.000000","4534","4128","3973","3549","2753","2480","2964","1958","1640","2243","1360","1113","2076","1713","2076",""
"MA200-0416","27408","80","1","1.10","1.4","2023-05-24T09:52:00","120","2023/05/24","09:52:00","-15.787690162658691","35.08522464334965","0.0","17","30","64","82","-22884","-8968","-7820","7","150","150.09","115.91","34.18","31.52","40.3","16.39","88956","31.31","DUALSPOT-UV-BLUE-GREEN-RED-IR","767927","712641","904105","10.128595","2.808702","-0.003046","752366","896380","760967","6.555729","1.674259","0.010615","856081","907203","815587","5.218023","1.256335","0.015032","851491","928000","865336","3.989366","0.871294","-0.275023","728814","855990","950546","2.837923","0.664125","0.000000","2579","2523","2502","2167","2287","2329","1879","2000","2039","1686","997","804","1780","1601","1780",""
"MA200-0416","27409","80","1","1.10","1.4","2023-05-24T09:52:30","120","2023/05/24","09:52:30","-15.787710309028625","35.08524414896965","1.5","17","30","64","82","-22411","-8488","-4230","7","150","149.63","115.67","33.96","31.54","40.3","16.40","88964","31.38","DUALSPOT-UV-BLUE-GREEN-RED-IR","768467","713323","905069","10.168261","2.821573","0.012507","752641","896904","761433","6.584367","1.681293","-0.042673","855338","906578","815072","5.240685","1.261723","-0.063734","852214","928934","866187","4.003335","0.873750","-0.263337","728732","855960","950521","2.849620","0.667169","0.000000","2014","2226","2307","1835","1535","1432","1626","1317","1219","1211","725","589","1412","1252","1412",""
"MA200-0416","27410","80","1","1.10","1.4","2023-05-24T09:53:00","120","2023/05/24","09:53:00","-15.787905991077423","35.085356660187244","1.1","17","30","64","82","-24460","-9336","-6647","7","150","149.70","115.63","34.06","31.57","40.3","16.46","88956","31.44","DUALSPOT-UV-BLUE-GREEN-RED-IR","769778","714763","907039","10.211330","2.834474","0.002225","753907","898682","762960","6.613966","1.687551","-0.092287","856671","908160","816509","5.264067","1.265591","-0.259388","846246","922574","860301","4.022493","0.876593","-0.431456","729473","856979","951669","2.863878","0.670320","0.000000","2187","2224","2238","1897","1361","1178","1678","942","709","1662","837","607","1722","1292","1722",""
"MA200-0416","27411","80","1","1.10","1.4","2023-05-24T09:53:30","120","2023/05/24","09:53:30","-15.788090109825134","35.085432313382626","1.0","17","30","64","82","-24720","-9052","-6815","7","150","149.57","115.63","33.93","31.60","40.5","16.55","88956","31.56","DUALSPOT-UV-BLUE-GREEN-RED-IR","771070","716423","909430","10.299223","2.860904","0.003215","755167","900447","764578","6.657826","1.698221","-0.044759","857381","909188","817477","5.296952","1.271951","-0.153626","848343","925057","862662","4.046247","0.880950","-0.227547","730470","858228","953117","2.880924","0.674278","0.000000","4464","4574","4617","2811","2331","2166","2361","1556","1301","2061","1288","1073","2059","1629","2059",""
"MA200-0416","27412","80","1","1.10","1.4","2023-05-24T09:54:00","120","2023/05/24","09:54:00","-15.78815084695816","35.08556831628084","0.9","17","30","64","82","-21868","-8884","-5920","7","150","150.49","115.79","34.70","31.64","40.6","16.60","88972","31.63","DUALSPOT-UV-BLUE-GREEN-RED-IR","766295","712290","904296","10.360195","2.878704","-0.003591","752192","897141","761838","6.694208","1.707601","-0.034472","854602","906396","815055","5.325574","1.278609","-0.078412","850918","927992","865426","4.066916","0.883608","-0.662386","731575","859625","954675","2.894859","0.676768","0.000000","3092","3012","2981","2329","2003","1892","2052","1592","1447","1790","768","484","1681","1002","1681",""
"MA200-0416","27413","80","1","1.10","1.4","2023-05-24T09:54:30","120","2023/05/24","09:54:30","-15.788221955299377","35.085839316248894","1.0","17","30","64","82","-23088","-9528","-5956","7","150","149.35","115.69","33.66","31.68","40.6","16.64","89000","31.69","DUALSPOT-UV-BLUE-GREEN-RED-IR","766242","712435","904648","10.404528","2.893566","0.016753","752408","897585","762299","6.723984","1.715045","-0.034600","854164","906148","814841","5.348641","1.284360","-0.043294","851237","928466","865879","4.084558","0.888490","-0.016267","731325","859440","954496","2.909511","0.680409","0.000000","2250","2593","2725","1908","1639","1547","1655","1418","1344","1529","1455","1434","1769","1511","1769",""
"MA200-0416","27414","80","1","1.10","1.4","2023-05-24T09:55:00","120","2023/05/24","09:55:00","-15.788350403308868","35.085890144109726","1.1","17","30","64","82","-22632","-4452","2728","7","150","150.16","116.11","34.05","31.72","40.7","16.73","89020","31.81","DUALSPOT-UV-BLUE-GREEN-RED-IR","769636","715791","909017","10.446053","2.905479","-0.002968","755082","900989","765173","6.751209","1.721101","-0.071034","856547","908805","817307","5.371893","1.287925","-0.313847","849105","926290","863872","4.102445","0.889736","-9.043877","730267","858279","953257","2.922392","0.682593","0.000000","2100","2055","2037","1738","1318","1174","1662","869","618","1545","366","40","1549","895","1549",""
"MA200-0416","27415","80","1","1.10","1.4","2023-05-24T09:55:30","120","2023/05/24","09:55:30","-15.788557171821594","35.085794657468796","0.9","17","30","64","82","-23408","-9100","-6696","7","150","149.57","115.91","33.65","31.76","40.8","16.82","89012","31.88","DUALSPOT-UV-BLUE-GREEN-RED-IR","765080","711765","903948","10.484312","2.916151","-0.005496","751857","897304","762141","6.778007","1.726354","-0.114001","853780","906054","814823","5.392015","1.290834","-0.360320","850985","928461","865929","4.117764","0.891357","-1.042490","730671","858840","953908","2.936016","0.686764","0.000000","1938","1862","1833","1713","1157","966","1441","717","489","1325","483","250","1641","1731","1641",""
"MA200-0416","27416","80","1","1.10","1.4","2023-05-24T09:56:00","120","2023/05/24","09:56:00","-15.788764655590057","35.08581232279539","0.9","17","30","64","82","-23284","-8624","-4028","7","150","149.39","115.63","33.75","31.83","41.0","16.96","89008","32.00","DUALSPOT-UV-BLUE-GREEN-RED-IR","768022","714720","907850","10.529697","2.930534","0.010081","754519","900679","765029","6.806527","1.732648","-0.071464","854463","906920","815648","5.414570","1.294595","-0.238317","845932","923092","860922","4.135985","0.894194","-0.355564","731472","859888","955076","2.949010","0.689199","0.000000","2305","2502","2579","1828","1382","1230","1619","925","707","1580","843","639","1569","1007","1569",""
"MA200-0416","27417","80","1","1.10","1.4","2023-05-24T09:56:30","120","2023/05/24","09:56:30","-15.788821637630463","35.085941307246685","1.0","17","30","64","82","-24912","-6152","1848","7","150","150.11","115.94","34.17","31.88","41.1","17.05","88992","32.19","DUALSPOT-UV-BLUE-GREEN-RED-IR","765311","712387","904995","10.567608","2.941633","-0.000873","753327","899467","764031","6.834379","1.738906","-0.068437","852953","905489","814376","5.437249","1.298946","-0.155829","850433","928153","865663","4.152377","0.895965","-1.012234","730841","859232","954405","2.964586","0.692921","0.000000","1920","1907","1902","1780","1357","1213","1624","1057","879","1418","519","272","1876","1521","1876",""
"MA200-0416","27418","80","1","1.10","1.4","2023-05-24T09:57:00","120","2023/05/24","09:57:00","-15.788769841194153","35.086103320121765","1.1","17","30","64","82","-23720","-7775","-1596","7","150","150.23","115.43","34.79","31.96","41.1","17.12","88972","32.31","DUALSPOT-UV-BLUE-GREEN-RED-IR","769283","716267","910046","10.610159","2.956291","0.015583","750511","896255","761405","6.861186","1.746738","-0.006268","851527","904108","813174","5.458355","1.303226","-0.138096","847678","925293","863001","4.169147","0.897896","-0.889222","728481","856515","951412","2.976684","0.695358","0.000000","2165","2474","2594","1721","1668","1650","1517","1021","865","1457","556","309","1464","978","1464",""
"MA200-0416","27419","80","1","1.10","1.4","2023-05-24T09:57:30","120","2023/05/24","09:57:30","-15.78887951374054","35.08627447485924","1.0","17","30","64","81","-23720","-7664","-6915","7","150","149.94","115.84","34.10","32.02","41.2","17.20","88916","32.38","DUALSPOT-UV-BLUE-GREEN-RED-IR","761802","709790","902081","10.683231","2.977226","-0.003617","750327","896414","761611","6.901562","1.753431","-0.204883","851085","903936","813059","5.489195","1.307004","-0.597291","848919","926861","864499","4.190837","0.898540","1.888860","728631","856841","951801","2.995571","0.700137","0.000000","3705","3605","3567","2583","1454","1070","2210","919","516","1878","189","-271","2277","1957","2277",""
"MA200-0416","27420","80","1","1.10","1.4","2023-05-24T09:58:00","120","2023/05/24","09:58:00","-15.788748621940613","35.08644948154688","1.0","17","30","64","82","-22368","-8924","-7228","7","150","149.89","115.65","34.24","32.09","41.1","17.22","88924","32.44","DUALSPOT-UV-BLUE-GREEN-RED-IR","764944","713946","908144","10.928329","3.058336","0.012850","753414","900905","765659","7.016900","1.786220","-0.008054","853484","907075","816087","5.570620","1.329016","-0.023163","844972","923009","861034","4.249096","0.910425","-0.154183","731489","860520","955996","3.036329","0.708402","-0.229806","12448","13912","14481","7393","7098","6997","5845","5336","5177","5054","3482","3053","4923","3371","2899",""
"MA200-0416","27421","80","1","1.10","1.4","2023-05-24T09:58:30","120","2023/05/24","09:58:30","-15.788667023181915","35.086626313626766","0.9","17","30","64","81","-23348","-9536","-6080","7","150","149.90","115.39","34.50","32.16","40.9","17.20","88932","32.50","DUALSPOT-UV-BLUE-GREEN-RED-IR","763532","712921","906996","11.021528","3.088861","0.010623","752441","899978","764931","7.066403","1.799762","-0.018226","852668","906425","815501","5.607778","1.336152","-0.157907","844088","922237","860288","4.277691","0.914120","-0.607322","730348","859302","954654","3.059871","0.712771","-0.319757","4743","5196","5372","3180","2909","2817","2673","1717","1417","2486","1074","690","2850","1768","1440",""
"MA200-0416","27422","80","1","1.10","1.4","2023-05-24T09:59:00","120","2023/05/24","09:59:00","-15.788831651210785","35.086623810231686","0.9","17","30","64","82","-23278","-10675","-3478","7","150","149.51","115.75","33.75","32.23","40.6","17.15","88896","32.50","DUALSPOT-UV-BLUE-GREEN-RED-IR","765644","715067","909847","11.060419","3.100128","-0.000826","748788","895760","761385","7.092799","1.804531","-0.146958","853020","906972","816033","5.628800","1.338362","-0.924676","846223","924658","862588","4.293827","0.916176","-0.586413","726630","855007","949934","3.074239","0.715048","-0.477455","1973","1960","1955","1690","1047","827","1507","543","243","1398","611","397","1734","942","702",""
"MA200-0416","27423","80","1","1.10","1.4","2023-05-24T09:59:30","120","2023/05/24","09:59:30","-15.78904503583908","35.08651015162468","0.8","17","30","64","82","-22700","-10037","-2066","7","150","150.04","115.37","34.67","32.28","40.6","17.20","88884","32.56","DUALSPOT-UV-BLUE-GREEN-RED-IR","766794","716364","911567","11.097597","3.108913","-0.038021","749420","896713","762236","7.118172","1.808673","-0.221769","853876","908018","816988","5.650162","1.341051","-0.566849","847561","926302","864109","4.308774","0.914376","0.530348","727408","856031","951104","3.089052","0.719486","-0.001289","1892","1488","1331","1630","885","632","1537","643","365","1299","-520","-1011","1793","1788","1786",""
"MA200-0416","27424","80","1","1.10","1.4","2023-05-24T10:00:00","120","2023/05/24","10:00:00","-15.789257824420929","35.08634315431118","0.8","17","30","64","81","-23475","-8329","-3958","7","150","149.40","115.39","34.00","32.35","40.6","17.28","88880","32.69","DUALSPOT-UV-BLUE-GREEN-RED-IR","761073","711360","905338","11.160376","3.126175","-0.009187","750988","898906","764163","7.159247","1.816721","-0.113888","850465","904655","814004","5.682826","1.346600","-0.219440","849747","928891","866537","4.333023","0.917368","-0.647994","728336","857273","952545","3.109684","0.722759","-0.485315","3195","2981","2898","2638","1754","1453","2350","1354","1045","2108","882","553","2497","1344","995",""
"MA200-0416","27425","80","1","1.10","1.4","2023-05-24T10:00:30","120","2023/05/24","10:00:30","-15.789486348628998","35.08619214594364","0.9","17","30","64","81","-23756","-9844","-3172","7","150","149.58","115.64","33.94","32.42","40.7","17.36","88876","32.88","DUALSPOT-UV-BLUE-GREEN-RED-IR","763760","714497","909733","11.277622","3.163534","0.009439","747092","894828","760902","7.242562","1.838213","-0.026733","851560","906329","815679","5.750966","1.363372","-0.046620","844869","924004","862104","4.387618","0.928610","-0.138817","729438","858820","954370","3.149292","0.732586","-0.080087","5955","6465","6664","5340","4694","4474","4891","4102","3857","4736","3323","2943","4784","4045","3820",""
"MA200-0416","27426","80","1","1.10","1.4","2023-05-24T10:01:00","120","2023/05/24","10:01:00","-15.789633631706238","35.08609764277935","0.9","17","30","64","81","-24107","-7246","1046","7","150","150.23","115.59","34.63","32.50","41.0","17.55","0","0.00","DUALSPOT-UV-BLUE-GREEN-RED-IR","757303","709050","903123","11.405825","3.199844","-0.007216","747607","896029","762059","7.331779","1.859785","-0.047569","852231","907561","816871","5.822140","1.378381","-0.108916","846860","926566","864547","4.439737","0.938177","-0.217401","725535","854455","949579","3.188818","0.742322","-0.094656","6514","6157","6018","5721","4617","4242","5111","3597","3128","4523","2771","2301","4776","3927","3669",""
"MA200-0416","27427","80","1","1.10","1.4","2023-05-24T10:01:30","120","2023/05/24","10:01:30","-15.789749145507812","35.08614281564951","0.8","17","30","64","81","-23476","-7084","-2488","7","150","149.99","115.11","34.88","32.58","41.1","17.67","0","0.00","DUALSPOT-UV-BLUE-GREEN-RED-IR","763175","714951","910821","11.487703","3.224475","-0.000886","747223","895955","762093","7.387856","1.872844","-0.060832","850652","906175","815727","5.868357","1.387823","-0.126878","845761","925627","863725","4.475800","0.943892","-0.341385","728443","858073","953690","3.216957","0.749264","-0.099423","4178","4147","4136","3611","2775","2491","3333","2247","1910","3143","1644","1243","3415","2780","2587",""
"MA200-0416","27428","80","1","1.10","1.4","2023-05-24T10:02:00","120","2023/05/24","10:02:00","-15.789774894714355","35.08620281517506","0.3","17","30","64","81","-24484","-6679","-5104","7","150","150.55","115.71","34.84","32.69","41.2","17.79","88820","33.38","DUALSPOT-UV-BLUE-GREEN-RED-IR","758591","711266","906426","11.604053","3.255140","-0.018062","749097","898716","764587","7.464269","1.889146","-0.085722","847588","903291","813217","5.925304","1.397932","-0.195854","840648","920339","858844","4.516492","0.948923","-0.650864","725290","854576","949854","3.248279","0.756234","-0.158732","5905","5169","4882","4895","3468","2985","4085","2408","1891","3528","1448","895","3781","2794","2494",""
"MA200-0416","27429","80","1","1.10","1.4","2023-05-24T10:02:30","120","2023/05/24","10:02:30","-15.789729177951813","35.08630947768688","0.5","17","30","64","81","-23820","-8512","-3995","7","150","150.62","115.49","35.13","32.77","41.2","17.87","88816","33.44","DUALSPOT-UV-BLUE-GREEN-RED-IR","755857","709028","903750","11.670074","3.274025","-0.007758","746939","896462","762692","7.508650","1.898313","-0.100330","850142","906308","815980","5.960006","1.402849","-0.389014","845366","925740","863888","4.542886","0.950056","2.776905","727919","857885","953538","3.272228","0.760899","-0.269476","3357","3157","3079","2848","1934","1624","2494","1162","751","2293","323","-197","2896","1855","1539",""
"MA200-0416","27430","80","1","1.10","1.4","2023-05-24T10:03:00","120","2023/05/24","10:03:00","-15.789656221866608","35.086545653641224","0.9","17","30","64","81","-23884","-8156","-2104","7","150","149.76","115.87","33.89","32.86","41.0","17.88","88800","33.50","DUALSPOT-UV-BLUE-GREEN-RED-IR","757134","710540","905842","11.731302","3.292484","0.003491","747880","897865","763980","7.547973","1.907379","-0.052408","850757","907202","816823","5.992777","1.408083","-0.243547","847034","927778","865809","4.567045","0.953280","-0.480692","728999","859252","955137","3.293918","0.765310","-0.199902","3103","3199","3236","2515","1982","1802","2348","1282","954","2091","954","654","2615","1817","1576",""
"MA200-0416","27431","80","1","1.10","1.4","2023-05-24T10:03:30","120","2023/05/24","10:03:30","-15.789653062820435","35.08678648620844","0.8","17","30","64","81","-24652","-3320","4324","7","150","149.53","115.46","34.06","32.93","40.8","17.87","88760","33.50","DUALSPOT-UV-BLUE-GREEN-RED-IR","757590","711331","906999","11.797226","3.310909","-0.006700","748315","898694","764761","7.593244","1.917429","-0.065219","850644","907366","817039","6.028360","1.415920","-0.082186","847437","928424","866429","4.593648","0.955033","-11.001882","728346","858655","954500","3.316648","0.770545","-0.120663","3353","3176","3107","2906","2187","1943","2558","1910","1710","2311","516","44","2750","2146","1964",""
"MA200-0416","27432","80","1","1.10","1.4","2023-05-24T10:04:00","120","2023/05/24","10:04:00","-15.789568722248077","35.08701315522194","0.9","17","30","64","81","-24072","-8880","-4752","7","150","150.04","115.10","34.94","33.02","40.7","17.89","88760","33.50","DUALSPOT-UV-BLUE-GREEN-RED-IR","757169","711267","907080","11.862801","3.330320","-0.003025","747894","898485","764660","7.635293","1.925588","-0.122100","850085","906998","816733","6.061036","1.419991","-0.552231","847376","928567","866578","4.616307","0.956266","6.389053","728226","858647","954523","3.337410","0.773872","-0.477798","3346","3263","3230","2708","1731","1401","2356","967","542","1975","354","-69","2519","1330","971",""
"MA200-0416","27433","80","1","1.10","1.4","2023-05-24T10:04:30","120","2023/05/24","10:04:30","-15.789498329162598","35.08719781041145","0.6","17","30","64","81","-23924","-9636","-5272","7","150","149.57","115.12","34.45","33.08","40.3","17.81","88744","33.44","DUALSPOT-UV-BLUE-GREEN-RED-IR","756915","711468","907603","11.942028","3.354190","0.000782","747725","898618","764844","7.678738","1.937061","-0.024300","850037","907215","816981","6.094444","1.426756","-0.119872","847157","928572","866592","4.640460","0.957947","-6.332523","727068","857419","953233","3.356382","0.778457","-0.099583","4042","4069","4080","2797","2468","2357","2409","1630","1392","2104","489","69","2302","1859","1725",""
"MA200-0416","27434","80","1","1.10","1.4","2023-05-24T10:05:00","120","2023/05/24","10:05:00","-15.789505064487457","35.08741047978401","0.8","17","30","64","81","-22726","-9592","23","7","150","149.90","115.00","34.90","33.14","39.9","17.67","88724","33.44","DUALSPOT-UV-BLUE-GREEN-RED-IR","753687","708998","904829","12.074446","3.397779","0.008728","745668","896531","763194","7.743270","1.954622","-0.020711","848053","905426","815454","6.140441","1.437223","-0.079009","844845","926243","864471","4.672412","0.962257","-0.498560","725691","855985","951683","3.383562","0.784154","-0.199188","6763","7335","7560","4160","3730","3585","3320","2489","2236","2787","1238","837","3301","2280","1972",""
"MA200-0416","27435","80","1","1.10","1.4","2023-05-24T10:05:30","120","2023/05/24","10:05:30","-15.78963589668274","35.08742814511061","0.9","17","30","64","81","-23184","-8552","-3616","7","150","149.73","115.42","34.31","33.21","39.9","17.75","88712","33.50","DUALSPOT-UV-BLUE-GREEN-RED-IR","756042","711510","908150","12.137358","3.413845","-0.020101","747163","898634","765046","7.783991","1.959556","-0.488201","845273","902684","813017","6.174648","1.441234","-0.608935","847978","929914","867911","4.698957","0.964075","-6.503967","727378","858135","954095","3.407310","0.788317","-0.336115","3201","2750","2573","2615","1066","544","2460","970","516","2307","531","73","2874","1694","1339",""
"MA200-0416","27436","80","1","1.10","1.4","2023-05-24T10:06:00","120","2023/05/24","10:06:00","-15.789719223976135","35.087403647601604","0.2","17","30","64","81","-22504","-10836","-6724","7","150","150.56","115.43","35.12","33.28","39.9","17.82","88704","33.63","DUALSPOT-UV-BLUE-GREEN-RED-IR","757309","713218","910601","12.227217","3.441389","0.000834","743286","894368","761505","7.839481","1.973348","-0.041332","846658","904539","814743","6.217211","1.448381","-0.226057","843507","925283","863601","4.729964","0.966602","-2.436937","723983","854304","949894","3.432815","0.793606","-0.205991","4572","4606","4619","3563","2911","2691","3061","1689","1272","2694","721","215","3086","2103","1808",""
"MA200-0416","27437","80","1","1.10","1.4","2023-05-24T10:06:30","120","2023/05/24","10:06:30","-15.789860010147095","35.08744764328003","1.2","17","30","64","81","-23132","-6328","427","7","150","150.49","115.59","34.90","33.34","39.9","17.86","88688","33.69","DUALSPOT-UV-BLUE-GREEN-RED-IR","753403","709877","906585","12.310446","3.469181","0.010451","745698","897567","764348","7.888365","1.986360","-0.023821","847605","905786","815964","6.254596","1.457095","-0.067605","845714","927921","866112","4.759356","0.970780","-0.416524","725234","855919","951768","3.456493","0.799173","-0.116932","4229","4677","4853","3135","2764","2639","2685","2073","1887","2551","1201","855","2861","2228","2037",""
"MA200-0416","27438","80","1","1.10","1.4","2023-05-24T10:07:00","120","2023/05/24","10:07:00","-15.790122389793396","35.08749548345804","1.2","17","30","64","81","-23868","-9692","224","7","150","150.08","115.13","34.95","33.42","39.8","17.90","88672","33.81","DUALSPOT-UV-BLUE-GREEN-RED-IR","756440","712912","910570","12.352695","3.481420","-0.005500","742063","893374","760813","7.915848","1.991558","-0.128231","845165","903360","813749","6.277061","1.460045","-0.451724","842050","924058","862468","4.774715","0.971001","1.278190","726999","858111","954225","3.472799","0.803375","-0.070460","2155","2057","2018","1769","1102","878","1620","700","422","1338","63","-262","1978","1679","1589",""
"MA200-0416","27439","80","1","1.10","1.4","2023-05-24T10:07:30","120","2023/05/24","10:07:30","-15.79033100605011","35.08740381151438","0.9","17","30","64","81","-24160","-8620","-4956","7","150","149.76","115.12","34.65","33.49","39.8","17.95","88644","33.94","DUALSPOT-UV-BLUE-GREEN-RED-IR","753404","710265","907284","12.389423","3.493040","0.005364","745569","897782","764603","7.941187","1.995826","-0.179784","846917","905366","815627","6.297725","1.462024","-1.258863","845217","927662","865854","4.790516","0.972306","-2.116516","724238","854971","950756","3.489250","0.806888","-0.174030","1873","1969","2007","1631","913","672","1490","474","166","1377","378","123","1996","1416","1242",""
"MA200-0416","27440","80","1","1.10","1.4","2023-05-24T10:08:00","120","2023/05/24","10:08:00","-15.790553033351898","35.08726165443659","1.1","17","30","64","80","-24456","-9288","-3928","7","150","149.83","115.16","34.67","33.57","39.8","18.01","88636","34.13","DUALSPOT-UV-BLUE-GREEN-RED-IR","755459","712370","910045","12.422920","3.502254","-0.011015","740995","892496","760115","7.965908","1.999689","-0.225504","844450","902905","813388","6.315631","1.462883","1.838035","840908","923117","861568","4.804218","0.970053","0.430240","726168","857319","953394","3.502639","0.809513","-0.237346","1708","1560","1502","1591","825","569","1290","205","-121","1193","-651","-1118","1624","1057","886",""
"MA200-0416","27441","80","1","1.10","1.4","2023-05-24T10:08:30","120","2023/05/24","10:08:30","-15.790602505207062","35.087021984159946","0.9","16","30","64","81","-23996","-9912","-5068","7","150","149.51","114.76","34.75","33.65","39.9","18.13","88620","34.31","DUALSPOT-UV-BLUE-GREEN-RED-IR","754270","711407","908899","12.455908","3.511789","-0.005419","745956","898682","765382","7.989449","2.002746","-0.400957","848295","907195","817278","6.336767","1.464599","-3.112269","840470","922746","861259","4.817166","0.968163","0.450441","724170","855114","950977","3.517665","0.811157","-1.388304","1688","1611","1581","1520","652","361","1529","410","73","1131","-545","-967","1829","660","310",""
"MA200-0416","27442","80","1","1.10","1.4","2023-05-24T10:09:00","120","2023/05/24","10:09:00","-15.790622532367706","35.08682181686163","0.3","16","30","64","80","-23184","-10304","-5904","7","150","149.09","113.13","35.96","33.75","40.0","18.25","88640","34.50","DUALSPOT-UV-BLUE-GREEN-RED-IR","749085","706806","903151","12.501181","3.525282","-0.007615","741781","893835","761307","8.018195","2.007812","-0.182794","845465","904323","814710","6.358355","1.466816","-1.151904","842176","924767","863141","4.834573","0.967830","0.841885","724965","856143","952145","3.533350","0.814827","-0.147601","2350","2203","2146","1883","1044","763","1584","511","190","1543","-93","-502","1936","1425","1272",""
"MA200-0416","27443","80","1","1.10","1.4","2023-05-24T10:09:30","120","2023/05/24","10:09:30","-15.79049015045166","35.086715653538704","1.0","16","30","64","81","-22787","-9516","-6537","7","150","149.45","114.88","34.57","33.85","39.9","18.30","88676","34.63","DUALSPOT-UV-BLUE-GREEN-RED-IR","753949","711655","909548","12.556694","3.542709","0.004526","740211","892203","759957","8.050425","2.013458","-0.156334","844570","903572","814056","6.384183","1.469666","-0.727000","839880","922416","860932","4.852241","0.968187","1.453344","723247","854229","950024","3.552818","0.819163","-0.143620","2838","2961","3009","2079","1210","920","1866","684","330","1542","103","-254","2367","1751","1567",""
"MA200-0416","27444","80","1","1.10","1.4","2023-05-24T10:10:00","120","2023/05/24","10:10:00","-15.790334522724152","35.086557142436504","0.3","16","30","64","81","-23088","-8512","-4808","7","150","150.03","114.96","35.07","33.93","39.8","18.37","88700","34.63","DUALSPOT-UV-BLUE-GREEN-RED-IR","745048","705916","903891","13.061049","3.710922","0.008820","740420","893890","761880","8.247994","2.067281","-0.020205","844507","904537","815191","6.514609","1.501143","-0.057211","840739","924063","862627","4.935600","0.983029","-0.219472","723793","855312","951346","3.606565","0.829015","-0.298322","25769","28171","29124","12740","11376","10920","9419","7451","6862","7275","4245","3492","6531","3924","3146",""
"MA200-0416","27445","80","1","1.10","1.4","2023-05-24T10:10:30","120","2023/05/24","10:10:30","-15.790222704410553","35.086561150848866","0.5","16","30","64","80","-22616","-11576","-636","7","150","149.73","114.84","34.89","34.02","39.5","18.30","88728","34.63","DUALSPOT-UV-BLUE-GREEN-RED-IR","742675","705607","904585","13.511429","3.851200","0.002504","739492","894028","762366","8.460504","2.122158","-0.029626","843214","904183","815137","6.670058","1.536024","-0.077162","840405","924552","863269","5.055264","1.006382","-0.159678","723288","855262","951484","3.693513","0.846771","-0.200527","23036","23612","23842","13718","11658","10969","11238","8299","7419","10454","6714","5784","10577","7108","6076",""
"MA200-0416","27446","80","1","1.10","1.4","2023-05-24T10:11:00","120","2023/05/24","10:11:00","-15.790117919445038","35.08654514700174","0.1","16","30","64","80","-23748","-8964","-5292","7","150","149.70","114.64","35.06","34.09","39.0","18.19","88768","34.63","DUALSPOT-UV-BLUE-GREEN-RED-IR","742626","705685","904787","13.557007","3.867004","0.011633","738934","893527","762009","8.496637","2.133197","-0.000168","843171","904289","815308","6.702393","1.544708","-0.028065","840763","925083","863789","5.079633","1.010632","-0.227829","722836","854875","951083","3.718492","0.852911","-0.091895","2335","2647","2772","2336","2334","2333","2341","2056","1971","2132","1216","988","3043","2446","2268",""
"MA200-0416","27447","80","1","1.10","1.4","2023-05-24T10:11:30","120","2023/05/24","10:11:30","-15.789990663528442","35.08635298162699","0.3","16","30","64","80","-23950","-10183","-5416","7","150","149.94","115.50","34.43","34.18","38.7","18.13","88804","34.63","DUALSPOT-UV-BLUE-GREEN-RED-IR","742023","705203","904306","13.585623","3.878164","0.022177","738421","893043","761632","8.519836","2.140380","0.005748","842555","903758","814835","6.721074","1.548314","-0.125753","840381","924830","863532","5.092738","1.011240","3.859643","722269","854280","950488","3.732429","0.856306","-0.083388","1455","1903","2082","1488","1546","1565","1342","869","727","1138","177","-61","1685","1377","1285",""
"MA200-0416","27448","80","1","1.10","1.4","2023-05-24T10:12:00","120","2023/05/24","10:12:00","-15.789951086044312","35.08616914600134","0.9","16","30","64","80","-23444","-10564","-5948","7","150","149.63","115.08","34.56","34.24","38.4","18.06","88828","34.56","DUALSPOT-UV-BLUE-GREEN-RED-IR","744091","709470","911185","13.691483","3.912317","0.006890","734723","891080","760891","8.605598","2.164257","-0.012527","839580","902504","814459","6.787151","1.566362","-0.019623","838205","923941","863275","5.142480","1.021587","-0.120926","721121","853997","950631","3.774866","0.868801","-0.006871","5403","5805","5965","5524","5122","4987","4767","4336","4206","4336","3004","2673","5151","5051","5021",""
"MA200-0416","27449","80","1","1.10","1.4","2023-05-24T10:12:30","120","2023/05/24","10:12:30","-15.79011195898056","35.0860351473093","0.6","16","30","64","80","-23579","-10300","-5783","7","150","150.67","114.71","35.96","34.29","38.2","18.00","88824","34.50","DUALSPOT-UV-BLUE-GREEN-RED-IR","725129","703231","910988","16.427896","4.829239","0.005414","718234","884741","760866","11.005585","2.914394","-0.000363","825086","899994","817369","8.955920","2.223086","-0.005294","820851","916623","861030","7.009126","1.567268","-0.013574","714148","853820","954016","5.124428","1.251633","-0.028084","140111","149767","153788","155098","154644","154480","156963","151622","149858","163256","152244","149072","164346","148720","143670",""
"MA200-0416","27450","80","1","1.10","1.4","2023-05-24T10:13:00","120","2023/05/24","10:13:00","-15.790242493152618","35.08589731156826","0.8","16","30","64","80","-23308","-10791","-5770","7","150","149.09","114.63","34.46","34.34","38.1","18.02","88836","34.56","DUALSPOT-UV-BLUE-GREEN-RED-IR","720850","700976","909371","17.007822","5.030246","0.010493","714669","882553","759828","11.520868","3.073526","0.003114","817871","894245","812951","9.436090","2.363688","-0.003802","816836","914154","859442","7.436915","1.686996","-0.013179","711857","852534","953159","5.445572","1.337968","-0.029938","29715","34261","36170","33325","34234","34565","34778","33875","33573","37442","34858","34100","39137","34999","33651",""
"MA200-0416","27451","80","1","1.10","1.4","2023-05-24T10:13:30","120","2023/05/24","10:13:30","-15.79032987356186","35.08572631329298","0.0","16","30","64","80","-23044","-10080","-5748","7","150","149.63","114.80","34.83","34.39","38.1","18.06","88848","34.63","DUALSPOT-UV-BLUE-GREEN-RED-IR","715380","696921","904995","17.220664","5.105016","0.010634","714560","884103","761810","11.728736","3.137857","0.002257","818043","896027","815200","9.628362","2.420354","-0.004148","819379","918459","864001","7.604781","1.732170","-0.022569","708350","849440","950132","5.582782","1.374372","-0.035828","10889","12607","13331","13423","13690","13788","13905","13505","13371","14670","13011","12521","16696","14599","13913",""
"MA200-0416","27452","80","1","1.10","1.4","2023-05-24T10:14:00","120","2023/05/24","10:14:00","-15.790434956550598","35.08558864891529","1.1","16","30","64","80","-22604","-9736","-3568","7","150","149.76","115.16","34.61","34.45","38.1","18.10","88860","34.69","DUALSPOT-UV-BLUE-GREEN-RED-IR","715528","697725","906445","17.460322","5.186109","0.008699","715076","885630","763412","11.961708","3.207815","-0.000096","817108","895879","815350","9.848172","2.483296","-0.006841","818759","918656","864421","7.800877","1.784133","-0.023218","707268","848772","949645","5.739122","1.417069","-0.024031","12223","13762","14412","14997","14985","14980","15847","15099","14847","17084","15063","14464","18965","17234","16666",""
"MA200-0416","27453","80","1","1.10","1.4","2023-05-24T10:14:30","120","2023/05/24","10:14:30","-15.790658712387085","35.0854123160243","1.0","16","30","64","80","-23592","-10824","-3196","7","150","150.62","114.84","35.79","34.50","38.0","18.13","88852","34.81","DUALSPOT-UV-BLUE-GREEN-RED-IR","717073","699377","908694","17.493578","5.196922","0.003320","715902","886876","764559","11.997578","3.217287","-0.021977","814938","893757","813454","9.882147","2.489960","-0.099329","814566","914100","860212","7.830394","1.788955","-0.205457","709200","851286","952490","5.768114","1.422858","-0.158052","1700","1774","1805","2315","1961","1832","2456","1546","1239","2578","1351","988","3526","2259","1844",""
"MA200-0416","27454","80","1","1.10","1.4","2023-05-24T10:15:00","120","2023/05/24","10:15:00","-15.790880739688873","35.08525548130274","0.9","16","30","64","80","-23022","-9194","-2122","7","150","150.14","115.21","34.93","34.56","38.0","18.17","88844","34.94","DUALSPOT-UV-BLUE-GREEN-RED-IR","713525","696030","904484","17.521680","5.206938","0.011395","713275","883831","761961","12.024214","3.222269","-0.091290","815582","894646","814304","9.906299","2.492267","-1.090182","816225","916180","862167","7.851658","1.789361","0.723219","709848","852163","953532","5.788734","1.426900","-0.152619","1432","1683","1790","1713","1057","817","1740","548","147","1851","116","-395","2500","1616","1327",""
"MA200-0416","27455","80","1","1.10","1.4","2023-05-24T10:15:30","120","2023/05/24","10:15:30","-15.791079342365265","35.085162825882435","0.7","16","30","64","80","-23220","-8368","-2280","7","150","150.03","115.51","34.51","34.64","38.0","18.25","88824","35.13","DUALSPOT-UV-BLUE-GREEN-RED-IR","716755","699573","909354","17.604462","5.235697","0.010681","715627","887046","764828","12.074169","3.233797","-0.037377","817964","897577","817007","9.948016","2.500909","-0.069759","820502","921245","866964","7.884615","1.792913","-0.607970","707862","849986","951186","5.820888","1.434342","-0.073333","4209","4894","5184","3205","2476","2209","2998","2078","1770","2862","1032","494","3888","3011","2725",""
"MA200-0416","27456","80","1","1.10","1.4","2023-05-24T10:16:00","120","2023/05/24","10:16:00","-15.79114717245102","35.0853903144598","0.8","16","30","64","80","-22896","-6656","-740","7","150","150.08","115.29","34.78","34.73","38.0","18.32","88800","35.25","DUALSPOT-UV-BLUE-GREEN-RED-IR","713050","696415","905551","17.706278","5.270656","0.009284","712792","884015","762376","12.146344","3.252834","-0.017059","815996","895819","815558","10.009492","2.515697","-0.037080","816192","916785","862815","7.933018","1.801288","-0.155175","708993","851625","953066","5.858284","1.443801","-0.046563","5186","5903","6207","4640","4057","3844","4426","3529","3228","4212","2415","1887","4531","3799","3559",""
"MA200-0416","27457","80","1","1.10","1.4","2023-05-24T10:16:30","120","2023/05/24","10:16:30","-15.791239857673645","35.085624143481255","0.5","16","30","64","80","-23516","-7552","431","7","150","149.51","114.88","34.63","34.80","37.9","18.33","88756","35.31","DUALSPOT-UV-BLUE-GREEN-RED-IR","715903","699340","909406","17.730154","5.277714","-0.001607","715070","886986","764986","12.168353","3.257097","-0.078412","817602","897762","817320","10.028459","2.517235","-4.036865","819257","920339","866171","7.948218","1.801109","0.492123","705864","847954","948988","5.874645","1.446043","-0.445924","1220","1197","1186","1420","912","726","1370","368","33","1327","-51","-455","1989","904","549",""
"MA200-0416","27458","80","1","1.10","1.4","2023-05-24T10:17:00","120","2023/05/24","10:17:00","-15.791308581829071","35.085816487669945","0.8","16","30","64","80","-24480","-7060","-1092","7","150","149.96","114.96","35.01","34.88","37.7","18.32","88708","35.38","DUALSPOT-UV-BLUE-GREEN-RED-IR","717371","700903","911571","17.765244","5.290876","0.013973","710992","882108","760810","12.191731","3.263248","-0.018696","814373","894361","814251","10.048646","2.520734","-0.134683","813764","914288","860487","7.962977","1.801168","0.581952","706508","848826","950031","5.891906","1.450003","-0.082456","1792","2208","2384","1507","1302","1227","1458","829","619","1288","17","-354","2097","1580","1411",""
"MA200-0416","27459","80","1","1.10","1.4","2023-05-24T10:17:30","120","2023/05/24","10:17:30","-15.791419863700867","35.08591564744711","1.0","16","30","64","80","-23948","-9672","-5916","7","150","149.76","114.92","34.85","34.95","37.5","18.31","88668","35.38","DUALSPOT-UV-BLUE-GREEN-RED-IR","709590","693456","901932","17.794288","5.299835","0.001342","709545","880416","759400","12.213814","3.267801","-0.063506","814039","894111","814045","10.065645","2.521956","5.592001","813534","914163","860384","7.976693","1.800733","0.419125","706295","848684","949877","5.906318","1.453474","-0.063610","1484","1510","1520","1424","968","802","1228","291","-22","1197","-125","-511","1751","1391","1273",""
"MA200-0416","27460","80","1","1.10","1.4","2023-05-24T10:18:00","120","2023/05/24","10:18:00","-15.791652798652649","35.08580482006073","0.9","16","30","64","80","-23640","-8612","-4792","7","150","150.08","115.13","34.95","35.01","37.2","18.22","88680","35.31","DUALSPOT-UV-BLUE-GREEN-RED-IR","712095","696048","905472","17.827686","5.313261","0.017724","712016","883651","762269","12.239154","3.277696","0.022965","815154","895478","815363","10.087736","2.529627","0.015974","815436","916410","862494","7.991004","1.804202","-0.044013","707001","849594","950979","5.923988","1.458879","0.001718","1703","2256","2490","1631","2098","2269","1593","1822","1899","1247","995","922","2144","2160","2166",""
"MA200-0416","27461","80","1","1.10","1.4","2023-05-24T10:18:30","120","2023/05/24","10:18:30","-15.791924893856049","35.08571198582649","1.0","16","30","64","80","-23656","-9484","-3844","7","150","149.57","114.72","34.85","35.09","37.1","18.25","88676","35.38","DUALSPOT-UV-BLUE-GREEN-RED-IR","712586","696678","906369","17.859140","5.323963","0.008181","712118","883931","762502","12.263378","3.282619","-0.067205","815685","896213","816046","10.106946","2.531999","-0.376633","817120","918446","864435","8.005253","1.804894","1.597099","707835","850748","952285","5.941757","1.464229","-0.001986","1610","1803","1886","1565","1047","858","1390","565","289","1246","199","-105","2163","2144","2138",""
"MA200-0416","27462","80","1","1.10","1.4","2023-05-24T10:19:00","120","2023/05/24","10:19:00","-15.79212337732315","35.085594311356544","0.6","16","30","64","79","-22772","-9316","-5732","7","150","149.66","115.29","34.37","35.15","37.1","18.32","88668","35.56","DUALSPOT-UV-BLUE-GREEN-RED-IR","712343","696660","906450","17.896964","5.335083","-0.001110","712269","884341","762929","12.290570","3.287834","-0.077200","815015","895704","815610","10.129583","2.535909","-0.126135","816138","917509","863547","8.021256","1.803684","0.326639","706709","849523","950951","5.958305","1.467471","-0.140037","1926","1900","1889","1748","1124","897","1630","944","715","1392","-353","-859","2005","1317","1093",""
"MA200-0416","27463","80","1","1.10","1.4","2023-05-24T10:19:30","120","2023/05/24","10:19:30","-15.792307436466217","35.08540281653404","0.7","16","30","64","80","-24016","-10062","-6204","7","150","150.30","115.69","34.60","35.23","37.1","18.37","88668","35.69","DUALSPOT-UV-BLUE-GREEN-RED-IR","708143","694277","904443","18.266460","5.455328","0.006106","708436","881478","761167","12.595849","3.380794","0.001916","812636","894696","815369","10.393631","2.613861","-0.001695","812916","915329","862013","8.234413","1.863342","-0.010997","708661","852829","955124","6.116091","1.512466","-0.010782","18758","20410","21113","19561","19915","20045","18948","18702","18620","18484","17296","16949","19051","18164","17873",""
"MA200-0416","27464","80","1","1.10","1.4","2023-05-24T10:20:00","120","2023/05/24","10:20:00","-15.792460083961487","35.08521714806557","1.0","16","30","64","80","-23692","-9604","-4692","7","150","149.72","114.94","34.78","35.31","36.9","18.37","88680","35.81","DUALSPOT-UV-BLUE-GREEN-RED-IR","710235","696648","907756","18.338206","5.478718","0.005418","710412","884324","763759","12.654881","3.397441","-0.008099","813466","895968","816588","10.443240","2.626807","-0.021573","814753","917648","864297","8.274338","1.871657","-0.081538","705109","848752","950588","6.147936","1.521143","-0.024814","3666","3950","4070","3807","3548","3453","3583","3090","2924","3485","2398","2081","3870","3484","3358",""
"MA200-0416","27465","80","1","1.10","1.4","2023-05-24T10:20:30","120","2023/05/24","10:20:30","-15.792598009109497","35.085127986967564","1.1","16","30","64","80","-23864","-7296","-2112","7","150","149.51","115.08","34.43","35.39","36.9","18.45","88680","35.88","DUALSPOT-UV-BLUE-GREEN-RED-IR","712147","698974","911060","18.419982","5.504503","0.003875","711747","886453","765742","12.720334","3.413780","-0.023024","814515","897565","818137","10.498981","2.638590","-0.061386","817113","920667","867196","8.317388","1.879274","-0.134426","706104","850216","952346","6.184049","1.530088","-0.047938","4174","4398","4494","4216","3517","3261","4021","2841","2445","3753","2219","1772","4383","3629","3381",""
"MA200-0416","27466","80","1","1.10","1.4","2023-05-24T10:21:00","120","2023/05/24","10:21:00","-15.792822182178497","35.08501398563385","0.9","16","30","64","79","-24048","-8496","-2064","7","150","150.23","115.20","35.03","35.47","36.9","18.52","88672","36.00","DUALSPOT-UV-BLUE-GREEN-RED-IR","707556","694854","905951","18.517320","5.535568","0.003559","708515","882836","762753","12.794543","3.434391","-0.010508","811768","894894","815845","10.561915","2.652753","-0.050367","812553","915852","862717","8.366395","1.888042","-0.135689","703551","847329","949184","6.223219","1.539982","-0.046660","4963","5208","5313","4775","4361","4209","4535","3356","2960","4268","2510","1998","4749","3945","3681",""
"MA200-0416","27467","80","1","1.10","1.4","2023-05-24T10:21:30","120","2023/05/24","10:21:30","-15.793038249015808","35.0848673209548","0.7","16","30","64","79","-21964","-11316","-6172","7","150","149.99","115.26","34.73","35.56","36.9","18.60","88684","36.19","DUALSPOT-UV-BLUE-GREEN-RED-IR","710355","697791","909879","18.561030","5.549757","0.005356","710356","885322","764938","12.827311","3.442480","-0.025564","810640","893840","814915","10.589701","2.659780","-0.025775","809552","912639","859728","8.388534","1.891589","-0.182336","705267","849531","951708","6.244646","1.545340","-0.046778","2227","2399","2473","2107","1726","1587","2001","1680","1572","1927","1024","761","2597","2155","2009",""
"MA200-0416","27468","80","1","1.10","1.4","2023-05-24T10:22:00","120","2023/05/24","10:22:00","-15.793253004550934","35.084686659276485","0.8","16","30","64","79","-23144","-10304","-6380","7","150","149.90","115.12","34.78","35.65","36.8","18.64","88704","36.25","DUALSPOT-UV-BLUE-GREEN-RED-IR","706705","694429","905603","18.602292","5.562801","0.003334","707441","881913","762074","12.859253","3.449363","-0.050105","812153","895713","816649","10.615384","2.663213","-0.274203","812910","916615","863438","8.407322","1.891952","0.691386","706796","851503","953962","6.263357","1.549693","-0.070303","2105","2202","2244","2057","1467","1251","1852","819","473","1637","104","-340","2270","1748","1576",""
"MA200-0416","27469","80","1","1.10","1.4","2023-05-24T10:22:30","120","2023/05/24","10:22:30","-15.793200850486755","35.08450432121754","0.8","16","30","64","79","-22152","-10008","-6688","7","150","149.94","115.59","34.35","35.74","36.7","18.67","88716","36.31","DUALSPOT-UV-BLUE-GREEN-RED-IR","709108","697036","909154","18.651524","5.578333","0.004325","709503","884746","764574","12.895613","3.458025","-0.028858","813212","897121","818006","10.647297","2.669239","-0.089065","814196","918254","865016","8.431647","1.894366","-0.722967","707149","852105","954672","6.286785","1.555115","-0.066204","2501","2655","2721","2332","1869","1699","2292","1456","1176","2111","705","297","2831","2205","1999",""
"MA200-0416","27470","80","1","1.10","1.4","2023-05-24T10:23:00","120","2023/05/24","10:23:00","-15.792960107326508","35.08442832529545","1.0","16","30","64","79","-23460","-11052","-4904","7","150","150.43","115.22","35.21","35.82","36.5","18.64","88732","36.38","DUALSPOT-UV-BLUE-GREEN-RED-IR","705033","696281","910393","19.231264","5.776472","0.007529","705527","883654","765231","13.420817","3.628017","0.005592","805021","891604","814447","11.115433","2.816534","0.003438","811445","918374","866456","8.832170","2.014249","-0.003087","700745","846685","949724","6.599649","1.648596","-0.004622","29553","33054","34557","33792","35792","36533","33732","34732","35072","34875","34160","33949","37932","37090","36809",""
"MA200-0416","27471","80","1","1.10","1.4","2023-05-24T10:23:30","120","2023/05/24","10:23:30","-15.792743682861328","35.08439031243324","0.5","16","30","64","79","-21448","-13151","-5148","7","150","150.09","115.59","34.50","35.89","36.3","18.61","88744","36.31","DUALSPOT-UV-BLUE-GREEN-RED-IR","701991","694217","908315","19.568218","5.889900","0.007901","702921","881433","763730","13.715349","3.723074","0.007320","803102","890492","813829","11.387800","2.899677","0.002600","808472","915902","864454","9.070398","2.084374","-0.002008","699356","845658","948905","6.786550","1.703168","-0.004405","17121","19310","20252","18889","20424","20997","19562","20007","20159","20676","20391","20306","22587","22096","21931",""
"MA200-0416","27472","80","1","1.10","1.4","2023-05-24T10:24:00","120","2023/05/24","10:24:00","-15.792808711528778","35.084440641105175","0.1","16","30","64","79","-22532","-11732","-4960","7","150","150.08","115.00","35.07","35.96","36.0","18.55","88728","36.31","DUALSPOT-UV-BLUE-GREEN-RED-IR","702799","695307","909914","19.630638","5.912586","0.010966","703407","882340","764629","13.765833","3.737690","-0.005440","803374","891037","814438","11.431815","2.911895","-0.011980","809302","917119","865678","9.106769","2.091825","-0.081564","699393","845886","949229","6.819746","1.712384","-0.019965","3188","3799","4062","3254","3089","3027","3177","2892","2794","3172","2131","1820","4032","3670","3549",""
"MA200-0416","27473","80","1","1.10","1.4","2023-05-24T10:24:30","120","2023/05/24","10:24:30","-15.792836129665375","35.08442214876413","0.0","16","30","64","79","-22454","-2979","8745","7","150","149.33","115.16","34.17","36.02","35.8","18.52","88728","36.31","DUALSPOT-UV-BLUE-GREEN-RED-IR","702191","694948","909641","19.686278","5.930637","0.005986","702629","881685","764148","13.809018","3.749563","-0.008121","802934","890810","814297","11.466226","2.921939","-0.001965","809875","917941","866508","9.134236","2.097582","-0.067404","703103","850594","954554","6.846084","1.719447","-0.021556","2837","3102","3217","2780","2575","2499","2480","2440","2426","2393","1690","1481","3195","2887","2784",""
"MA200-0416","27474","80","1","1.10","1.4","2023-05-24T10:25:00","120","2023/05/24","10:25:00","-15.792846918106079","35.08439864963293","0.0","16","30","64","79","-23264","-6500","-8768","7","150","149.70","115.16","34.54","36.08","35.6","18.48","88728","36.31","DUALSPOT-UV-BLUE-GREEN-RED-IR","701942","694912","909721","19.732130","5.945472","0.005126","702712","881985","764491","13.843014","3.758348","-0.016954","805597","894013","817279","11.499053","2.928502","-0.070410","808670","916787","865423","9.156355","2.098089","0.660135","702101","849474","953363","6.868194","1.724959","-0.042390","2338","2522","2601","2188","1885","1772","2366","1577","1307","1927","147","-382","2682","2229","2077",""
"MA200-0416","27475","80","1","1.10","1.4","2023-05-24T10:25:30","120","2023/05/24","10:25:30","-15.79285877943039","35.08436765521765","0.2","16","30","64","79","-24628","-2060","-4880","7","150","149.51","115.20","34.31","36.13","35.3","18.37","88732","36.25","DUALSPOT-UV-BLUE-GREEN-RED-IR","699991","693295","907771","19.793744","5.963985","0.000629","701284","880464","763268","13.887751","3.772855","0.007828","804973","893530","816905","11.534503","2.939176","0.001259","807523","915680","864416","9.183862","2.104467","-0.043919","701500","848942","952819","6.894695","1.730914","-0.070757","3141","3169","3181","2879","3134","3230","2554","2582","2592","2395","1864","1707","3213","2424","2159",""
"MA200-0416","27476","80","1","1.10","1.4","2023-05-24T10:26:00","120","2023/05/24","10:26:00","-15.792854964733124","35.08439114689827","0.2","16","30","64","79","-23664","-3823","-8872","7","150","149.87","115.13","34.74","36.17","34.8","18.17","88732","36.19","DUALSPOT-UV-BLUE-GREEN-RED-IR","698674","692214","906513","19.843096","5.982651","0.013413","700203","879276","762393","13.925289","3.787637","0.021201","803611","892164","815787","11.564314","2.949846","0.017282","804673","912582","861576","9.207549","2.112966","0.021405","700136","847415","951153","6.918400","1.738166","0.002640","2517","3155","3431","2417","3154","3429","2149","2549","2686","2064","2454","2570","2876","2916","2929",""
"MA200-0416","27477","80","1","1.10","1.4","2023-05-24T10:26:30","120","2023/05/24","10:26:30","-15.792857050895691","35.084369488060474","0.7","15","30","64","79","-24529","-2258","-6325","7","150","149.45","115.27","34.17","36.21","34.3","17.97","88728","36.13","DUALSPOT-UV-BLUE-GREEN-RED-IR","694581","688384","901656","19.896388","5.999986","0.006152","702012","881801","764652","13.966349","3.799732","-0.000633","801235","889758","813621","11.599751","2.958930","-0.019125","800781","908394","857655","9.235491","2.117931","-0.117168","701754","849507","953629","6.944492","1.745833","-0.001711","2715","2979","3094","2640","2623","2617","2552","2207","2088","2431","1457","1168","3162","3134","3124",""
"MA200-0416","27478","80","1","1.10","1.4","2023-05-24T10:27:00","120","2023/05/24","10:27:00","-15.79284530878067","35.08439114689827","0.2","15","30","64","79","-24768","-720","-5084","7","150","149.83","115.08","34.75","36.24","33.7","17.76","88728","36.06","DUALSPOT-UV-BLUE-GREEN-RED-IR","699905","693841","908930","19.936956","6.013447","0.006205","701200","880953","763994","13.996475","3.809805","0.009163","803804","892789","816465","11.624715","2.965039","-0.029385","806805","915359","864248","9.254349","2.120214","-0.377130","701492","849313","953422","6.960207","1.749620","-0.053111","2070","2274","2363","1940","2148","2226","1801","1459","1342","1644","658","366","1907","1522","1392",""
"MA200-0416","27479","80","1","1.10","1.4","2023-05-24T10:27:30","120","2023/05/24","10:27:30","-15.792836785316467","35.084441147744656","0.0","15","30","64","79","-22687","-1041","-12529","7","150","149.90","115.39","34.50","36.24","33.2","17.51","88720","36.00","DUALSPOT-UV-BLUE-GREEN-RED-IR","697847","692098","906846","19.994308","6.030672","0.000321","699551","879210","762538","14.040904","3.816694","-0.138852","801805","890865","814775","11.662935","2.970440","-0.207518","803843","912242","861322","9.282637","2.121657","1.540134","699366","846849","950725","6.980674","1.757314","0.036654","2919","2932","2938","2854","1480","967","2749","1299","803","2459","419","-184","2477","3115","3329",""
"MA200-0416","27480","80","1","1.10","1.4","2023-05-24T10:28:00","120","2023/05/24","10:28:00","-15.792732834815979","35.08436615765095","0.9","15","30","64","79","-25024","40","-6156","7","150","150.09","115.79","34.30","36.24","32.9","17.35","88736","35.94","DUALSPOT-UV-BLUE-GREEN-RED-IR","694942","689519","903619","20.055838","6.049679","0.002876","697340","876758","760516","14.087626","3.830351","-0.001331","803389","892875","816672","11.700769","2.981436","-0.002219","801907","910276","859510","9.311533","2.128094","-0.050883","701531","849622","953908","7.005518","1.763243","-0.050095","3121","3254","3312","2991","2951","2936","2712","2661","2644","2503","1882","1698","2997","2414","2218",""
"MA200-0416","27481","80","1","1.10","1.4","2023-05-24T10:28:30","120","2023/05/24","10:28:30","-15.792664229869843","35.08421981334686","1.1","15","30","64","78","-24572","-5724","-2708","7","150","150.03","115.71","34.32","36.24","32.5","17.15","88748","35.81","DUALSPOT-UV-BLUE-GREEN-RED-IR","697070","692063","907255","20.152048","6.083267","0.010045","698927","879103","762676","14.148002","3.848417","0.000864","800879","890429","814542","11.752827","2.996778","-0.000720","804355","913276","862443","9.349396","2.138024","-0.018865","698833","846541","950496","7.034649","1.770739","-0.030542","4883","5749","6123","3868","3902","3915","3735","3711","3703","3282","2903","2790","3516","3051","2894",""
"MA200-0416","27482","80","1","1.10","1.4","2023-05-24T10:29:00","120","2023/05/24","10:29:00","-15.792826414108276","35.08407982438803","0.7","15","30","64","79","-24750","-5208","-3033","7","150","150.56","115.47","35.08","36.24","32.3","17.06","88748","35.75","DUALSPOT-UV-BLUE-GREEN-RED-IR","695980","691487","906902","20.274436","6.128425","0.011596","697850","878129","762013","14.216561","3.869373","0.000584","800453","890259","814518","11.805881","3.011441","-0.011691","804995","914265","863453","9.390025","2.147871","-0.037868","699023","846958","951033","7.063389","1.776884","-0.092784","6225","7560","8138","4401","4428","4438","3814","3469","3351","3529","2815","2604","3476","2446","2100",""
"MA200-0416","27483","80","1","1.10","1.4","2023-05-24T10:29:30","120","2023/05/24","10:29:30","-15.793073654174805","35.08398798108101","1.0","15","30","64","79","-24764","-6752","-2900","7","150","149.57","115.31","34.25","36.22","32.1","16.96","88752","35.75","DUALSPOT-UV-BLUE-GREEN-RED-IR","694882","690693","905968","20.321442","6.141777","-0.003290","697416","877900","761852","14.253900","3.879667","-0.007678","800044","890044","814404","11.837703","3.019482","-0.021160","804436","913877","863134","9.414680","2.152889","-0.073194","698654","846666","950736","7.082151","1.782076","-0.014160","2394","2289","2244","2400","2228","2163","2291","1949","1832","2145","1470","1269","2272","2117","2065",""
"MA200-0416","27484","80","1","1.10","1.4","2023-05-24T10:30:00","120","2023/05/24","10:30:00","-15.793316304683685","35.083931140601635","1.0","15","30","64","79","-25012","-3232","-3839","7","150","150.03","115.55","34.48","36.22","32.1","16.96","88752","35.75","DUALSPOT-UV-BLUE-GREEN-RED-IR","697564","693512","909793","20.367780","6.155504","-0.000504","699637","880871","764520","14.289310","3.887863","-0.031172","800905","891206","815505","11.868515","3.025520","-0.071958","805963","915752","864927","9.438166","2.156895","-0.132269","699580","847881","952167","7.098701","1.785624","-0.084928","2355","2338","2331","2271","1762","1571","2213","1454","1194","2039","1165","906","2000","1437","1248",""
"MA200-0416","27485","80","1","1.10","1.4","2023-05-24T10:30:30","120","2023/05/24","10:30:30","-15.793575525283813","35.083860486745834","0.9","15","30","64","78","-24192","-8476","-3128","7","150","149.46","115.54","33.92","36.22","32.2","17.00","88756","35.81","DUALSPOT-UV-BLUE-GREEN-RED-IR","694147","690290","905657","20.403544","6.166343","0.002180","696807","877514","761641","14.318233","3.894895","-0.021542","799563","889854","814307","11.892951","3.031868","-0.015365","802249","911679","861095","9.456051","2.159625","-0.174125","701501","850278","954880","7.111662","1.789760","0.014661","1817","1877","1902","1855","1537","1418","1755","1553","1484","1552","807","586","1566","1703","1749",""
"MA200-0416","27486","80","1","1.10","1.4","2023-05-24T10:31:00","120","2023/05/24","10:31:00","-15.793835401535034","35.08383548259735","1.0","15","30","64","78","-24564","-7356","-4376","7","150","150.49","115.75","34.74","36.22","32.2","17.02","88760","35.94","DUALSPOT-UV-BLUE-GREEN-RED-IR","697858","694209","910943","20.449832","6.181597","0.006020","699363","880947","764691","14.352206","3.904331","-0.007953","801881","892683","816956","11.921947","3.038448","-0.040793","807247","917520","866668","9.477229","2.164101","-0.065557","700113","848685","953143","7.129171","1.794164","-0.038727","2348","2578","2678","2175","2013","1952","2079","1572","1399","1835","1292","1132","2113","1770","1655",""
"MA200-0416","27487","80","1","1.10","1.4","2023-05-24T10:31:30","120","2023/05/24","10:31:30","-15.794068217277527","35.0837696492672","0.9","15","30","64","78","-25464","-6432","-3436","7","150","150.49","116.07","34.42","36.24","32.4","17.12","88772","36.06","DUALSPOT-UV-BLUE-GREEN-RED-IR","695047","691837","908115","20.520584","6.205656","0.008467","697304","878748","762918","14.400796","3.917564","-0.008778","800702","891636","816097","11.960487","3.048402","-0.017513","804430","914551","863944","9.506694","2.170789","-0.045959","698272","846634","950866","7.148130","1.799306","-0.018023","3580","4105","4333","3103","2849","2755","2756","2401","2279","2546","1949","1772","2281","2086","2021",""
"MA200-0416","27488","80","1","1.10","1.4","2023-05-24T10:32:00","120","2023/05/24","10:32:00","-15.79409909248352","35.0836878195405","0.3","15","30","64","78","-20000","-10232","-13523","7","150","150.28","115.63","34.66","36.24","32.5","17.15","88784","36.19","DUALSPOT-UV-BLUE-GREEN-RED-IR","691609","689205","905279","20.708496","6.275926","0.012661","695191","876679","761316","14.500877","3.946497","-0.003534","799129","890417","815103","12.037478","3.067368","-0.026096","800620","910655","860360","9.567559","2.183717","-0.063381","700929","850117","954887","7.191675","1.810085","-0.042178","9545","11909","12937","6416","6188","6103","5528","4543","4206","5281","3742","3287","5260","4344","4036",""
"MA200-0416","27489","80","1","1.10","1.4","2023-05-24T10:32:30","120","2023/05/24","10:32:30","-15.79411494731903","35.08368416130543","0.0","15","30","64","78","1666","14212","18020","7","150","149.96","115.51","34.45","36.25","32.5","17.19","88784","36.25","DUALSPOT-UV-BLUE-GREEN-RED-IR","689528","689689","907660","21.249450","6.459202","0.007695","694561","877843","763138","14.816853","4.047443","0.006027","798078","890720","816054","12.277705","3.142935","0.005588","801500","912870","862980","9.751093","2.238792","0.000822","700254","850240","955408","7.331997","1.845466","-0.035489","27506","31248","32883","20278","21723","22266","17265","18212","18537","15940","16039","16069","16969","14347","13465",""
"MA200-0416","27490","80","1","1.10","1.4","2023-05-24T10:33:00","120","2023/05/24","10:33:00","-15.794126868247986","35.08369665592909","0.1","15","30","64","78","-541","10525","20091","7","150","149.40","115.25","34.15","36.27","32.4","17.15","88788","36.38","DUALSPOT-UV-BLUE-GREEN-RED-IR","689201","690006","908640","21.436646","6.532156","0.014556","694116","877743","763304","14.917772","4.084303","0.016267","798326","891414","816886","12.355954","3.168749","0.010712","801942","913665","863884","9.812877","2.260291","0.018832","696730","846221","950961","7.381296","1.855448","-0.099288","9540","12548","13866","6491","8001","8571","5636","6276","6496","5378","6316","6597","5975","4083","3448",""
"MA200-0416","27491","80","1","1.10","1.4","2023-05-24T10:33:30","120","2023/05/24","10:33:30","-15.794125020503998","35.08371548354626","0.3","15","30","64","78","-196","10448","20192","7","150","150.09","115.51","34.58","36.31","32.2","17.09","88788","36.38","DUALSPOT-UV-BLUE-GREEN-RED-IR","688827","689874","908672","21.502728","6.555845","0.010289","693935","877744","763367","14.961024","4.098075","0.005396","798169","891415","816969","12.389233","3.179634","0.008935","802173","914097","864326","9.839268","2.267015","-0.024402","696465","846007","950765","7.399910","1.860082","-0.039225","3360","4023","4314","2775","2952","3019","2391","2613","2689","2292","1950","1848","2251","1871","1744",""
"MA200-0416","27492","80","1","1.10","1.4","2023-05-24T10:34:00","120","2023/05/24","10:34:00","-15.794122517108917","35.083707481622696","0.1","15","30","64","78","-164","10416","20216","7","150","150.23","115.75","34.47","36.34","32.0","17.00","88792","36.44","DUALSPOT-UV-BLUE-GREEN-RED-IR","687683","688965","907599","21.547730","6.572586","0.012243","693147","876923","762788","14.991780","4.109193","0.015167","797744","891093","816746","12.414565","3.188908","0.018992","801263","913177","863524","9.857507","2.272051","-0.010610","696185","845756","950483","7.413988","1.863108","-0.079799","2283","2852","3101","1969","2390","2549","1816","2233","2377","1580","1465","1431","1699","1226","1067",""
