"Serial number","Datum ID","Session ID","Data format version","Firmware version","App version","Date / time local","Timezone offset (mins)","Date local (yyyy/MM/dd)","Time local (hh:mm:ss)","GPS lat (ddmm.mmmmm)","GPS long (dddmm.mmmmm)","GPS speed (km/h)","GPS sat count","Timebase (s)","Status","Battery remaining (%)","Accel X","Accel Y","Accel Z","Tape position","Flow setpoint (mL/min)","Flow total (mL/min)","Flow1 (mL/min)","Flow2 (mL/min)","Sample temp (C)","Sample RH (%)","Sample dewpoint (C)","Internal pressure (Pa)","Internal temp (C)","Optical config","UV Sen1","UV Sen2","UV Ref","UV ATN1","UV ATN2","UV K","Blue Sen1","Blue Sen2","Blue Ref","Blue ATN1","Blue ATN2","Blue K","Green Sen1","Green Sen2","Green Ref","Green ATN1","Green ATN2","Green K","Red Sen1","Red Sen2","Red Ref","Red ATN1","Red ATN2","Red K","IR Sen1","IR Sen2","IR Ref","IR ATN1","IR ATN2","IR K","UV BC1","UV BC2","UV BCc","Blue BC1","Blue BC2","Blue BCc","Green BC1","Green BC2","Green BCc","Red BC1","Red BC2","Red BCc","IR BC1","IR BC2","IR BCc","Readable status"
"MA200-0416","20931","59","1","1.10","1.4","2023-05-07T14:05:30","120","2023/05/07","14:05:30","-15.787282764911652","35.03512282669544","0.0","18","30","66","58","-23984","5044","1276","3","150","150.01","113.81","36.20","33.35","37.8","17.04","89480","32.69","DUALSPOT-UV-BLUE-GREEN-RED-IR","865202","743798","907438","0.000000","0.000000","0.000000","813780","928239","763789","0.000000","0.000000","0.000000","907209","929640","814818","0.000000","0.000000","0.000000","887376","945900","862746","0.000000","0.000000","0.000000","750786","864920","956274","0.000000","0.000000","0.000000","","","","","","","","","","","","","","","","Start up"
"MA200-0416","20932","59","1","1.10","1.4","2023-05-07T14:06:00","120","2023/05/07","14:06:00","-15.787286698818207","35.03512132540345","0.0","18","30","66","58","-23984","4672","1956","3","150","149.51","113.96","35.54","33.37","37.5","16.93","89480","32.88","DUALSPOT-UV-BLUE-GREEN-RED-IR","867780","746336","910825","0.000000","0.000000","0.000000","815772","930708","766035","0.000000","0.000000","0.000000","908220","930873","816062","0.000000","0.000000","0.000000","889951","948799","865589","0.000000","0.000000","0.000000","747427","861230","952298","0.000000","0.000000","0.000000","","","","","","","","","","","","","","","","Start up"
"MA200-0416","20933","59","1","1.10","1.4","2023-05-07T14:06:30","120","2023/05/07","14:06:30","-15.787292063236237","35.0351186580956","0.0","18","30","66","58","-24016","4641","2162","3","150","149.32","113.77","35.54","33.38","37.1","16.77","89472","32.94","DUALSPOT-UV-BLUE-GREEN-RED-IR","861252","741024","904505","0.000000","0.000000","0.000000","810618","925021","761465","0.000000","0.000000","0.000000","904446","927139","812903","0.000000","0.000000","0.000000","883647","942202","859679","0.000000","0.000000","0.000000","748398","862456","953726","0.000000","0.000000","0.000000","","","","","","","","","","","","","","","","Start up"
"MA200-0416","20934","59","1","1.10","1.4","2023-05-07T14:07:00","120","2023/05/07","14:07:00","-15.787292838096619","35.035118993371725","0.0","18","30","66","57","-24048","4720","2376","3","150","151.95","114.00","37.94","33.40","36.8","16.62","89472","33.00","DUALSPOT-UV-BLUE-GREEN-RED-IR","858769","739142","902332","0.000000","0.000000","0.000000","808913","923263","760098","0.000000","0.000000","0.000000","908092","931039","816420","0.000000","0.000000","0.000000","882680","941274","858864","0.000000","0.000000","0.000000","747650","861691","952893","0.000000","0.000000","0.000000","","","","","","","","","","","","","","","","Start up"
"MA200-0416","20935","59","1","1.10","1.4","2023-05-07T14:07:30","120","2023/05/07","14:07:30","-15.78729385137558","35.03511682897806","0.0","18","30","66","57","-24056","4548","2136","3","150","149.57","113.88","35.68","33.40","36.4","16.46","89472","33.06","DUALSPOT-UV-BLUE-GREEN-RED-IR","861590","741764","905651","0.000000","0.000000","0.000000","811098","925892","762329","0.000000","0.000000","0.000000","904401","927381","813225","0.000000","0.000000","0.000000","884292","943059","860572","0.000000","0.000000","0.000000","748413","862665","954003","0.000000","0.000000","0.000000","","","","","","","","","","","","","","","","Start up"
"MA200-0416","20936","59","1","1.10","1.4","2023-05-07T14:08:00","120","2023/05/07","14:08:00","-15.787294924259186","35.03511632233858","0.1","18","30","64","57","-24016","4537","2783","3","150","149.38","113.81","35.57","33.41","36.1","16.33","89468","33.06","DUALSPOT-UV-BLUE-GREEN-RED-IR","861354","741768","905767","0.000000","0.000000","0.000000","810902","925820","762347","0.000000","0.000000","0.000000","908814","931981","817376","0.000000","0.000000","0.000000","884317","943181","860695","0.000000","0.000000","0.000000","748326","862608","953968","0.000000","0.000000","0.000000","","","","","","","","","","","","","","","",""
"MA200-0416","20937","59","1","1.10","1.4","2023-05-07T14:08:30","120","2023/05/07","14:08:30","-15.78726327419281","35.03509249165654","0.3","18","30","64","57","-23228","7708","1180","3","150","149.60","114.00","35.60","33.42","35.8","16.21","89476","33.06","DUALSPOT-UV-BLUE-GREEN-RED-IR","861426","742057","906248","0.042527","0.013612","0.000000","811011","926055","762612","0.022995","0.008481","0.000000","904519","927716","813638","0.017153","0.006228","0.000000","884339","943263","860837","0.013810","0.006091","0.000000","748524","862902","954319","0.008468","0.003691","0.000000","2191","2245","2191","1495","1766","1495","1249","1452","1249","1215","1716","1215","1037","1448","1037",""
"MA200-0416","20938","59","1","1.10","1.4","2023-05-07T14:09:00","120","2023/05/07","14:09:00","-15.787231802940369","35.03515448793769","0.2","18","30","64","57","-23345","7383","1291","3","150","149.50","113.95","35.55","33.43","35.5","16.11","89464","33.06","DUALSPOT-UV-BLUE-GREEN-RED-IR","861181","742037","906357","0.083266","0.026718","0.000000","810691","925880","762490","0.048148","0.016654","0.000000","903844","927119","813177","0.035810","0.011169","0.000000","884062","943039","860663","0.026786","0.010228","0.000000","748412","862787","954194","0.016399","0.004192","0.000000","2099","2165","2099","1636","1704","1636","1359","1153","1359","1142","1167","1142","972","196","972",""
"MA200-0416","20939","59","1","1.10","1.4","2023-05-07T14:09:30","120","2023/05/07","14:09:30","-15.787223994731903","35.035149324685335","0.2","18","30","64","57","-23437","7212","800","3","150","149.61","113.85","35.76","33.44","35.3","16.03","89464","33.13","DUALSPOT-UV-BLUE-GREEN-RED-IR","859289","740653","904742","0.125289","0.038585","0.000000","808863","923910","760948","0.071227","0.023092","0.000000","904368","927772","813786","0.054203","0.017338","0.000000","883669","942718","860434","0.041168","0.014972","0.000000","748573","863035","954501","0.025684","0.007251","0.000000","2168","1949","2168","1502","1334","1502","1341","1432","1341","1267","1331","1267","1139","1195","1139",""
"MA200-0416","20940","59","1","1.10","1.4","2023-05-07T14:10:00","120","2023/05/07","14:10:00","-15.787236988544464","35.03515448793769","0.4","18","30","64","57","-23396","7311","1324","3","150","149.81","113.77","36.04","33.45","35.2","15.97","89472","33.13","DUALSPOT-UV-BLUE-GREEN-RED-IR","861656","742933","907686","0.170205","0.050411","0.000000","811440","927082","763597","0.098776","0.031167","0.000000","904604","928154","814153","0.075113","0.023192","0.000000","885619","944910","862482","0.056219","0.019001","0.000000","749136","863729","955319","0.036127","0.010494","0.000000","2318","1927","2318","1795","1660","1795","1525","1348","1525","1327","1121","1327","1282","1256","1282",""
"MA200-0416","20941","59","1","1.10","1.4","2023-05-07T14:10:30","120","2023/05/07","14:10:30","-15.787235856056213","35.03514299541712","0.1","18","30","64","57","-23336","7164","384","3","150","149.57","113.84","35.72","33.46","35.1","15.93","89468","33.13","DUALSPOT-UV-BLUE-GREEN-RED-IR","861765","743251","908184","0.217402","0.064756","0.000000","810731","926436","763142","0.128233","0.040822","0.000000","904641","928325","814378","0.094883","0.029462","0.000000","886158","945600","863108","0.071775","0.023937","0.000000","745012","859024","950141","0.045370","0.012960","0.000000","2435","2358","2435","1918","2003","1918","1441","1457","1441","1370","1386","1370","1134","964","1134",""
"MA200-0416","20942","59","1","1.10","1.4","2023-05-07T14:11:00","120","2023/05/07","14:11:00","-15.787243008613586","35.035142324864864","0.0","18","30","64","57","-23412","7136","1252","3","150","150.17","114.54","35.63","33.49","35.0","15.94","89468","33.19","DUALSPOT-UV-BLUE-GREEN-RED-IR","862249","743894","909121","0.264370","0.078475","0.000000","811455","927423","764011","0.154268","0.047821","0.000000","905276","929097","815128","0.116407","0.035964","0.000000","887019","946583","864045","0.085717","0.026875","0.000000","745633","859827","951014","0.053718","0.014501","0.000000","2408","2261","2408","1685","1456","1685","1560","1515","1560","1221","827","1221","1018","604","1018",""
"MA200-0416","20943","59","1","1.10","1.4","2023-05-07T14:11:30","120","2023/05/07","14:11:30","-15.787257969379425","35.03516015782952","1.0","18","30","64","57","-22780","8828","-132","3","150","149.63","114.44","35.19","33.49","34.8","15.86","89464","33.19","DUALSPOT-UV-BLUE-GREEN-RED-IR","863013","744813","910321","0.307852","0.093381","0.000000","811732","927925","764486","0.177598","0.055910","0.000000","905554","929523","815510","0.133615","0.041109","0.000000","887604","947324","864763","0.100010","0.032323","0.000000","745656","859879","951121","0.063146","0.018364","0.000000","2231","2487","2231","1511","1703","1511","1248","1213","1248","1253","1553","1253","1150","1533","1150",""
"MA200-0416","20944","59","1","1.10","1.4","2023-05-07T14:12:00","120","2023/05/07","14:12:00","-15.787565469741821","35.03587232530117","2.1","18","30","64","57","-23600","6500","1200","3","150","149.39","114.44","34.95","33.49","34.6","15.77","89416","33.25","DUALSPOT-UV-BLUE-GREEN-RED-IR","861142","743449","908838","0.355580","0.107673","0.000000","810882","927147","763888","0.205111","0.063766","0.000000","904203","928289","814503","0.156109","0.048494","0.000000","885579","945311","862948","0.115817","0.036907","0.000000","744536","858713","949830","0.072801","0.020594","0.000000","2449","2402","2449","1782","1666","1782","1631","1754","1631","1385","1315","1385","1178","891","1178",""
"MA200-0416","20945","59","1","1.10","1.4","2023-05-07T14:12:30","120","2023/05/07","14:12:30","-15.787619411945343","35.03583899512887","1.9","18","30","64","57","-22528","6968","1524","3","150","149.83","114.56","35.27","33.52","34.4","15.67","89420","33.25","DUALSPOT-UV-BLUE-GREEN-RED-IR","855920","739176","903750","0.404161","0.122131","0.000000","807293","923164","760726","0.236195","0.073923","0.000000","906558","930843","816790","0.180202","0.054830","0.000000","887953","947935","865411","0.133466","0.041866","0.000000","746533","861066","952487","0.085729","0.024073","0.000000","2490","2407","2490","2011","2134","2011","1746","1491","1746","1545","1410","1545","1576","1377","1576",""
"MA200-0416","20946","59","1","1.10","1.4","2023-05-07T14:13:00","120","2023/05/07","14:13:00","-15.787331640720367","35.03522815555334","3.4","18","30","64","57","-24012","4804","2164","3","150","149.63","114.76","34.87","33.55","34.1","15.56","89460","33.25","DUALSPOT-UV-BLUE-GREEN-RED-IR","856050","739499","904238","0.446797","0.135364","0.000000","812489","929285","765807","0.259584","0.081527","0.000000","906096","930480","816544","0.197708","0.060903","0.000000","881545","941168","859285","0.146019","0.044905","0.000000","746502","861084","952531","0.094291","0.027055","0.000000","2182","2228","2182","1510","1616","1510","1266","1445","1266","1097","874","1097","1042","1194","1042",""
"MA200-0416","20947","59","1","1.10","1.4","2023-05-07T14:13:30","120","2023/05/07","14:13:30","-15.78688931465149","35.03422599285841","4.6","18","30","64","57","-23968","4328","2584","3","150","149.54","114.72","34.82","33.57","33.8","15.45","89544","33.31","DUALSPOT-UV-BLUE-GREEN-RED-IR","855862","739705","904659","0.513703","0.155235","0.000000","807140","923473","761086","0.301963","0.094825","0.000000","905924","930531","816646","0.230461","0.070649","0.000000","889558","949911","867316","0.171285","0.053131","0.000000","746825","861548","953123","0.111269","0.032487","0.000000","3425","3351","3425","2738","2831","2738","2370","2323","2370","2209","2370","2209","2067","2179","2067",""
"MA200-0416","20948","59","1","1.10","1.4","2023-05-07T14:14:00","120","2023/05/07","14:14:00","-15.786654829978943","35.033246994018555","3.7","18","30","64","56","-24196","3796","2173","3","150","149.63","114.24","35.39","33.59","33.6","15.36","0","0.00","DUALSPOT-UV-BLUE-GREEN-RED-IR","855265","739457","904551","0.571526","0.175546","0.000000","807076","923602","761330","0.338739","0.107683","0.000000","905750","930505","816695","0.258862","0.081300","0.000000","889224","949670","867192","0.194114","0.062471","0.000000","746491","861249","952800","0.125495","0.038528","0.000000","2972","3370","2972","2386","2693","2386","2064","2498","2064","2004","2647","2004","1739","2384","1739",""
"MA200-0416","20949","59","1","1.10","1.4","2023-05-07T14:14:30","120","2023/05/07","14:14:30","-15.786547124385834","35.032314993441105","3.3","18","30","64","57","-24060","4132","2008","3","150","150.23","114.20","36.03","33.61","33.3","15.25","0","0.00","DUALSPOT-UV-BLUE-GREEN-RED-IR","855806","740333","905850","0.643511","0.196924","0.000000","807077","923967","761777","0.390309","0.124692","0.000000","905717","930765","817070","0.299894","0.094520","0.000000","881994","942179","860431","0.225132","0.071287","0.000000","746877","861838","953554","0.147523","0.045992","0.000000","3702","3485","3702","3347","3500","3347","2982","3046","2982","2725","2455","2725","2694","2894","2694",""
"MA200-0416","20950","59","1","1.10","1.4","2023-05-07T14:15:00","120","2023/05/07","14:15:00","-15.786064982414246","35.032199162989855","2.3","17","30","64","57","-23172","7968","140","3","150","149.63","114.20","35.43","33.62","33.1","15.16","89668","33.31","DUALSPOT-UV-BLUE-GREEN-RED-IR","854847","740069","905864","0.757976","0.233015","0.000000","806877","924250","762184","0.472075","0.150281","0.000000","905732","931257","817655","0.369178","0.115513","0.000000","882612","943211","861535","0.281101","0.089704","0.000000","746992","862184","954096","0.187652","0.059262","0.000000","5887","5983","5887","5307","5354","5307","5036","4919","5036","4916","5215","4916","4908","5231","4908",""
"MA200-0416","20951","59","1","1.10","1.4","2023-05-07T14:15:30","120","2023/05/07","14:15:30","-15.785960078239441","35.03267949819565","2.9","17","30","64","57","-23600","6828","-2019","3","150","149.63","114.28","35.35","33.65","32.9","15.11","89628","33.38","DUALSPOT-UV-BLUE-GREEN-RED-IR","855230","740824","906951","0.837857","0.256786","0.000000","806926","924611","762613","0.528407","0.166446","0.000000","901135","926810","813864","0.416779","0.129789","0.000000","882805","943648","861999","0.317972","0.099217","0.000000","747323","862705","954702","0.213535","0.065660","0.000000","4105","3949","4105","3654","3389","3654","3458","3352","3458","3236","2699","3236","3163","2528","3163",""
"MA200-0416","20952","59","1","1.10","1.4","2023-05-07T14:16:00","120","2023/05/07","14:16:00","-15.786045849323273","35.033256497234106","1.8","17","30","64","56","-22588","6711","2416","3","150","149.85","114.28","35.58","33.67","32.8","15.08","89580","33.38","DUALSPOT-UV-BLUE-GREEN-RED-IR","855676","741503","907988","0.902114","0.275732","0.000000","807527","925624","763538","0.571114","0.178260","0.000000","905655","931654","818214","0.449943","0.138699","0.000000","882645","943639","862056","0.345373","0.107026","0.000000","746926","862359","954380","0.231641","0.071096","0.000000","3302","3127","3302","2770","2461","2770","2409","2079","2409","2405","2201","2405","2213","2134","2213",""
"MA200-0416","20953","59","1","1.10","1.4","2023-05-07T14:16:30","120","2023/05/07","14:16:30","-15.786104619503021","35.03383048996329","1.8","17","30","64","56","-21904","8000","3544","3","150","149.96","114.28","35.68","33.70","32.8","15.08","89520","33.44","DUALSPOT-UV-BLUE-GREEN-RED-IR","853710","740144","906439","0.963415","0.293554","0.000000","805658","923710","762028","0.611293","0.189590","0.000000","899731","925776","813110","0.480991","0.146740","0.000000","881845","942943","861459","0.368642","0.113087","0.000000","741703","856412","947818","0.248186","0.074671","0.000000","3150","2933","3150","2606","2353","2606","2255","1871","2255","2042","1704","2042","2022","1399","2022",""
"MA200-0416","20954","59","1","1.10","1.4","2023-05-07T14:17:00","120","2023/05/07","14:17:00","-15.786238849163055","35.03431332856417","2.4","17","30","64","56","-23241","6787","3945","3","150","149.76","114.60","35.17","33.71","32.8","15.09","89472","33.44","DUALSPOT-UV-BLUE-GREEN-RED-IR","856259","742598","909567","1.010026","0.305307","0.000000","808279","926956","764739","0.639355","0.195301","0.000000","901118","927380","814549","0.505071","0.151628","0.000000","883754","945104","863457","0.385642","0.115227","0.000000","747390","863078","955231","0.258564","0.077059","0.000000","2388","1963","2388","1815","1203","1815","1744","1153","1744","1488","610","1488","1265","948","1265",""
"MA200-0416","20955","59","1","1.10","1.4","2023-05-07T14:17:30","120","2023/05/07","14:17:30","-15.78650838136673","35.03495332971215","2.2","17","30","64","56","-23154","7245","3600","3","150","149.81","114.88","34.93","33.73","32.7","15.05","89444","33.44","DUALSPOT-UV-BLUE-GREEN-RED-IR","848803","736360","902026","1.053441","0.317411","0.000000","807993","926776","764671","0.665020","0.202947","0.000000","901769","928197","815294","0.525181","0.157547","0.000000","885188","946750","865006","0.401318","0.119649","0.000000","743625","858791","950503","0.268754","0.079315","0.000000","2219","2035","2219","1656","1622","1656","1453","1406","1453","1369","1270","1369","1239","902","1239",""
"MA200-0416","20956","59","1","1.10","1.4","2023-05-07T14:18:00","120","2023/05/07","14:18:00","-15.786759674549103","35.03550698980689","1.9","17","30","64","56","-23132","7104","2600","3","150","149.39","114.52","34.87","33.75","32.6","15.03","89408","33.50","DUALSPOT-UV-BLUE-GREEN-RED-IR","849491","737172","903125","1.094163","0.329721","0.000000","809012","928101","765816","0.688767","0.209278","0.000000","901906","928463","815574","0.543396","0.162363","0.000000","884926","946572","864883","0.415444","0.123733","0.000000","743857","859119","950885","0.278966","0.081927","0.000000","2088","2073","2088","1537","1345","1537","1320","1146","1320","1237","1175","1237","1245","1046","1245",""
"MA200-0416","20957","59","1","1.10","1.4","2023-05-07T14:18:30","120","2023/05/07","14:18:30","-15.786769032478333","35.03581666201353","1.8","17","30","64","56","-22346","7315","4869","3","150","150.28","114.59","35.70","33.77","32.4","14.99","89396","33.50","DUALSPOT-UV-BLUE-GREEN-RED-IR","849573","737416","903540","1.129767","0.339874","0.000000","803303","921697","760564","0.710159","0.215852","0.000000","901942","928579","815710","0.559049","0.165968","0.000000","885960","947745","865972","0.425696","0.125265","0.000000","743986","859307","951116","0.288200","0.084962","0.000000","1825","1670","1825","1384","1365","1384","1134","838","1134","897","430","897","1125","1187","1125",""
"MA200-0416","20958","59","1","1.10","1.4","2023-05-07T14:19:00","120","2023/05/07","14:19:00","-15.786599278450012","35.035923324525356","0.5","16","30","64","57","-22723","7130","4511","3","150","150.69","115.12","35.57","33.78","32.4","14.98","89392","33.50","DUALSPOT-UV-BLUE-GREEN-RED-IR","850013","738002","904357","1.168187","0.351911","0.000000","804086","922766","761498","0.734293","0.222129","0.000000","902061","928844","815974","0.576602","0.172209","0.000000","886246","948186","866356","0.439161","0.127273","0.000000","744161","859595","951465","0.296596","0.086294","0.000000","1960","1987","1960","1554","1308","1554","1265","1456","1265","1173","566","1173","1018","522","1018",""
"MA200-0416","20959","59","1","1.10","1.4","2023-05-07T14:19:30","120","2023/05/07","14:19:30","-15.786543011665344","35.035937152802944","2.3","16","30","64","56","-22632","7479","4356","3","150","150.17","115.18","34.99","33.80","32.4","15.00","89388","33.56","DUALSPOT-UV-BLUE-GREEN-RED-IR","847774","736308","902386","1.213687","0.361652","0.000000","802485","921129","760191","0.761532","0.226951","0.000000","901243","928178","815418","0.599032","0.174450","0.000000","884683","946618","864990","0.456696","0.131052","0.000000","743012","858346","950102","0.307098","0.087931","0.000000","2320","1634","2320","1753","1021","1753","1616","531","1616","1527","1083","1527","1273","653","1273",""
"MA200-0416","20960","59","1","1.10","1.4","2023-05-07T14:20:00","120","2023/05/07","14:20:00","-15.785848021507263","35.036110155284405","3.6","16","30","64","56","-22512","5268","4972","3","150","149.32","114.38","34.93","33.82","32.3","14.98","89396","33.56","DUALSPOT-UV-BLUE-GREEN-RED-IR","850645","739098","905935","1.268933","0.378030","0.000000","804230","923300","762057","0.788790","0.234390","0.000000","898282","925254","812891","0.619506","0.179606","0.000000","880495","942239","861007","0.468164","0.132781","0.000000","745159","860868","952900","0.314891","0.090136","0.000000","2836","2753","2836","1766","1578","1766","1486","1225","1486","1005","496","1005","951","881","951",""
"MA200-0416","20961","59","1","1.10","1.4","2023-05-07T14:20:30","120","2023/05/07","14:20:30","-15.78515112400055","35.03544682264328","3.1","16","30","64","56","-24388","4624","4888","3","150","150.05","114.42","35.63","33.85","32.3","14.97","89452","33.63","DUALSPOT-UV-BLUE-GREEN-RED-IR","850789","739366","906389","1.304397","0.391054","0.000000","804358","923551","762320","0.809848","0.242412","0.000000","902986","930143","817238","0.633436","0.184774","0.000000","880950","942806","861562","0.480544","0.137102","0.000000","745259","861032","953123","0.323591","0.092696","0.000000","1820","2147","1820","1364","1669","1364","1010","1204","1010","1085","1216","1085","1062","1003","1062",""
"MA200-0416","20962","59","1","1.10","1.4","2023-05-07T14:21:00","120","2023/05/07","14:21:00","-15.784428358078003","35.035112492740154","5.0","16","30","64","56","-22444","6668","6232","3","150","149.76","114.52","35.24","33.86","32.1","14.92","89512","33.63","DUALSPOT-UV-BLUE-GREEN-RED-IR","851160","739933","907213","1.347215","0.403093","0.000000","805227","924746","763356","0.833570","0.248987","0.000000","898470","925658","813328","0.652432","0.190138","0.000000","880552","942505","861291","0.494229","0.140303","0.000000","745331","861182","953310","0.332071","0.095545","0.000000","2196","2006","2196","1535","1382","1535","1377","1263","1377","1198","911","1198","1034","1129","1034",""
"MA200-0416","20963","59","1","1.10","1.4","2023-05-07T14:21:30","120","2023/05/07","14:21:30","-15.78389036655426","35.03489799052477","2.1","16","30","64","56","-23945","6054","-587","3","150","149.95","114.71","35.23","33.88","32.0","14.88","89560","33.63","DUALSPOT-UV-BLUE-GREEN-RED-IR","849789","738922","906057","1.383799","0.414873","0.000000","803991","923449","762335","0.854605","0.255340","0.000000","901817","929233","816511","0.668764","0.194835","0.000000","879245","941150","860071","0.503420","0.142508","0.000000","744135","859837","951855","0.337942","0.096350","0.000000","1873","1963","1873","1359","1336","1359","1181","1106","1181","803","627","803","714","319","714",""
"MA200-0416","20964","59","1","1.10","1.4","2023-05-07T14:22:00","120","2023/05/07","14:22:00","-15.784827888011932","35.03386216238141","5.7","16","30","64","56","-22972","5428","3860","3","150","149.70","114.52","35.18","33.89","31.9","14.81","89524","33.63","DUALSPOT-UV-BLUE-GREEN-RED-IR","851342","740481","908101","1.421986","0.426685","0.000000","805177","924957","763627","0.876134","0.261528","0.000000","899021","926408","814069","0.682395","0.198078","0.000000","882398","944607","863277","0.515455","0.145691","0.000000","745879","861913","954136","0.346664","0.098963","0.000000","1958","1972","1958","1393","1303","1393","988","765","988","1054","907","1054","1063","1037","1063",""
"MA200-0416","20965","59","1","1.10","1.4","2023-05-07T14:22:30","120","2023/05/07","14:22:30","-15.785429000854492","35.03390632942319","1.9","16","30","64","56","-22068","8732","2352","3","150","149.57","114.68","34.89","33.91","31.7","14.73","89492","33.69","DUALSPOT-UV-BLUE-GREEN-RED-IR","852299","741561","909534","1.466661","0.439199","0.000000","806273","926391","764853","0.902313","0.269437","0.000000","898786","926315","814049","0.702363","0.203925","0.000000","882175","944494","863202","0.529825","0.148934","0.000000","745705","861782","954016","0.357643","0.102025","0.000000","2288","2106","2288","1692","1680","1692","1445","1391","1445","1257","932","1257","1337","1225","1337",""
"MA200-0416","20966","59","1","1.10","1.4","2023-05-07T14:23:00","120","2023/05/07","14:23:00","-15.785765945911407","35.03510865941644","5.4","16","30","64","56","-22512","6604","3792","3","150","150.41","114.26","36.15","33.92","31.5","14.66","89412","33.63","DUALSPOT-UV-BLUE-GREEN-RED-IR","844184","734684","901148","1.503340","0.450208","0.000000","805939","926130","764697","0.923055","0.275243","0.000000","899507","927159","814800","0.718867","0.208348","0.000000","882487","944907","863611","0.543403","0.152569","0.000000","746677","862967","955341","0.365770","0.104031","0.000000","1885","1788","1885","1345","1190","1345","1199","1015","1199","1192","1009","1192","993","775","993",""
"MA200-0416","20967","59","1","1.10","1.4","2023-05-07T14:23:30","120","2023/05/07","14:23:30","-15.785785257816315","35.03604782372713","4.5","16","30","64","56","-23616","5004","3116","3","150","150.40","114.82","35.58","33.94","31.4","14.62","89392","33.69","DUALSPOT-UV-BLUE-GREEN-RED-IR","851834","741556","909694","1.541509","0.461015","0.000000","805269","925560","764256","0.945192","0.280559","0.000000","898969","926762","814486","0.737005","0.212394","0.000000","882662","945193","863911","0.553524","0.154519","0.000000","745896","862122","954409","0.374923","0.105825","0.000000","1952","1784","1952","1429","1107","1429","1311","944","1311","884","549","884","1113","704","1113",""
"MA200-0416","20968","59","1","1.10","1.4","2023-05-07T14:24:00","120","2023/05/07","14:24:00","-15.785614311695099","35.036704655736685","2.7","16","30","64","56","-22370","6312","5275","3","150","150.03","114.84","35.19","33.95","31.3","14.57","89396","33.69","DUALSPOT-UV-BLUE-GREEN-RED-IR","843374","734635","901380","1.612705","0.479837","0.000000","805211","925822","764552","0.990551","0.292606","0.000000","898922","926955","814714","0.769001","0.219816","0.000000","883177","945972","864626","0.578844","0.159674","0.000000","746066","862477","954870","0.393106","0.110010","0.000000","3641","3141","3641","2928","2537","2928","2313","1750","2313","2212","1469","2212","2211","1661","2211",""
"MA200-0416","20969","59","1","1.10","1.4","2023-05-07T14:24:30","120","2023/05/07","14:24:30","-15.784861981868744","35.036774322390556","3.9","16","30","64","55","-24140","3971","1476","3","150","149.46","114.46","35.00","33.96","31.2","14.54","89448","33.69","DUALSPOT-UV-BLUE-GREEN-RED-IR","849345","739998","908091","1.661161","0.493412","0.000000","804024","924587","763598","1.017254","0.300073","0.000000","897263","925363","813349","0.789653","0.225299","0.000000","879933","942561","861576","0.594097","0.163703","0.000000","744247","860391","952595","0.404426","0.113150","0.000000","2486","2277","2486","1729","1581","1729","1498","1300","1498","1336","1154","1336","1381","1253","1381",""
"MA200-0416","20970","59","1","1.10","1.4","2023-05-07T14:25:00","120","2023/05/07","14:25:00","-15.784197211265564","35.03614665940404","3.9","16","30","64","56","-23030","4884","3338","3","150","149.96","114.80","35.16","33.97","31.0","14.47","89512","33.69","DUALSPOT-UV-BLUE-GREEN-RED-IR","842941","734602","901557","1.694877","0.504970","0.000000","805129","925986","764783","1.035946","0.305467","0.000000","898844","927082","814920","0.804769","0.229048","0.000000","875342","937704","857146","0.604409","0.166726","0.000000","746065","862545","954987","0.411077","0.114297","0.000000","1725","1930","1725","1207","1137","1207","1093","885","1093","901","862","901","809","455","809",""
"MA200-0416","20971","59","1","1.10","1.4","2023-05-07T14:25:30","120","2023/05/07","14:25:30","-15.783722698688507","35.03564249351621","1.4","16","30","64","56","-24540","3052","-928","3","150","149.90","114.40","35.50","33.99","30.8","14.38","89556","33.69","DUALSPOT-UV-BLUE-GREEN-RED-IR","843619","735503","902770","1.744827","0.518913","0.000000","805204","926283","765133","1.064896","0.313348","0.000000","898618","927036","814923","0.826102","0.234967","0.000000","883309","946385","865104","0.618916","0.169563","0.000000","746023","862598","955085","0.422096","0.116912","0.000000","2564","2307","2564","1875","1645","1875","1548","1384","1548","1272","801","1272","1345","1029","1345",""
"MA200-0416","20972","59","1","1.10","1.4","2023-05-07T14:26:00","120","2023/05/07","14:26:00","-15.783448219299316","35.035412326455116","2.4","16","30","64","56","-22808","6960","5740","3","150","150.17","114.68","35.49","34.00","30.8","14.36","89580","33.69","DUALSPOT-UV-BLUE-GREEN-RED-IR","842303","734595","901802","1.795237","0.532316","0.000000","804898","926177","765042","1.099878","0.320686","0.000000","898223","926802","814787","0.856113","0.241547","0.000000","883205","946419","865183","0.644153","0.173783","0.000000","745848","862480","954960","0.437849","0.120582","0.000000","2581","2218","2581","2261","1532","2261","2172","1539","2172","2207","1193","2207","1918","1444","1918",""
"MA200-0416","20973","59","1","1.10","1.4","2023-05-07T14:26:30","120","2023/05/07","14:26:30","-15.782759964466095","35.03609948977828","4.0","16","30","64","56","-22988","6184","3487","3","150","149.57","114.60","34.97","34.00","30.6","14.28","89620","33.69","DUALSPOT-UV-BLUE-GREEN-RED-IR","842464","735214","902784","1.868352","0.553522","0.000000","805076","926635","765555","1.138353","0.332784","0.000000","897935","926701","814753","0.884252","0.249547","0.000000","882484","945798","864666","0.663167","0.179511","0.000000","745373","862024","954485","0.452043","0.124118","0.000000","3747","3562","3747","2488","2564","2488","2038","1899","2038","1664","1643","1664","1730","1412","1730",""
"MA200-0416","20974","59","1","1.10","1.4","2023-05-07T14:27:00","120","2023/05/07","14:27:00","-15.782086968421936","35.03678799048066","4.2","17","30","64","56","-22968","5632","4092","3","150","149.73","114.42","35.31","34.01","30.5","14.22","89564","33.69","DUALSPOT-UV-BLUE-GREEN-RED-IR","842612","735577","903330","1.928165","0.572040","0.000000","804213","925830","764962","1.168632","0.341505","0.000000","898011","926942","814994","0.906889","0.255984","0.000000","882738","946176","865053","0.680470","0.184231","0.000000","745482","862225","954747","0.462909","0.125967","0.000000","3070","3080","3070","1961","1830","1961","1642","1513","1642","1517","1341","1517","1326","731","1326",""
"MA200-0416","20975","59","1","1.10","1.4","2023-05-07T14:27:30","120","2023/05/07","14:27:30","-15.78243762254715","35.037415988743305","4.1","17","30","64","56","-22554","8183","1550","3","150","149.94","114.71","35.23","34.01","30.4","14.16","89488","33.69","DUALSPOT-UV-BLUE-GREEN-RED-IR","842494","735653","903592","1.969410","0.583959","0.000000","804774","926646","765664","1.194179","0.347484","0.000000","897442","926482","814645","0.926428","0.259333","0.000000","882122","945661","864585","0.695717","0.186491","0.000000","745067","861802","954294","0.472621","0.128251","0.000000","2111","1987","2111","1650","1258","1650","1414","789","1414","1333","643","1333","1182","905","1182",""
"MA200-0416","20976","59","1","1.10","1.4","2023-05-07T14:28:00","120","2023/05/07","14:28:00","-15.782752692699432","35.038174491375685","4.4","17","30","64","55","-22444","8043","3948","3","150","150.23","114.32","35.91","34.01","30.3","14.12","89384","33.69","DUALSPOT-UV-BLUE-GREEN-RED-IR","846542","739558","908580","2.029770","0.602411","0.000000","802314","924162","763748","1.237422","0.360519","0.000000","895109","924362","812871","0.959730","0.269752","0.000000","879070","942594","861871","0.721949","0.194114","0.000000","743401","860038","952395","0.489952","0.132817","0.000000","3101","3018","3101","2804","2691","2804","2418","2409","2418","2302","2130","2302","2117","1776","2117",""
"MA200-0416","20977","59","1","1.10","1.4","2023-05-07T14:28:30","120","2023/05/07","14:28:30","-15.78264307975769","35.03885332867503","0.1","17","30","64","55","-22592","7543","4720","3","150","150.09","114.28","35.81","34.02","30.3","14.13","89348","33.69","DUALSPOT-UV-BLUE-GREEN-RED-IR","840233","734644","902785","2.144143","0.633678","0.000000","803532","926088","765498","1.322090","0.382972","0.000000","896579","926308","814741","1.032048","0.289827","0.000000","881015","945071","864220","0.776380","0.208031","0.000000","744961","862029","954683","0.527893","0.142614","0.000000","5878","5127","5878","5492","4647","5492","5253","4653","5253","4778","3898","4778","4637","3821","4637",""
"MA200-0416","20978","59","1","1.10","1.4","2023-05-07T14:29:00","120","2023/05/07","14:29:00","-15.78148639202118","35.03885715827346","5.0","17","30","64","55","-23096","6856","2680","3","150","149.20","114.66","34.54","34.03","30.3","14.14","89388","33.69","DUALSPOT-UV-BLUE-GREEN-RED-IR","845486","739738","909323","2.243776","0.662685","0.000000","801563","924268","764100","1.386082","0.400424","0.000000","894644","924677","813385","1.081978","0.302946","0.000000","878977","943109","862533","0.815326","0.218051","0.000000","743273","860255","952795","0.554065","0.149214","0.000000","5103","4932","5103","4137","3745","4137","3615","3153","3615","3407","2910","3407","3188","2669","3188",""
"MA200-0416","20979","59","1","1.10","1.4","2023-05-07T14:29:30","120","2023/05/07","14:29:30","-15.780118644237518","35.039167329669","5.9","17","30","64","55","-22664","7068","4232","3","150","150.16","114.61","35.55","34.04","30.2","14.09","89372","33.69","DUALSPOT-UV-BLUE-GREEN-RED-IR","838422","734429","903075","2.387250","0.695838","0.000000","801881","925276","765108","1.470953","0.420202","0.000000","895846","926370","814982","1.144510","0.317138","0.000000","881539","946184","865442","0.857239","0.227403","0.000000","744659","862024","954825","0.583282","0.156846","0.000000","7352","5478","7352","5489","4124","5489","4529","3314","4529","3669","2639","3669","3561","2998","3561",""
"MA200-0416","20980","59","1","1.10","1.4","2023-05-07T14:30:00","120","2023/05/07","14:30:00","-15.778887152671814","35.03880765661597","6.1","17","30","64","55","-23632","5164","4440","3","150","149.63","114.68","34.95","34.04","30.1","14.06","89456","33.69","DUALSPOT-UV-BLUE-GREEN-RED-IR","836453","733809","902894","2.598370","0.755237","0.000000","800530","924700","764954","1.622289","0.464124","0.000000","894433","925754","814759","1.266408","0.351172","0.000000","880345","945564","865082","0.952506","0.255495","0.000000","744034","861742","954662","0.646585","0.173313","0.000000","10813","9981","10813","9783","9315","9783","8824","8083","8824","8334","8063","8334","7711","6581","7711",""
"MA200-0416","20981","59","1","1.10","1.4","2023-05-07T14:30:30","120","2023/05/07","14:30:30","-15.778245687484741","35.03810848668218","3.1","17","30","64","55","-22733","6487","3216","3","150","149.80","114.27","35.53","34.04","30.0","14.02","89508","33.69","DUALSPOT-UV-BLUE-GREEN-RED-IR","836125","733881","903123","2.677198","0.778001","0.000000","800865","925368","765606","1.670849","0.477731","0.000000","893855","925352","814463","1.306193","0.363307","0.000000","879381","944702","864371","0.980240","0.262653","0.000000","743473","861201","954109","0.665859","0.178977","0.000000","4051","3763","4051","3150","2839","3150","2890","2835","2890","2435","2021","2435","2356","2227","2356",""
"MA200-0416","20982","59","1","1.10","1.4","2023-05-07T14:31:00","120","2023/05/07","14:31:00","-15.777746975421906","35.03734849020839","0.1","17","30","64","55","-23524","5876","2616","3","150","149.83","114.24","35.59","34.05","29.9","13.99","89532","33.75","DUALSPOT-UV-BLUE-GREEN-RED-IR","835902","734020","903479","2.737715","0.794975","0.000000","800365","925024","765407","1.708013","0.488746","0.000000","894330","926060","815172","1.333701","0.369560","0.000000","880572","946094","865686","1.001346","0.267993","0.000000","744066","861978","955016","0.680162","0.181368","0.000000","3111","2801","3111","2411","2294","2411","1999","1458","1999","1853","1505","1853","1749","938","1749",""
"MA200-0416","20983","59","1","1.10","1.4","2023-05-07T14:31:30","120","2023/05/07","14:31:30","-15.77816903591156","35.03672465309501","4.8","17","30","64","55","-23158","5620","2991","3","150","150.11","114.61","35.50","34.06","29.8","13.94","89544","33.75","DUALSPOT-UV-BLUE-GREEN-RED-IR","834328","733696","903634","2.922418","0.850938","0.000000","799235","924469","765212","1.806122","0.516147","0.000000","893586","925784","815135","1.404964","0.390762","0.000000","879993","945888","865639","1.051098","0.282150","0.000000","743619","861677","954754","0.710172","0.189822","0.000000","9465","9259","9465","6345","5721","6345","5162","4958","5162","4355","4000","4355","3657","3326","3657",""
"MA200-0416","20984","59","1","1.10","1.4","2023-05-07T14:32:00","120","2023/05/07","14:32:00","-15.778351604938507","35.03600749000907","4.4","17","30","64","55","-23184","6952","3652","3","150","150.41","114.93","35.48","34.06","29.7","13.90","89552","33.75","DUALSPOT-UV-BLUE-GREEN-RED-IR","833997","734046","904458","3.069945","0.895092","-0.014745","794061","918993","760856","1.899898","0.544233","0.000000","893185","925836","815292","1.478903","0.411814","0.000000","879511","945687","865578","1.105558","0.296902","0.000000","743873","862173","955379","0.745588","0.199373","0.000000","7539","7308","7213","6049","5867","6049","5341","4925","5341","4754","4171","4754","4304","3760","4304",""
"MA200-0416","20985","59","1","1.10","1.4","2023-05-07T14:32:30","120","2023/05/07","14:32:30","-15.778680264949799","35.03461032360792","5.9","17","30","64","55","-23012","7712","3258","3","150","149.63","114.40","35.23","34.07","29.7","13.86","89516","33.75","DUALSPOT-UV-BLUE-GREEN-RED-IR","833073","733943","904673","3.209730","0.937194","-0.009986","799136","925421","766349","1.985752","0.568241","0.000000","892261","925269","814947","1.543247","0.429934","0.000000","879177","945656","865644","1.151520","0.308733","0.000000","743278","861662","954892","0.774658","0.208116","0.000000","7176","7019","6954","5563","5051","5563","4669","4269","4669","4030","3369","4030","3549","3466","3549",""
"MA200-0416","20986","59","1","1.10","1.4","2023-05-07T14:33:00","120","2023/05/07","14:33:00","-15.779023468494415","35.03309966251254","6.4","17","30","64","55","-23244","6628","3560","3","150","149.39","114.16","35.22","34.07","29.5","13.78","89512","33.75","DUALSPOT-UV-BLUE-GREEN-RED-IR","832298","733744","904779","3.294559","0.965644","0.033246","793071","918786","761061","2.039158","0.586921","0.000000","892254","925611","815433","1.587182","0.444823","0.000000","878598","945253","865438","1.184403","0.320851","0.000000","743448","862001","955371","0.794643","0.214948","0.000000","4364","4743","4901","3468","3931","3468","3195","3509","3195","2889","3451","2889","2445","2709","2445",""
"MA200-0416","20987","59","1","1.10","1.4","2023-05-07T14:33:30","120","2023/05/07","14:33:30","-15.779341101646423","35.03151332959533","6.0","17","30","64","55","-23692","4064","3124","3","150","149.76","114.56","35.20","34.08","29.4","13.75","89684","33.75","DUALSPOT-UV-BLUE-GREEN-RED-IR","831669","733804","905156","3.435412","1.008615","-0.003025","791889","917908","760465","2.128577","0.614608","0.000000","891998","925720","815642","1.656895","0.465857","0.000000","879235","946225","866421","1.236534","0.336777","0.000000","743353","862040","955487","0.827701","0.224883","0.000000","7221","7169","7147","5786","5830","5786","5052","4960","5052","4565","4538","4565","4031","3942","4031",""
"MA200-0416","20988","59","1","1.10","1.4","2023-05-07T14:34:00","120","2023/05/07","14:34:00","-15.779853284358978","35.03001982718706","5.6","17","30","64","54","-22812","6696","5104","3","150","149.76","114.44","35.32","34.08","29.3","13.71","89772","33.75","DUALSPOT-UV-BLUE-GREEN-RED-IR","829273","731910","902924","3.475662","1.021703","0.020255","791060","917095","759858","2.151429","0.620735","0.000000","890066","923836","814003","1.673137","0.469553","0.000000","876574","943452","863877","1.247334","0.338613","0.000000","741813","860289","953552","0.835283","0.226839","0.000000","2065","2176","2222","1480","1285","1480","1178","868","1178","946","521","946","925","773","925",""
"MA200-0416","20989","59","1","1.10","1.4","2023-05-07T14:34:30","120","2023/05/07","14:34:30","-15.78060382604599","35.02889682725072","4.3","17","30","64","55","-23524","6080","1036","3","150","150.03","114.56","35.47","34.09","29.3","13.67","89832","33.75","DUALSPOT-UV-BLUE-GREEN-RED-IR","830203","733005","904441","3.532159","1.039131","-0.001501","791746","918109","760770","2.183819","0.629621","0.000000","891584","925579","815598","1.697301","0.476270","0.000000","879246","946444","866652","1.264905","0.343960","0.000000","743394","862237","955752","0.846918","0.228423","0.000000","2896","2885","2881","2095","1857","2095","1751","1572","1751","1538","1512","1538","1418","623","1418",""
"MA200-0416","20990","59","1","1.10","1.4","2023-05-07T14:35:00","120","2023/05/07","14:35:00","-15.781324982643127","35.02811015956104","4.0","17","30","64","55","-23012","6492","3532","3","150","149.37","114.61","34.76","34.09","29.2","13.63","89888","33.69","DUALSPOT-UV-BLUE-GREEN-RED-IR","829719","733240","905095","3.663959","1.078352","-0.007501","791345","918064","760871","2.249932","0.648576","0.000000","891023","925297","815454","1.743018","0.489205","0.000000","878462","945813","866168","1.296806","0.352102","0.000000","742883","861761","955242","0.864446","0.232256","0.000000","6754","6626","6573","4276","4042","4276","3311","3089","3311","2792","2349","2792","2136","1540","2136",""
"MA200-0416","20991","59","1","1.10","1.4","2023-05-07T14:35:30","120","2023/05/07","14:35:30","-15.782195329666138","35.02719382755458","5.0","17","30","64","55","-22868","6932","5112","3","150","149.76","114.40","35.36","34.10","29.1","13.57","89924","33.75","DUALSPOT-UV-BLUE-GREEN-RED-IR","829206","733010","904941","3.710246","1.094081","0.033286","791359","918250","761093","2.277637","0.656217","0.000000","890369","924739","815024","1.763641","0.495433","0.000000","877814","945233","865672","1.310151","0.354730","0.000000","742576","861432","954893","0.872865","0.235281","0.000000","2376","2612","2711","1795","1601","1795","1496","1462","1496","1170","745","1170","1028","1194","1028",""
"MA200-0416","20992","59","1","1.10","1.4","2023-05-07T14:36:00","120","2023/05/07","14:36:00","-15.783187329769135","35.02618299797177","5.6","17","30","64","54","-23172","5664","4564","3","150","149.40","114.29","35.11","34.09","29.1","13.57","89960","33.69","DUALSPOT-UV-BLUE-GREEN-RED-IR","826234","730936","902686","3.818523","1.126565","-0.008942","789350","916470","759793","2.358246","0.678886","0.000000","888627","923408","813992","1.831739","0.512933","0.000000","875447","943092","863798","1.366245","0.368701","0.000000","740998","859850","953246","0.909095","0.245776","0.000000","5564","5434","5380","5228","4786","5228","4946","4138","4946","4923","3992","4923","4428","4175","4428",""
"MA200-0416","20993","59","1","1.10","1.4","2023-05-07T14:36:30","120","2023/05/07","14:36:30","-15.784316182136536","35.02525433152914","2.8","17","30","64","55","-22816","5560","2316","3","150","149.90","114.60","35.30","34.10","29.1","13.62","90040","33.75","DUALSPOT-UV-BLUE-GREEN-RED-IR","826114","732197","904713","4.031646","1.178310","-0.105885","789014","917155","760612","2.495289","0.710798","0.000000","889157","924793","815426","1.934539","0.536245","0.000000","877506","945888","866553","1.436537","0.386368","0.000000","737804","856524","949679","0.958931","0.257513","0.000000","10923","8610","7655","8865","6702","8865","7447","5483","7447","6153","5021","6153","6074","4645","6074",""
"MA200-0416","20994","59","1","1.10","1.4","2023-05-07T14:37:00","120","2023/05/07","14:37:00","-15.784865319728851","35.024889996275306","0.0","17","30","64","55","-23100","7940","1212","3","150","149.96","114.72","35.24","34.10","29.1","13.57","90024","33.75","DUALSPOT-UV-BLUE-GREEN-RED-IR","825754","732044","904661","4.098055","1.196592","-0.041985","789573","917942","761323","2.534979","0.723094","0.000000","888911","924634","815331","1.965468","0.545949","0.000000","876966","945362","866098","1.460993","0.393104","0.000000","742030","861448","955169","0.973293","0.260524","0.000000","3400","3046","2901","2564","2586","2564","2238","2285","2238","2138","1917","2138","1748","1193","1748",""
"MA200-0416","20995","59","1","1.10","1.4","2023-05-07T14:37:30","120","2023/05/07","14:37:30","-15.785310864448547","35.025907495990396","5.6","17","30","64","54","-22760","8128","2380","3","150","150.49","114.96","35.53","34.11","29.1","13.58","89968","33.75","DUALSPOT-UV-BLUE-GREEN-RED-IR","822934","730431","903111","4.250377","1.241031","-0.020277","787056","915901","759914","2.651954","0.755113","0.000000","887136","923470","814570","2.061653","0.572752","0.000000","874072","942826","863978","1.535922","0.413274","0.000000","740721","860296","954050","1.025215","0.275278","0.000000","7782","7345","7165","7543","6679","7543","6946","6262","6946","6539","5694","6539","6309","5799","6309",""
"MA200-0416","20996","59","1","1.10","1.4","2023-05-07T14:38:00","120","2023/05/07","14:38:00","-15.785948157310486","35.02750199474394","6.5","17","30","64","54","-22964","7675","2696","3","150","149.95","114.37","35.58","34.11","29.1","13.61","89908","33.75","DUALSPOT-UV-BLUE-GREEN-RED-IR","818053","730654","905876","5.123624","1.505456","-0.007651","783181","916006","761622","3.348494","0.962448","-0.019261","882940","923108","815701","2.651906","0.746798","0.000000","872374","944296","866574","2.017450","0.555086","0.000000","739116","860540","955309","1.363102","0.374633","0.000000","44847","43653","43156","45149","43200","42414","42848","40613","42848","42241","39988","42241","41271","39010","41271",""
"MA200-0416","20997","59","1","1.10","1.4","2023-05-07T14:38:30","120","2023/05/07","14:38:30","-15.7865030169487","35.02886549383402","5.4","17","30","64","54","-22840","7843","2308","3","150","150.43","114.52","35.91","34.12","29.1","13.62","89844","33.75","DUALSPOT-UV-BLUE-GREEN-RED-IR","814526","728048","902909","5.268174","1.548231","-0.016416","786166","920010","765140","3.459764","0.994987","-0.030150","881266","921821","814710","2.749234","0.775093","0.000000","862687","934227","857455","2.095788","0.576549","0.000000","733631","854398","948600","1.416635","0.389919","0.000000","7413","6997","6823","7202","6718","6522","7056","6542","7056","6863","5997","6863","6530","5946","6530",""
"MA200-0416","20998","59","1","1.10","1.4","2023-05-07T14:39:00","120","2023/05/07","14:39:00","-15.786334097385406","35.029980992898345","4.6","17","30","64","54","-23460","7884","1376","3","150","149.61","114.34","35.26","34.12","29.1","13.64","89788","33.75","DUALSPOT-UV-BLUE-GREEN-RED-IR","816528","730127","905627","5.329053","1.567024","0.000277","782123","915507","761492","3.504568","1.010156","0.034497","882534","923337","816127","2.785450","0.784832","0.000000","865082","936993","860084","2.123534","0.583267","0.000000","739339","861156","956104","1.437088","0.394814","0.000000","3127","3130","3131","2904","3189","3304","2629","2293","2629","2434","1911","2434","2498","1939","2498",""
"MA200-0416","20999","59","1","1.10","1.4","2023-05-07T14:39:30","120","2023/05/07","14:39:30","-15.786395490169525","35.031081994995475","4.8","17","30","64","54","-23403","6084","3503","3","150","149.51","114.28","35.22","34.12","29.1","13.64","89736","33.75","DUALSPOT-UV-BLUE-GREEN-RED-IR","816384","730217","905886","5.375996","1.582758","0.020495","781928","915502","761548","3.535563","1.017845","-0.106816","882160","923123","815995","2.810186","0.792318","0.000000","872098","944689","867207","2.141934","0.588786","0.000000","734704","855875","950297","1.450273","0.399183","0.000000","2412","2623","2711","2010","1618","1459","1797","1764","1797","1615","1571","1615","1611","1732","1611",""
"MA200-0416","21000","59","1","1.10","1.4","2023-05-07T14:40:00","120","2023/05/07","14:40:00","-15.786440789699554","35.03212199360132","1.3","17","30","64","54","-22187","10875","1325","3","150","150.69","114.48","36.21","34.12","29.1","13.62","89696","33.75","DUALSPOT-UV-BLUE-GREEN-RED-IR","815626","729732","905409","5.414046","1.594942","0.003184","781298","914906","761104","3.559470","1.025491","0.004346","881800","922833","815800","2.828293","0.797182","0.000000","864340","936368","859568","2.155512","0.592839","0.000000","734365","855466","949869","1.456710","0.400123","0.000000","1952","1976","1986","1548","1565","1572","1313","1115","1313","1189","1122","1189","785","362","785",""
"MA200-0416","21001","59","1","1.10","1.4","2023-05-07T14:40:30","120","2023/05/07","14:40:30","-15.786446332931519","35.03109699487686","4.8","17","30","64","54","-21972","8380","2452","3","150","149.83","114.40","35.43","34.12","29.1","13.59","89748","33.75","DUALSPOT-UV-BLUE-GREEN-RED-IR","815371","729668","905469","5.450865","1.607090","0.015558","781409","915218","761426","3.583258","1.032579","-0.015716","881261","922435","815500","2.847820","0.802868","0.000000","870938","943629","866265","2.169323","0.596248","0.000000","738261","860125","955070","1.467508","0.402518","0.000000","1890","2013","2065","1541","1483","1459","1417","1332","1417","1211","965","1211","1318","944","1318",""
"MA200-0416","21002","59","1","1.10","1.4","2023-05-07T14:41:00","120","2023/05/07","14:41:00","-15.786623001098633","35.02937049418688","2.7","17","30","64","54","-23904","5092","2412","3","150","150.49","114.00","36.49","34.12","29.0","13.57","89832","33.75","DUALSPOT-UV-BLUE-GREEN-RED-IR","811986","726936","902162","5.500860","1.619115","-0.098807","779334","912984","759634","3.616333","1.041305","-0.090593","879265","920511","813848","2.874535","0.809967","0.000000","868137","940741","863676","2.188760","0.601053","0.000000","736545","858205","952958","1.479414","0.404517","0.000000","2575","1935","1668","2150","1772","1620","1945","1615","1945","1710","1321","1710","1458","765","1458",""
"MA200-0416","21003","59","1","1.10","1.4","2023-05-07T14:41:30","120","2023/05/07","14:41:30","-15.785666584968567","35.02659766189754","18.6","17","30","64","54","-23028","6132","2556","3","150","149.63","114.32","35.31","34.11","29.0","13.54","89892","33.69","DUALSPOT-UV-BLUE-GREEN-RED-IR","813512","728829","904791","5.591143","1.647611","0.005372","780272","914593","761151","3.683066","1.060670","-0.025217","879886","921575","814932","2.927863","0.825798","0.000000","869487","942542","865434","2.232515","0.614136","0.000000","737600","859617","954638","1.507827","0.412897","0.000000","4638","4739","4782","4327","4065","3959","3872","3722","3872","3840","3717","3840","3472","3315","3472",""
"MA200-0416","21004","59","1","1.10","1.4","2023-05-07T14:42:00","120","2023/05/07","14:42:00","-15.784189939498901","35.022963827475905","3.2","17","30","64","54","-22048","10704","1840","3","150","149.42","114.55","34.87","34.11","28.9","13.52","89968","33.69","DUALSPOT-UV-BLUE-GREEN-RED-IR","810310","727755","904499","5.897085","1.743728","0.007403","777741","913420","760831","3.924459","1.136470","0.010862","877895","921047","815051","3.130048","0.888633","0.009114","867442","941575","865101","2.395981","0.665628","0.000000","736720","859447","954826","1.623800","0.448658","0.000000","15687","16191","16403","15622","16116","16317","14654","14962","15084","14317","14816","14317","14143","14328","14143",""
"MA200-0416","21005","59","1","1.10","1.4","2023-05-07T14:42:30","120","2023/05/07","14:42:30","-15.78223717212677","35.02341216430068","10.6","17","30","64","54","-22696","9840","1324","3","150","150.17","114.19","35.98","34.10","28.9","13.51","89844","33.69","DUALSPOT-UV-BLUE-GREEN-RED-IR","804417","725610","903733","6.306918","1.870704","-0.003869","778116","917205","765312","4.255360","1.237840","-0.009588","873827","919528","814854","3.407418","0.972187","-0.019261","864656","940904","865415","2.619975","0.731998","0.000000","734452","858356","954354","1.784633","0.496026","0.000000","21080","20726","20577","21481","20884","20639","20166","19278","18924","19679","18505","19679","19675","18389","19675",""
"MA200-0416","21006","59","1","1.10","1.4","2023-05-07T14:43:00","120","2023/05/07","14:43:00","-15.779457688331604","35.0239673294127","10.8","16","30","64","54","-22860","8664","1940","3","150","150.03","114.08","35.95","34.09","28.9","13.50","89752","33.69","DUALSPOT-UV-BLUE-GREEN-RED-IR","802157","728913","911007","7.326348","2.198001","0.003594","771515","915024","765653","5.095214","1.504404","0.002010","866385","916498","814121","4.134350","1.200639","-0.000896","857983","937653","864124","3.224464","0.920474","-0.004615","730552","856495","953605","2.225082","0.628774","0.000000","52486","53479","53905","54575","54973","55140","52902","52764","52707","53160","52603","52381","53933","51588","53933",""
"MA200-0416","21007","59","1","1.10","1.4","2023-05-07T14:43:30","120","2023/05/07","14:43:30","-15.777688026428223","35.02340382896364","2.9","16","30","64","54","-22612","8384","3744","3","150","149.33","113.88","35.44","34.09","28.9","13.48","89696","33.69","DUALSPOT-UV-BLUE-GREEN-RED-IR","783997","718902","902387","8.983049","2.739036","0.007375","762415","910916","764851","6.453742","1.940542","0.006685","858475","914179","814577","5.318516","1.577603","0.005917","851500","935923","864777","4.216366","1.232260","0.003300","726562","855417","954200","2.953184","0.855025","0.000000","85445","89659","91508","88434","91222","92421","86328","88301","89133","87383","88256","88616","89313","89174","89313",""
"MA200-0416","21008","59","1","1.10","1.4","2023-05-07T14:44:00","120","2023/05/07","14:44:00","-15.777233004570007","35.02230449579656","6.0","16","30","64","53","-22824","7352","4368","3","150","150.49","114.55","35.94","34.09","28.9","13.48","89704","33.69","DUALSPOT-UV-BLUE-GREEN-RED-IR","783167","718499","902075","9.102794","2.776579","-0.000126","762207","911014","765060","6.543746","1.967794","-0.008052","857812","913752","814312","5.399024","1.602208","-0.007104","850115","934634","863643","4.282005","1.251429","-0.025338","725770","854658","953403","2.998251","0.866793","0.000000","6139","6135","6132","5824","5620","5533","5835","5683","5619","5748","5350","5186","5496","4573","5496",""
"MA200-0416","21009","59","1","1.10","1.4","2023-05-07T14:44:30","120","2023/05/07","14:44:30","-15.776596665382385","35.02094333060086","5.7","16","30","64","54","-22120","8020","4488","3","150","149.63","114.36","35.27","34.08","28.9","13.47","89716","33.69","DUALSPOT-UV-BLUE-GREEN-RED-IR","782920","718666","902503","9.183831","2.801410","-0.001026","761651","910673","764900","6.601419","1.984895","-0.008849","857792","914031","814647","5.446386","1.615678","-0.022845","851111","935937","864954","4.317166","1.261652","-0.020437","726178","855266","954137","3.023683","0.874014","-0.041578","4162","4135","4123","3738","3594","3532","3438","3170","3057","3084","2907","2834","3106","2860","2759",""
"MA200-0416","21010","59","1","1.10","1.4","2023-05-07T14:45:00","120","2023/05/07","14:45:00","-15.775698840618134","35.01969066075981","6.3","16","30","64","54","-21844","9380","3739","3","150","150.03","114.32","35.71","34.08","28.8","13.43","89636","33.69","DUALSPOT-UV-BLUE-GREEN-RED-IR","783061","718961","903002","9.224484","2.815542","0.015153","762246","911568","765694","6.628310","1.994234","0.020796","857892","914230","814896","5.466139","1.623010","0.038652","850769","935652","864754","4.336224","1.268828","0.051931","726319","855502","954440","3.033605","0.876367","-0.168829","2088","2324","2428","1743","1938","2022","1434","1704","1818","1672","2016","2158","1212","920","801",""
"MA200-0416","21011","59","1","1.10","1.4","2023-05-07T14:45:30","120","2023/05/07","14:45:30","-15.774668872356415","35.01853132806718","5.4","17","30","64","54","-22976","5848","3248","3","150","149.80","114.42","35.38","34.09","28.8","13.42","89644","33.69","DUALSPOT-UV-BLUE-GREEN-RED-IR","782637","718728","902796","9.257191","2.826114","0.006629","761582","910914","765223","6.650682","2.001649","0.014050","857286","913705","814466","5.484634","1.628458","-0.013210","850253","935194","864371","4.349299","1.271737","-0.151037","725807","854939","953837","3.042715","0.878788","-0.080818","1678","1755","1788","1449","1553","1598","1342","1278","1251","1146","824","691","1112","956","892",""
"MA200-0416","21012","59","1","1.10","1.4","2023-05-07T14:46:00","120","2023/05/07","14:46:00","-15.773380041122437","35.01819499768317","5.2","17","30","64","54","-22748","6988","1892","3","150","149.76","114.44","35.32","34.09","28.7","13.37","89580","33.69","DUALSPOT-UV-BLUE-GREEN-RED-IR","782612","718871","903112","9.294407","2.839695","0.022359","761467","910926","765289","6.674735","2.008777","-0.009087","858005","914623","815336","5.504137","1.633548","-0.051092","851453","936592","865706","4.364908","1.276516","-0.002570","726858","856241","955315","3.053608","0.881940","-0.031597","1910","2258","2411","1558","1495","1469","1414","1196","1104","1368","1357","1353","1329","1246","1212",""
"MA200-0416","21013","59","1","1.10","1.4","2023-05-07T14:46:30","120","2023/05/07","14:46:30","-15.773856341838837","35.016842832788825","5.5","17","30","64","53","-23224","5084","4956","3","150","149.51","113.72","35.78","34.09","28.6","13.33","89680","33.69","DUALSPOT-UV-BLUE-GREEN-RED-IR","782446","718999","903430","9.352844","2.859138","0.008176","761277","910950","765429","6.716926","2.022636","0.008816","857334","914103","814971","5.538379","1.645511","0.024500","851093","936382","865527","4.389611","1.284104","-0.007943","726300","855714","954736","3.070573","0.885878","-0.190210","3018","3191","3268","2750","2871","2923","2499","2775","2892","2179","2127","2105","2084","1537","1315",""
"MA200-0416","21014","59","1","1.10","1.4","2023-05-07T14:47:00","120","2023/05/07","14:47:00","-15.774376332759857","35.01524033024907","6.4","17","30","64","53","-23220","6479","3076","3","150","149.45","114.16","35.28","34.09","28.6","13.31","89760","33.69","DUALSPOT-UV-BLUE-GREEN-RED-IR","783251","719896","904664","9.384299","2.868587","-0.004490","756590","905429","760844","6.735445","2.028192","-0.006493","857557","914449","815310","5.553203","1.648932","-0.101459","850785","936135","865354","4.402366","1.286113","-0.512226","726314","855796","954886","3.078394","0.888765","0.069715","1618","1572","1552","1202","1167","1152","1078","804","689","1120","571","344","956","1142","1218",""
"MA200-0416","21015","59","1","1.10","1.4","2023-05-07T14:47:30","120","2023/05/07","14:47:30","-15.774101495742798","35.01399966515601","5.9","16","30","64","54","-23312","5400","3620","3","150","150.23","114.04","36.18","34.09","28.9","13.50","89884","33.69","DUALSPOT-UV-BLUE-GREEN-RED-IR","783038","719855","904606","9.407432","2.871912","-0.393799","756641","905678","761011","6.752372","2.026498","0.316506","857107","914116","814984","5.567235","1.647639","0.395270","850961","936434","865604","4.411205","1.285332","0.508585","726170","855652","954699","3.083976","0.888365","0.773700","1191","539","253","1100","-347","-967","1021","-296","-850","777","-216","-625","683","-154","-493",""
"MA200-0416","21016","59","1","1.10","1.4","2023-05-07T14:48:00","120","2023/05/07","14:48:00","-15.77263456583023","35.0135646648705","5.5","16","30","64","53","-22280","8880","3304","3","150","149.57","114.20","35.36","34.10","29.3","13.72","89896","33.69","DUALSPOT-UV-BLUE-GREEN-RED-IR","777206","717480","903522","9.980399","3.063245","0.010178","757606","910144","765943","7.230093","2.168279","-0.008737","853439","913203","815242","5.988508","1.766771","-0.023445","848133","935955","866047","4.765636","1.380282","-0.049187","724447","855385","955061","3.337459","0.950421","-0.124069","29468","31778","32800","31010","29721","29168","30626","27968","26855","31137","26937","25224","31007","24513","21927",""
"MA200-0416","21017","59","1","1.10","1.4","2023-05-07T14:48:30","120","2023/05/07","14:48:30","-15.771149337291718","35.01366016454995","5.9","16","30","64","53","-21836","10212","3004","3","150","150.17","114.31","35.87","34.10","29.8","13.98","89724","33.69","DUALSPOT-UV-BLUE-GREEN-RED-IR","777332","717880","904169","10.084567","3.095174","-0.003433","757531","910344","766187","7.311033","2.191049","-0.023715","853004","912945","815082","6.059872","1.786166","-0.038676","847725","935716","865894","4.827643","1.395911","-0.079294","724318","855394","955118","3.382110","0.961388","-0.128854","5352","5228","5173","5249","4706","4473","5183","4489","4199","5442","4371","3935","5456","4271","3800",""
"MA200-0416","21018","59","1","1.10","1.4","2023-05-07T14:49:00","120","2023/05/07","14:49:00","-15.771368205547333","35.01513616461307","6.4","16","30","64","53","-22444","8644","1368","3","150","150.58","114.28","36.31","34.10","30.1","14.10","89544","33.69","DUALSPOT-UV-BLUE-GREEN-RED-IR","777156","717840","904251","10.120053","3.109714","0.029134","752006","903783","760733","7.332423","2.199001","0.026652","852823","912871","815045","6.077671","1.791607","-0.009280","847188","935211","865479","4.841062","1.399058","-0.120408","724180","855288","955022","3.392330","0.964021","-0.105779","1823","2352","2586","1387","1623","1724","1293","1244","1224","1178","869","744","1249","1013","919",""
"MA200-0416","21019","59","1","1.10","1.4","2023-05-07T14:49:30","120","2023/05/07","14:49:30","-15.771565973758698","35.01644133031368","4.2","16","30","64","53","-22832","9432","1727","3","150","149.53","113.96","35.56","34.09","30.0","14.05","89440","33.69","DUALSPOT-UV-BLUE-GREEN-RED-IR","776227","717196","903586","10.165668","3.128437","0.030776","756397","909200","765407","7.361792","2.214748","0.068826","852466","912577","814873","6.098980","1.803016","0.082628","847236","935304","865638","4.856810","1.407379","0.101695","723671","854733","954469","3.403219","0.967909","0.049268","2351","3092","3421","1910","3282","3872","1552","2663","3129","1386","2347","2739","1334","1527","1603",""
"MA200-0416","21020","59","1","1.10","1.4","2023-05-07T14:50:00","120","2023/05/07","14:50:00","-15.77160930633545","35.01752466335893","3.7","16","30","64","53","-23076","7447","1004","3","150","150.69","114.28","36.41","34.09","30.0","14.05","89368","33.69","DUALSPOT-UV-BLUE-GREEN-RED-IR","775802","716946","903386","10.197561","3.138137","-0.006862","756807","909855","765960","7.380334","2.217783","-0.309065","852300","912525","814852","6.114965","1.805681","-0.342162","846248","934350","864760","4.869331","1.409441","-0.436010","723689","854816","954546","3.409338","0.968948","-0.551391","1639","1564","1531","1202","617","366","1161","607","375","1099","568","351","747","398","259",""
"MA200-0416","21021","59","1","1.10","1.4","2023-05-07T14:50:30","120","2023/05/07","14:50:30","-15.77158010005951","35.01868266239762","5.1","16","30","64","53","-22928","5636","1300","3","150","150.49","113.88","36.61","34.09","29.9","13.99","89352","33.69","DUALSPOT-UV-BLUE-GREEN-RED-IR","775217","716554","903023","10.234406","3.154110","0.032736","756142","909124","765473","7.402476","2.228838","0.059685","851996","912254","814680","6.131953","1.813083","0.054712","845697","933808","864326","4.883146","1.415228","0.061287","722984","854029","953678","3.416669","0.970280","-0.452323","1900","2562","2857","1441","2238","2582","1238","1678","1863","1217","1586","1736","899","508","353",""
"MA200-0416","21022","59","1","1.10","1.4","2023-05-07T14:51:00","120","2023/05/07","14:51:00","-15.771718084812164","35.01971949264407","4.2","16","30","64","53","-23680","6684","1676","3","150","150.01","114.05","35.96","34.09","29.5","13.80","89408","33.69","DUALSPOT-UV-BLUE-GREEN-RED-IR","774710","716223","902742","10.267015","3.167522","0.029790","755936","908991","765420","7.422063","2.238638","0.061530","851696","912022","814529","6.148373","1.821100","0.071241","845387","933534","864107","4.894830","1.420992","0.090527","723401","854566","954337","3.426792","0.974579","0.095336","1679","2191","2419","1273","2020","2343","1195","1851","2127","1027","1608","1845","1239","1670","1841",""
"MA200-0416","21023","59","1","1.10","1.4","2023-05-07T14:51:30","120","2023/05/07","14:51:30","-15.772846400737762","35.01979582943022","2.3","16","30","64","53","-23260","8004","-364","3","150","149.45","114.12","35.32","34.08","29.3","13.69","89424","33.63","DUALSPOT-UV-BLUE-GREEN-RED-IR","774422","716098","902667","10.295884","3.178465","0.023812","755590","908689","765187","7.440556","2.243108","-0.061362","851310","911724","814310","6.161070","1.825308","0.014866","845185","933344","863963","4.904310","1.423650","-0.031158","723236","854391","954147","3.431463","0.976244","0.050966","1485","1819","1968","1201","938","824","923","989","1016","833","755","722","571","658","692",""
"MA200-0416","21024","59","1","1.10","1.4","2023-05-07T14:52:00","120","2023/05/07","14:52:00","-15.77314305305481","35.021026162430644","5.6","16","30","64","53","-22964","5940","4628","3","150","150.14","114.25","35.89","34.07","29.1","13.59","89436","33.63","DUALSPOT-UV-BLUE-GREEN-RED-IR","772050","715299","902491","10.572692","3.264812","-0.000973","753725","907599","764691","7.610981","2.292108","-0.018142","850021","911207","814144","6.291556","1.860094","-0.043529","844486","933286","864099","4.999903","1.448309","-0.067323","722427","853818","953592","3.485780","0.987266","-0.280098","14230","14130","14085","11058","10120","9716","9481","8046","7443","8394","6892","6280","6641","4289","3360",""
"MA200-0416","21025","59","1","1.10","1.4","2023-05-07T14:52:30","120","2023/05/07","14:52:30","-15.773970365524292","35.02218066342175","5.0","16","30","64","53","-22860","6792","2752","3","150","149.90","114.44","35.46","34.07","29.0","13.53","89500","33.63","DUALSPOT-UV-BLUE-GREEN-RED-IR","778102","720983","909725","10.604700","3.275329","0.007592","753670","907603","764705","7.631589","2.298332","-0.004918","853676","915214","817769","6.309843","1.866072","0.011524","843128","931844","862811","5.013663","1.452464","-0.007434","721731","853030","952758","3.494184","0.990448","0.067755","1642","1742","1786","1335","1301","1286","1326","1399","1430","1206","1175","1162","1025","1253","1344",""
"MA200-0416","21026","59","1","1.10","1.4","2023-05-07T14:53:00","120","2023/05/07","14:53:00","-15.775295555591583","35.02234599739313","5.8","16","30","64","53","-23280","6164","2380","3","150","149.86","114.19","35.67","34.06","28.9","13.45","0","0.00","DUALSPOT-UV-BLUE-GREEN-RED-IR","776853","720057","908684","10.637150","3.286666","0.013772","752768","906726","764044","7.654077","2.306068","0.016565","853260","914970","817604","6.328159","1.870429","-0.080900","842848","931653","862687","5.028205","1.456880","-0.008025","721496","852865","952594","3.503276","0.992752","-0.102249","1669","1867","1955","1459","1607","1671","1331","1014","880","1277","1242","1228","1112","902","818",""
"MA200-0416","21027","59","1","1.10","1.4","2023-05-07T14:53:30","120","2023/05/07","14:53:30","-15.776643574237823","35.02167699672282","4.2","16","30","64","53","-24576","4292","1796","3","150","149.54","114.08","35.47","34.05","28.8","13.38","0","0.00","DUALSPOT-UV-BLUE-GREEN-RED-IR","774700","718201","906442","10.679903","3.300975","0.009337","750916","904583","762297","7.683213","2.316059","0.016715","851745","913387","816235","6.351166","1.880222","0.054163","840587","929240","860488","5.045336","1.463193","0.040988","720193","851316","950884","3.513195","0.995042","-0.159208","2201","2369","2445","1893","2088","2172","1674","2292","2552","1506","1785","1899","1214","902","778",""
"MA200-0416","21028","59","1","1.10","1.4","2023-05-07T14:54:00","120","2023/05/07","14:54:00","-15.777249038219452","35.0224526617676","5.9","16","30","64","53","-23248","7520","2756","3","150","149.76","113.88","35.88","34.04","28.7","13.33","89700","33.56","DUALSPOT-UV-BLUE-GREEN-RED-IR","776520","720102","908970","10.720865","3.315149","0.011611","752442","906575","764036","7.707698","2.324157","0.008637","852919","914781","817542","6.369680","1.885342","-0.032967","842176","931076","862225","5.058602","1.467985","0.033843","721180","852564","952316","3.524231","0.998091","-0.058859","2112","2320","2413","1593","1673","1707","1349","1184","1115","1168","1339","1410","1353","1187","1121",""
"MA200-0416","21029","59","1","1.10","1.4","2023-05-07T14:54:30","120","2023/05/07","14:54:30","-15.777650892734528","35.0234081633389","0.0","16","30","64","53","-23296","6992","1635","3","150","150.23","114.80","35.43","34.04","28.6","13.28","89692","33.56","DUALSPOT-UV-BLUE-GREEN-RED-IR","775647","719484","908318","10.759856","3.328525","0.012927","751711","905883","763541","7.734380","2.334684","0.036853","848134","909807","813159","6.391710","1.893729","0.038982","841723","930669","861920","5.075739","1.474011","0.032357","721281","852754","952559","3.534713","1.002594","0.100001","1994","2217","2317","1723","2202","2409","1593","1965","2121","1497","1706","1791","1275","1775","1973",""
"MA200-0416","21030","59","1","1.10","1.4","2023-05-07T14:55:00","120","2023/05/07","14:55:00","-15.77696806192398","35.02342249825597","5.6","16","30","64","53","-23040","8464","851","3","150","150.03","114.00","36.03","34.03","28.5","13.23","89648","33.56","DUALSPOT-UV-BLUE-GREEN-RED-IR","773945","718396","907300","10.866839","3.366171","0.012996","750495","904956","762964","7.819097","2.361692","0.001597","851396","913704","816841","6.463504","1.917743","0.011878","840810","930058","861480","5.133907","1.492655","0.003842","720427","851988","951815","3.573186","1.012406","-0.103093","5511","6137","6418","5508","5557","5578","5228","5534","5663","5119","5192","5222","4714","3804","3445",""
"MA200-0416","21031","59","1","1.10","1.4","2023-05-07T14:55:30","120","2023/05/07","14:55:30","-15.775421857833862","35.02355432882905","6.5","16","30","64","53","-22752","8032","-236","3","150","149.73","114.12","35.62","34.02","28.5","13.18","89548","33.56","DUALSPOT-UV-BLUE-GREEN-RED-IR","772843","718277","907686","10.972716","3.400020","0.003109","749825","904982","763366","7.900503","2.388067","0.006554","850406","913430","816860","6.529819","1.938324","-0.001231","839799","929497","861249","5.185548","1.508749","-0.000401","719962","851820","951792","3.609016","1.024594","0.030912","5449","5582","5641","5288","5489","5577","4824","4797","4786","4540","4533","4530","4386","4780","4936",""
"MA200-0416","21032","59","1","1.10","1.4","2023-05-07T14:56:00","120","2023/05/07","14:56:00","-15.773591578006744","35.02420982904732","7.6","16","30","64","52","-23252","5580","3108","3","150","149.09","113.13","35.96","34.01","28.4","13.15","89564","33.50","DUALSPOT-UV-BLUE-GREEN-RED-IR","768397","715504","905012","11.308416","3.511886","0.005794","746507","902336","761663","8.167553","2.473455","0.001030","847289","911286","815463","6.760466","2.010780","-0.002510","835872","926224","858634","5.375333","1.567853","-0.005479","717765","849879","949958","3.742143","1.065251","-0.015501","17429","18272","18651","17499","17603","17648","16926","16728","16644","16831","16490","16349","16439","15794","15537",""
"MA200-0416","21033","59","1","1.10","1.4","2023-05-07T14:56:30","120","2023/05/07","14:56:30","-15.7720365524292","35.02502499893308","6.7","16","30","64","52","-23220","6550","2220","3","150","150.58","114.55","36.03","34.00","28.4","13.14","89652","33.50","DUALSPOT-UV-BLUE-GREEN-RED-IR","769303","716740","906811","11.411551","3.545055","0.002757","747112","903486","762745","8.245409","2.497644","-0.002184","847833","912193","816395","6.826335","2.030587","-0.009805","837030","927768","860140","5.430025","1.585292","0.003499","718374","850781","951070","3.779560","1.076378","-0.021860","5288","5406","5460","5038","4976","4949","4774","4563","4474","4790","4855","4883","4563","4313","4214",""
"MA200-0416","21034","59","1","1.10","1.4","2023-05-07T14:57:00","120","2023/05/07","14:57:00","-15.770484685897827","35.025824496522546","7.2","16","30","64","53","-23648","5668","3048","3","150","150.43","114.40","36.03","33.99","28.4","13.14","89716","33.50","DUALSPOT-UV-BLUE-GREEN-RED-IR","768882","716675","906959","11.479362","3.566072","-0.002043","746769","903384","762792","8.295184","2.513683","0.003893","847839","912447","816741","6.868333","2.043479","-0.005404","836694","927601","860108","5.464184","1.594555","-0.044653","718395","850977","951353","3.804281","1.081643","-0.217167","3481","3426","3401","3225","3300","3333","3047","2971","2938","2995","2579","2408","3018","2041","1653",""
"MA200-0416","21035","59","1","1.10","1.4","2023-05-07T14:57:30","120","2023/05/07","14:57:30","-15.7690469622612","35.026652328670025","5.6","16","30","64","52","-23064","6743","3464","3","150","150.36","114.80","35.56","33.97","28.4","13.13","89772","33.50","DUALSPOT-UV-BLUE-GREEN-RED-IR","767488","715662","905829","11.538784","3.586254","0.010634","745502","902142","761842","8.338551","2.527065","-0.000672","846817","911632","816118","6.904757","2.055960","0.019013","843498","935329","867361","5.492433","1.603513","0.005896","718065","850691","951074","3.824504","1.087625","-0.017574","3040","3333","3465","2800","2789","2784","2634","2913","3032","2468","2527","2551","2460","2350","2305",""
"MA200-0416","21036","59","1","1.10","1.4","2023-05-07T14:58:00","120","2023/05/07","14:58:00","-15.767756164073944","35.02741733007133","5.3","16","30","64","52","-23464","6056","3120","3","150","150.16","114.04","36.12","33.95","28.4","13.12","89832","33.50","DUALSPOT-UV-BLUE-GREEN-RED-IR","766678","715430","905923","11.640799","3.621732","0.010708","745388","902520","762364","8.416188","2.551759","0.000731","846147","911336","816024","6.970948","2.077328","0.003838","835358","926677","859504","5.546651","1.620125","-0.008696","717270","849982","950418","3.860023","1.099447","0.017212","5254","5769","6002","5046","5068","5077","4818","4911","4951","4769","4614","4550","4350","4572","4660",""
"MA200-0416","21037","59","1","1.10","1.4","2023-05-07T14:58:30","120","2023/05/07","14:58:30","-15.766184568405151","35.02800249494612","6.7","16","30","64","52","-23537","6050","3883","3","150","150.01","114.21","35.80","33.95","28.4","13.12","89924","33.50","DUALSPOT-UV-BLUE-GREEN-RED-IR","765297","714490","904881","11.723640","3.648481","0.003584","743955","901090","761275","8.479013","2.571697","0.002084","846000","911467","816272","7.022500","2.093088","-0.005178","835650","927231","860108","5.587830","1.632589","-0.009126","717530","850422","950977","3.889763","1.108018","-0.032557","4260","4389","4447","4077","4129","4151","3747","3655","3615","3617","3493","3441","3637","3345","3228",""
"MA200-0416","21038","59","1","1.10","1.4","2023-05-07T14:59:00","120","2023/05/07","14:59:00","-15.764551103115082","35.02794732712209","6.6","16","30","64","52","-23360","4788","4592","3","150","149.90","113.68","36.21","33.94","28.5","13.13","90008","33.50","DUALSPOT-UV-BLUE-GREEN-RED-IR","761686","712597","903402","12.009420","3.742958","0.004342","741303","899409","760528","8.713581","2.647024","0.001330","842486","909033","814630","7.225955","2.156734","-0.003625","838650","931750","864796","5.758149","1.685667","-0.005480","715278","848546","949226","4.011842","1.144924","-0.019134","14765","15324","15577","15296","15420","15475","14858","14592","14478","15030","14705","14571","15001","14236","13931",""
"MA200-0416","21039","59","1","1.10","1.4","2023-05-07T14:59:30","120","2023/05/07","14:59:30","-15.763077676296234","35.02731432765722","6.0","16","30","64","52","-23380","5856","3455","3","150","150.28","114.21","36.07","33.94","28.5","13.15","90116","33.50","DUALSPOT-UV-BLUE-GREEN-RED-IR","763244","714283","905709","12.085436","3.768804","0.008281","742402","900951","761878","8.768127","2.664728","0.004351","843957","910791","816285","7.273233","2.172600","0.011254","840496","933913","866829","5.795604","1.697712","0.004341","716465","850015","950954","4.038843","1.153006","-0.019533","3909","4208","4344","3540","3638","3681","3436","3651","3743","3290","3350","3375","3302","3129","3061",""
"MA200-0416","21040","59","1","1.10","1.4","2023-05-07T15:00:00","120","2023/05/07","15:00:00","-15.762801885604858","35.02652399614453","4.9","16","30","64","52","-23808","3468","3292","3","150","150.09","114.16","35.93","33.93","28.6","13.18","90216","33.50","DUALSPOT-UV-BLUE-GREEN-RED-IR","761048","712428","903468","12.128374","3.783029","0.005847","740613","898994","760284","8.798301","2.673496","-0.014087","842461","909322","815048","7.297492","2.178627","-0.058866","838194","931513","864698","5.815303","1.703131","-0.037324","714859","848178","948928","4.050663","1.156101","-0.075988","2209","2325","2377","1959","1808","1743","1764","1392","1234","1731","1512","1422","1446","1203","1105",""
"MA200-0416","21041","59","1","1.10","1.4","2023-05-07T15:00:30","120","2023/05/07","15:00:30","-15.763187766075134","35.02525966614485","4.0","16","30","64","52","-22716","7940","1156","3","150","150.68","114.12","36.56","33.94","28.7","13.24","90276","33.50","DUALSPOT-UV-BLUE-GREEN-RED-IR","762438","713885","905461","12.161367","3.795244","0.015154","741884","900688","761797","8.820759","2.680015","-0.017702","843862","910954","816562","7.316750","2.184474","-0.011046","833727","926644","860178","5.827846","1.706117","-0.097987","716669","850428","951447","4.059242","1.158005","-0.185691","1698","1962","2081","1458","1321","1261","1401","1327","1296","1102","819","701","1050","727","598",""
"MA200-0416","21042","59","1","1.10","1.4","2023-05-07T15:01:00","120","2023/05/07","15:01:00","-15.763302147388458","35.02424116246402","3.0","16","30","64","52","-23120","6575","876","3","150","149.94","114.42","35.52","33.93","28.7","13.25","90264","33.50","DUALSPOT-UV-BLUE-GREEN-RED-IR","762599","714214","905984","12.200556","3.808929","0.012603","741996","900956","762085","8.845315","2.689476","0.029086","843562","910737","816409","7.335424","2.191382","0.029272","840200","933940","866995","5.843135","1.712232","0.049607","716486","850250","951294","4.068498","1.161061","0.020031","2011","2263","2377","1591","1974","2142","1355","1614","1725","1340","1727","1887","1130","1201","1230",""
"MA200-0416","21043","59","1","1.10","1.4","2023-05-07T15:01:30","120","2023/05/07","15:01:30","-15.763480246067047","35.023156493902206","3.8","16","30","64","52","-23512","6615","1692","3","150","149.34","114.04","35.29","33.93","28.7","13.25","90408","33.50","DUALSPOT-UV-BLUE-GREEN-RED-IR","762628","714361","906305","12.232553","3.820980","0.019605","741888","900900","762101","8.865934","2.696592","0.016022","843578","910867","816552","7.350564","2.196115","0.001951","840473","934315","867379","5.855534","1.716226","0.009300","716707","850531","951623","4.074543","1.163342","0.057681","1647","2005","2167","1340","1494","1562","1102","1113","1118","1090","1135","1153","740","902","967",""
"MA200-0416","21044","59","1","1.10","1.4","2023-05-07T15:02:00","120","2023/05/07","15:02:00","-15.76373440027237","35.02246199734509","0.2","16","30","64","52","-23688","6908","488","3","150","149.96","114.32","35.64","33.93","28.7","13.23","90344","33.50","DUALSPOT-UV-BLUE-GREEN-RED-IR","762247","714148","906119","12.261911","3.831703","0.016285","742081","901275","762458","8.884488","2.703523","0.024961","843576","910948","816687","7.366085","2.201909","0.029810","833054","926103","859809","5.865696","1.719469","0.005470","716676","850571","951681","4.082510","1.164650","-0.481148","1508","1767","1884","1203","1441","1546","1127","1349","1444","891","912","921","973","512","328",""
"MA200-0416","21045","59","1","1.10","1.4","2023-05-07T15:02:30","120","2023/05/07","15:02:30","-15.763589680194855","35.022723661735654","3.1","16","30","64","51","-23584","6847","3200","3","150","149.73","114.27","35.46","33.93","28.6","13.20","90380","33.50","DUALSPOT-UV-BLUE-GREEN-RED-IR","759917","712115","903626","12.292805","3.842746","0.014717","739938","898756","760400","8.904442","2.709896","0.004498","841784","909093","815042","7.381278","2.205949","-0.034728","830970","923849","857740","5.877595","1.724142","0.046463","715186","848812","949748","4.088676","1.167183","0.076308","1587","1829","1938","1294","1332","1348","1103","945","878","1044","1322","1437","753","998","1095",""
"MA200-0416","21046","59","1","1.10","1.4","2023-05-07T15:03:00","120","2023/05/07","15:03:00","-15.76325911283493","35.023677330464125","2.8","16","30","64","52","-22836","9304","944","3","150","149.86","114.46","35.40","33.94","28.6","13.21","90332","33.56","DUALSPOT-UV-BLUE-GREEN-RED-IR","762424","714575","906870","12.321556","3.852504","0.010069","741819","901179","762441","8.922831","2.715105","-0.015416","843528","911055","816862","7.395065","2.211183","0.033128","834408","927746","861357","5.887537","1.726806","-0.039561","716997","851007","952177","4.095487","1.168850","-0.100695","1475","1619","1684","1191","1090","1047","1000","1227","1324","871","755","706","831","657","588",""
"MA200-0416","21047","59","1","1.10","1.4","2023-05-07T15:03:30","120","2023/05/07","15:03:30","-15.763229787349701","35.02488815970719","3.6","16","30","64","52","-22304","6932","3704","3","150","149.57","114.36","35.21","33.94","28.6","13.19","90272","33.56","DUALSPOT-UV-BLUE-GREEN-RED-IR","763398","715636","908314","12.350271","3.862764","0.015339","742508","902130","763323","8.940868","2.722086","0.030194","843270","910887","816731","7.409721","2.215767","0.002977","834257","927664","861327","5.897026","1.728993","-0.093499","716876","850914","952109","4.100269","1.169598","-0.538951","1474","1711","1819","1169","1469","1601","1064","1080","1088","832","623","536","584","296","181",""
"MA200-0416","21048","59","1","1.10","1.4","2023-05-07T15:04:00","120","2023/05/07","15:04:00","-15.762986719608307","35.02593149617314","4.7","16","30","64","52","-23540","7524","3428","3","150","149.43","114.04","35.39","33.94","28.6","13.19","90280","33.56","DUALSPOT-UV-BLUE-GREEN-RED-IR","763309","715671","908436","12.381393","3.873520","0.011461","742422","902108","763366","8.960061","2.728857","0.018348","843417","911111","816995","7.425099","2.220630","0.003587","834109","927566","861252","5.909924","1.732808","-0.012047","716848","850920","952138","4.109850","1.173159","0.052739","1602","1785","1868","1247","1418","1493","1119","1141","1150","1134","1081","1059","1173","1405","1498",""
"MA200-0416","21049","59","1","1.10","1.4","2023-05-07T15:04:30","120","2023/05/07","15:04:30","-15.76269519329071","35.026959663257","3.5","15","30","64","51","-21824","9748","-760","3","150","150.69","113.96","36.73","33.95","28.5","13.14","90156","33.56","DUALSPOT-UV-BLUE-GREEN-RED-IR","760941","713580","905862","12.405273","3.883186","0.021887","740885","900355","761920","8.976008","2.733642","-0.012240","842405","910129","816129","7.436990","2.225464","0.036537","831959","925228","859105","5.919107","1.736724","0.053037","715603","849471","950548","4.115327","1.174747","-0.039796","1230","1545","1689","1037","965","934","866","1092","1189","808","1069","1178","671","603","576",""
"MA200-0416","21050","59","1","1.10","1.4","2023-05-07T15:05:00","120","2023/05/07","15:05:00","-15.76260381937027","35.0270488280803","1.0","15","30","64","51","-23200","6752","3376","3","150","149.53","114.35","35.17","33.96","28.5","13.17","90140","33.56","DUALSPOT-UV-BLUE-GREEN-RED-IR","762751","715593","908602","12.467005","3.901847","-0.002058","742292","902334","763714","9.016828","2.746118","-0.001018","839202","906894","813269","7.470584","2.233761","-0.052333","834157","927847","861616","5.944272","1.742959","-0.063879","717282","851604","952946","4.131445","1.178012","-0.221156","3170","3116","3091","2646","2629","2622","2438","1958","1753","2207","1778","1600","1968","1296","1028",""
"MA200-0416","21051","59","1","1.10","1.4","2023-05-07T15:05:30","120","2023/05/07","15:05:30","-15.76379406452179","35.0278419945389","6.2","15","30","64","51","-23144","8168","828","3","150","149.16","113.95","35.21","33.97","28.5","13.15","90052","33.63","DUALSPOT-UV-BLUE-GREEN-RED-IR","759803","713773","906920","12.660370","3.968525","0.011405","739806","900312","762404","9.172837","2.798343","0.011666","840895","909585","816117","7.606685","2.280783","0.018963","831536","925702","859958","6.059046","1.780957","0.015144","715141","849590","951005","4.220146","1.207806","0.025728","9967","11121","11649","10149","10994","11365","9916","11086","11587","10105","10826","11126","10874","11819","12198",""
"MA200-0416","21052","59","1","1.10","1.4","2023-05-07T15:06:00","120","2023/05/07","15:06:00","-15.765243530273438","35.02821249514818","5.6","15","30","64","51","-22884","8628","1208","3","150","149.90","114.32","35.58","33.97","28.4","13.13","89972","33.56","DUALSPOT-UV-BLUE-GREEN-RED-IR","761155","715586","909587","12.766657","4.004490","0.008844","740927","902159","764139","9.242692","2.820480","0.002781","837803","906611","813624","7.663006","2.297520","-0.008973","833360","928021","862274","6.105148","1.795935","0.009628","716663","851617","953347","4.251405","1.215906","-0.072023","5460","5937","6155","4529","4612","4649","4090","3905","3827","4045","4224","4298","3819","3180","2924",""
"MA200-0416","21053","59","1","1.10","1.4","2023-05-07T15:06:30","120","2023/05/07","15:06:30","-15.766823887825012","35.02796932682395","6.2","15","30","64","51","-23012","8212","796","3","150","150.25","114.44","35.81","33.97","28.4","13.11","89884","33.63","DUALSPOT-UV-BLUE-GREEN-RED-IR","758313","713383","907063","12.872530","4.040269","0.008115","738478","899594","762136","9.324564","2.848751","0.013913","841081","910561","817301","7.731604","2.319728","0.006095","831584","926394","860870","6.159945","1.812285","-0.011449","715681","850645","952383","4.290848","1.227810","-0.012163","5433","5868","6067","5303","5852","6094","4976","5148","5222","4804","4580","4487","4814","4644","4575",""
"MA200-0416","21054","59","1","1.10","1.4","2023-05-07T15:07:00","120","2023/05/07","15:07:00","-15.768310248851776","35.02723532728851","6.5","14","30","64","51","-22796","7640","2152","3","150","150.03","114.40","35.63","33.99","28.4","13.10","89800","33.63","DUALSPOT-UV-BLUE-GREEN-RED-IR","760116","715448","909943","12.958591","4.069677","0.009576","740175","901999","764335","9.387753","2.868021","-0.003291","836680","906073","813411","7.785779","2.336186","-0.004672","833021","928253","862657","6.202267","1.824134","-0.026921","715919","851138","952977","4.323038","1.235965","-0.081809","4418","4848","5044","4094","4009","3972","3931","3835","3793","3711","3336","3180","3930","3197","2903",""
"MA200-0416","21055","59","1","1.10","1.4","2023-05-07T15:07:30","120","2023/05/07","15:07:30","-15.769767701625824","35.026340663433075","6.7","14","30","64","51","-23208","7488","1964","3","150","150.28","114.38","35.91","34.00","28.3","13.07","89752","33.63","DUALSPOT-UV-BLUE-GREEN-RED-IR","752347","708398","901118","13.012087","4.087808","0.007996","739848","901805","764283","9.424714","2.880752","0.013037","836886","906479","813844","7.816100","2.345973","0.004949","833906","929388","863811","6.226663","1.831293","-0.016363","716527","851933","953917","4.339081","1.240328","-0.053070","2747","2965","3066","2395","2628","2731","2200","2262","2289","2139","2000","1942","1959","1697","1592",""
"MA200-0416","21056","59","1","1.10","1.4","2023-05-07T15:08:00","120","2023/05/07","15:08:00","-15.771213233470917","35.02554399706423","6.8","14","30","64","51","-22840","8047","2868","3","150","150.03","114.04","35.99","34.00","28.3","13.07","89676","33.63","DUALSPOT-UV-BLUE-GREEN-RED-IR","759350","715224","910008","13.063368","4.104883","0.005700","739457","901635","764207","9.460715","2.890558","-0.025940","836947","906796","814199","7.845759","2.353096","-0.066034","833788","929413","863901","6.250509","1.837587","-0.048229","716264","851757","953779","4.356825","1.245268","-0.045302","2641","2786","2853","2340","2020","1879","2159","1643","1422","2097","1754","1611","2173","1917","1815",""
"MA200-0416","21057","59","1","1.10","1.4","2023-05-07T15:08:30","120","2023/05/07","15:08:30","-15.772595226764679","35.02482399530709","5.9","14","30","64","51","-23204","7656","2000","3","150","149.45","113.76","35.68","34.01","28.7","13.30","89632","33.63","DUALSPOT-UV-BLUE-GREEN-RED-IR","749295","710769","907964","13.395096","4.220518","0.010442","731230","897365","763168","9.755058","2.985878","0.004584","828565","902634","812715","8.086413","2.428955","0.000879","825221","924088","860828","6.447538","1.898211","-0.004293","711112","848459","951715","4.502277","1.292359","0.009600","17127","19034","19912","19180","19803","20078","17562","17650","17688","17375","17045","16907","17860","18435","18667",""
"MA200-0416","21058","59","1","1.10","1.4","2023-05-07T15:09:00","120","2023/05/07","15:09:00","-15.773193538188934","35.02417899854481","3.9","14","30","64","51","-23132","6579","2516","3","150","150.16","114.00","36.16","34.02","29.2","13.59","89624","33.63","DUALSPOT-UV-BLUE-GREEN-RED-IR","739243","704903","902594","14.897928","4.737358","0.007384","728538","897806","764977","11.030576","3.413320","0.006864","825338","902667","814222","9.229928","2.806907","0.006178","823387","925239","863291","7.419388","2.213609","0.004316","709988","849385","953715","5.223099","1.517026","-0.004787","77428","83956","86999","82944","87635","89738","83277","86781","88313","85527","87512","88356","88327","86798","86173",""
"MA200-0416","21059","59","1","1.10","1.4","2023-05-07T15:09:30","120","2023/05/07","15:09:30","-15.772395730018616","35.02315315976739","4.6","14","30","64","51","-22268","8560","2027","3","150","150.69","114.12","36.57","34.02","29.7","13.84","89596","33.63","DUALSPOT-UV-BLUE-GREEN-RED-IR","745380","710933","910485","14.976990","4.761875","-0.003312","728211","897581","764834","11.083498","3.426975","-0.035430","824884","902357","813990","9.275139","2.819174","-0.030431","823192","925158","863235","7.454132","2.222860","-0.042586","709733","849141","953502","5.247471","1.525204","0.011877","4069","3937","3876","3437","2768","2468","3289","2785","2565","3054","2537","2318","2983","3124","3181",""
"MA200-0416","21060","59","1","1.10","1.4","2023-05-07T15:10:00","120","2023/05/07","15:10:00","-15.771516263484955","35.02239682711661","3.5","14","30","64","51","-23496","5448","4136","3","150","149.32","113.51","35.81","34.03","30.2","14.08","89652","33.63","DUALSPOT-UV-BLUE-GREEN-RED-IR","738747","704759","902703","15.014719","4.774347","0.004368","728074","897559","764913","11.108979","3.434373","-0.011726","825005","902584","814226","9.294468","2.824312","-0.031462","824001","926162","864212","7.470396","2.226758","-0.069655","710001","849541","953981","5.258827","1.527573","-0.173743","1952","2045","2089","1664","1531","1472","1413","1191","1093","1437","1092","945","1397","924","730",""
"MA200-0416","21061","59","1","1.10","1.4","2023-05-07T15:10:30","120","2023/05/07","15:10:30","-15.770581305027008","35.022982159629464","4.6","14","30","64","51","-23320","6245","875","3","150","149.39","113.68","35.70","34.04","30.5","14.25","89692","33.63","DUALSPOT-UV-BLUE-GREEN-RED-IR","738246","704451","902426","15.050049","4.786699","0.009465","728148","897798","765151","11.133053","3.443021","0.015486","824685","902351","814067","9.312839","2.829229","-0.028906","823384","925586","863691","7.486014","2.230466","-0.071197","709823","849379","953803","5.268966","1.529623","-0.191436","1825","2032","2128","1569","1795","1896","1341","1143","1057","1378","1041","899","1245","801","620",""
"MA200-0416","21062","59","1","1.10","1.4","2023-05-07T15:11:00","120","2023/05/07","15:11:00","-15.76983767747879","35.0233946647495","2.9","14","30","64","50","-23532","5824","3732","3","150","150.49","114.00","36.49","34.04","30.8","14.41","89716","33.63","DUALSPOT-UV-BLUE-GREEN-RED-IR","736665","703114","900789","15.085812","4.800350","0.014599","726698","896165","763828","11.156905","3.450079","-0.011021","823844","901594","813428","9.334296","2.836799","0.013721","821453","923504","861798","7.500458","2.234625","-0.022165","708650","848053","952350","5.279358","1.532473","-0.047771","1842","2197","2362","1551","1433","1381","1562","1722","1792","1271","1143","1089","1273","1091","1016",""
"MA200-0416","21063","59","1","1.10","1.4","2023-05-07T15:11:30","120","2023/05/07","15:11:30","-15.769311726093292","35.023220993578434","2.5","14","30","64","51","-22288","5356","3568","3","150","150.41","114.00","36.40","34.05","31.1","14.56","89776","33.63","DUALSPOT-UV-BLUE-GREEN-RED-IR","738174","704698","902934","15.120697","4.813425","0.013431","727878","897752","765233","11.180113","3.457946","0.007335","825304","903288","815000","9.351558","2.841865","-0.014067","824652","927205","865298","7.514978","2.239280","0.000743","710434","850235","954844","5.287595","1.534694","-0.053121","1797","2109","2255","1509","1602","1643","1257","1155","1110","1277","1282","1285","1009","852","788",""
"MA200-0416","21064","59","1","1.10","1.4","2023-05-07T15:12:00","120","2023/05/07","15:12:00","-15.768682360649109","35.02317399531603","3.1","14","30","64","50","-23600","4884","2168","3","150","150.01","113.79","36.21","34.06","31.3","14.69","89836","33.69","DUALSPOT-UV-BLUE-GREEN-RED-IR","738640","705289","903789","15.153814","4.824621","0.005532","728008","898051","765549","11.203938","3.465141","-0.007134","825145","903212","814965","9.369868","2.846956","-0.023665","824718","927320","865443","7.528938","2.242737","-0.061336","710471","850330","954947","5.296566","1.537361","-0.019324","1709","1815","1865","1552","1472","1437","1335","1167","1093","1230","957","841","1101","1028","998",""
"MA200-0416","21065","59","1","1.10","1.4","2023-05-07T15:12:30","120","2023/05/07","15:12:30","-15.767912864685059","35.02322566136718","0.8","14","30","64","50","-21864","8860","3223","3","150","149.96","114.60","35.36","34.07","31.6","14.82","89916","33.75","DUALSPOT-UV-BLUE-GREEN-RED-IR","739120","705944","904751","15.189047","4.837499","0.014028","723613","892767","761065","11.225602","3.472227","0.007132","825439","903675","815441","9.388786","2.852296","-0.014852","824825","927589","865732","7.542524","2.246004","-0.060859","710697","850701","955377","5.306616","1.539074","-0.321680","1805","2139","2294","1401","1485","1523","1370","1253","1202","1189","926","815","1225","676","452",""
"MA200-0416","21066","59","1","1.10","1.4","2023-05-07T15:13:00","120","2023/05/07","15:13:00","-15.76798003911972","35.02318999543786","1.6","14","30","64","51","-22264","9132","1144","3","150","149.57","113.76","35.80","34.08","31.9","14.99","89908","33.75","DUALSPOT-UV-BLUE-GREEN-RED-IR","738315","705506","904368","15.259136","4.859045","-0.002310","728245","898816","766322","11.270498","3.483547","-0.035861","825178","903636","815473","9.421450","2.859598","-0.075593","825509","928493","866612","7.562469","2.250689","-0.074719","710742","850800","955543","5.319965","1.543317","0.002654","3618","3534","3495","2925","2343","2083","2383","1693","1392","1758","1312","1123","1639","1655","1662",""
"MA200-0416","21067","59","1","1.10","1.4","2023-05-07T15:13:30","120","2023/05/07","15:13:30","-15.768560707569122","35.023177998140454","2.2","14","30","64","50","-23225","7758","-1825","3","150","149.76","113.96","35.80","34.09","32.1","15.11","89840","33.75","DUALSPOT-UV-BLUE-GREEN-RED-IR","739121","706445","905702","15.296711","4.871639","0.005846","723361","892881","761351","11.293229","3.490688","0.000001","825481","904054","815899","9.441477","2.866077","0.004351","819084","921372","859987","7.576999","2.254062","-0.077984","706963","846348","950551","5.330604","1.545057","-0.390117","1936","2066","2126","1478","1478","1478","1459","1502","1521","1279","945","804","1304","678","423",""
"MA200-0416","21068","59","1","1.10","1.4","2023-05-07T15:14:00","120","2023/05/07","15:14:00","-15.769151031970978","35.02319532819092","2.8","14","30","64","50","-23008","6736","-3371","3","150","149.91","113.71","36.20","34.10","32.3","15.20","89780","33.75","DUALSPOT-UV-BLUE-GREEN-RED-IR","739377","706818","906291","15.327772","4.881037","-0.005121","724024","893857","762193","11.314398","3.495950","-0.041034","825621","904336","816159","9.456170","2.869010","-0.121907","818488","920805","859495","7.589978","2.256256","-0.264613","711079","851337","956193","5.338024","1.546544","-0.204310","1604","1524","1487","1380","1077","942","1072","672","498","1145","607","380","911","573","436",""
"MA200-0416","21069","59","1","1.10","1.4","2023-05-07T15:14:30","120","2023/05/07","15:14:30","-15.769490480422974","35.0233203265816","0.0","14","30","64","50","-22724","8996","479","3","150","150.16","114.00","36.16","34.12","32.4","15.28","89756","33.75","DUALSPOT-UV-BLUE-GREEN-RED-IR","739483","707070","906721","15.362362","4.895422","0.020410","724210","894182","762541","11.336273","3.503984","0.016423","825718","904557","816436","9.474426","2.874261","-0.016301","818959","921426","860076","7.603323","2.260446","-0.001883","711401","851760","956688","5.347259","1.549892","0.031363","1782","2336","2596","1422","1647","1747","1329","1205","1151","1174","1162","1157","1131","1293","1359",""
"MA200-0416","21070","59","1","1.10","1.4","2023-05-07T15:15:00","120","2023/05/07","15:15:00","-15.76948767900467","35.023357497528195","0.1","14","30","64","50","-23068","8172","-152","3","150","149.57","114.36","35.21","34.14","32.5","15.35","89752","33.81","DUALSPOT-UV-BLUE-GREEN-RED-IR","739062","706878","906589","15.399830","4.906933","-0.000195","723994","894107","762526","11.361618","3.511709","-0.001287","825555","904527","816415","9.492272","2.878832","-0.033419","820271","923003","861583","7.617746","2.263551","-0.098122","707428","847096","951456","5.357471","1.551967","-0.171266","1924","1920","1918","1642","1626","1619","1295","1078","983","1265","884","724","1247","823","650",""
"MA200-0416","21071","59","1","1.10","1.4","2023-05-07T15:15:30","120","2023/05/07","15:15:30","-15.769490003585815","35.023350996896625","0.0","14","30","64","50","-22416","9752","232","3","150","149.90","113.96","35.93","34.16","32.8","15.50","89756","33.81","DUALSPOT-UV-BLUE-GREEN-RED-IR","739008","706988","906869","15.438732","4.919134","-0.000508","724040","894384","762791","11.386657","3.517063","-0.076601","821376","900080","812449","9.513593","2.883320","-0.095852","820353","923223","861765","7.632746","2.264600","1.361109","707483","847228","951613","5.367475","1.554269","-0.114329","2005","1994","1989","1628","1104","869","1553","1036","812","1320","292","-140","1226","894","759",""
"MA200-0416","21072","59","1","1.10","1.4","2023-05-07T15:16:00","120","2023/05/07","15:16:00","-15.769487202167511","35.02333633042872","0.2","14","30","64","50","-22396","9840","184","3","150","150.24","114.27","35.97","34.20","33.3","15.78","89760","33.94","DUALSPOT-UV-BLUE-GREEN-RED-IR","739604","708120","908617","15.550898","4.952333","-0.006175","724563","895476","763912","11.463140","3.539104","-0.012146","825455","904970","817020","9.577954","2.901792","-0.015136","820074","923214","861919","7.683778","2.279883","-0.009666","707339","847299","951800","5.405624","1.562946","-0.118438","5765","5421","5260","4961","4542","4355","4676","4263","4084","4480","4262","4170","4663","3369","2843",""
"MA200-0416","21073","59","1","1.10","1.4","2023-05-07T15:16:30","120","2023/05/07","15:16:30","-15.769488334655762","35.02334416471422","0.5","14","30","64","49","-23168","-756","5336","3","150","151.16","114.27","36.89","34.21","33.3","15.78","89756","33.94","DUALSPOT-UV-BLUE-GREEN-RED-IR","738628","707358","907771","15.589392","4.966602","0.011458","723815","894723","763337","11.490943","3.547317","-0.012185","824784","904378","816550","9.597725","2.907305","-0.025310","819344","922547","861339","7.699653","2.283793","-0.066042","706626","846488","950935","5.417354","1.568637","0.076512","1978","2271","2408","1803","1650","1582","1436","1240","1155","1393","1063","924","1434","2155","2449",""
"MA200-0416","21074","59","1","1.10","1.4","2023-05-07T15:17:00","120","2023/05/07","15:17:00","-15.769484519958496","35.02333599701524","0.0","14","30","64","50","-23104","-9408","4516","3","150","149.87","113.71","36.16","34.22","33.4","15.85","89760","33.94","DUALSPOT-UV-BLUE-GREEN-RED-IR","734230","703309","902703","15.626520","4.981231","0.016628","725144","896465","764904","11.513964","3.558094","0.035258","822357","901795","814237","9.615940","2.914201","0.022334","822555","926205","864797","7.715807","2.290940","0.046349","708571","848898","953647","5.428859","1.571143","-0.146825","1917","2376","2591","1500","2209","2526","1329","1583","1693","1425","1983","2218","1413","967","786",""
"MA200-0416","21075","59","1","1.10","1.4","2023-05-07T15:17:30","120","2023/05/07","15:17:30","-15.769484102725983","35.023333333432674","0.2","14","30","64","49","-22924","-3520","8088","3","150","150.23","113.96","36.26","34.23","33.5","15.91","89756","33.94","DUALSPOT-UV-BLUE-GREEN-RED-IR","734382","703597","903163","15.661875","4.994756","0.014616","725716","897341","765703","11.536638","3.564127","-0.026972","822586","902182","814626","9.636188","2.920752","0.002431","822156","925861","864521","7.730434","2.294701","-0.048590","708364","848751","953529","5.440559","1.574276","-0.052662","1822","2190","2363","1474","1233","1124","1475","1499","1510","1287","1040","936","1434","1207","1114",""
"MA200-0416","21076","59","1","1.10","1.4","2023-05-07T15:18:00","120","2023/05/07","15:18:00","-15.769491314888","35.023334830999374","0.0","14","30","64","49","-24720","-5156","492","3","150","150.16","114.08","36.08","34.25","33.7","15.99","89752","33.94","DUALSPOT-UV-BLUE-GREEN-RED-IR","734730","704095","903918","15.694660","5.005838","0.005845","725649","897373","765776","11.557530","3.569818","-0.021674","822755","902456","814925","9.650177","2.923727","-0.091926","823361","927350","865909","7.743696","2.297121","-0.194901","708923","849417","954314","5.448898","1.577437","0.040063","1687","1804","1858","1357","1169","1085","1018","684","539","1166","672","464","1021","1223","1306",""
"MA200-0416","21077","59","1","1.10","1.4","2023-05-07T15:18:30","120","2023/05/07","15:18:30","-15.76949030160904","35.02332749590278","0.0","15","30","64","49","-24576","-4704","944","3","150","150.23","113.96","36.26","34.26","33.7","16.00","89752","33.94","DUALSPOT-UV-BLUE-GREEN-RED-IR","733259","702845","902422","15.729595","5.017698","0.005683","719919","890393","759839","11.578238","3.575206","-0.030940","821888","901648","814211","9.667605","2.926861","-0.171334","821525","925356","864066","7.755369","2.297907","1.203063","708075","848485","953297","5.457821","1.579138","-0.236964","1800","1920","1977","1347","1101","991","1269","717","477","1027","217","-123","1093","655","476",""
"MA200-0416","21078","59","1","1.10","1.4","2023-05-07T15:19:00","120","2023/05/07","15:19:00","-15.76948368549347","35.02333149313927","0.0","15","30","64","49","-24636","-4844","1368","3","150","150.29","114.00","36.29","34.29","33.8","16.09","89756","33.94","DUALSPOT-UV-BLUE-GREEN-RED-IR","735555","705231","905518","15.765400","5.027937","-0.011134","720974","891873","761165","11.601921","3.581453","-0.028421","823082","903078","815550","9.685987","2.930551","-0.116286","824200","928458","867031","7.769513","2.301133","-0.086957","705092","844961","949356","5.466680","1.580222","-1.185013","1844","1657","1569","1540","1276","1158","1338","844","629","1244","891","742","1085","417","145",""
"MA200-0416","21079","59","1","1.10","1.4","2023-05-07T15:19:30","120","2023/05/07","15:19:30","-15.76948469877243","35.023322662338614","0.0","15","30","64","49","-24700","-4712","1488","3","150","150.42","114.04","36.38","34.30","33.9","16.12","89760","34.00","DUALSPOT-UV-BLUE-GREEN-RED-IR","735403","705249","905716","15.800522","5.040992","0.012366","720901","891922","761273","11.624238","3.589416","0.012604","823072","903166","815679","9.705502","2.936816","0.000938","816978","920398","859505","7.783333","2.304405","-0.074216","709146","849904","954890","5.478103","1.584121","0.016408","1808","2107","2248","1450","1622","1699","1420","1429","1433","1215","902","770","1399","1497","1537",""
"MA200-0416","21080","59","1","1.10","1.4","2023-05-07T15:20:00","120","2023/05/07","15:20:00","-15.76949417591095","35.02333199419081","0.0","15","30","64","49","-24468","-4928","844","3","150","149.63","113.68","35.95","34.32","33.9","16.14","89760","34.00","DUALSPOT-UV-BLUE-GREEN-RED-IR","735706","705683","906384","15.834749","5.054041","0.014648","721605","892909","762163","11.644482","3.596389","0.009834","822541","902693","815277","9.720815","2.941119","-0.019534","824182","928652","867224","7.797066","2.307743","-0.062779","708979","849751","954789","5.486891","1.585956","-0.166695","1768","2131","2302","1320","1438","1490","1118","993","939","1211","931","813","1079","713","563",""
"MA200-0416","21081","59","1","1.10","1.4","2023-05-07T15:20:30","120","2023/05/07","15:20:30","-15.769499659538269","35.02334216423333","0.0","15","30","64","49","-24696","-4856","1544","3","150","149.57","114.04","35.52","34.33","33.8","16.11","89760","34.00","DUALSPOT-UV-BLUE-GREEN-RED-IR","733213","703421","903595","15.869310","5.067531","0.017082","719888","890946","760534","11.668293","3.604538","0.010698","821241","901356","814130","9.738654","2.947437","0.016858","821792","926029","864826","7.809147","2.310711","-0.054857","707507","848047","952875","5.496168","1.588769","-0.007037","1780","2230","2441","1547","1700","1768","1298","1476","1553","1062","838","744","1136","1106","1094",""
"MA200-0416","21082","59","1","1.10","1.4","2023-05-07T15:21:00","120","2023/05/07","15:21:00","-15.769497811794281","35.02334966510534","0.0","15","30","64","49","-24534","-4826","1803","3","150","150.23","113.84","36.38","34.34","33.6","16.05","89756","34.00","DUALSPOT-UV-BLUE-GREEN-RED-IR","734689","704974","905720","15.902176","5.080761","0.017360","720620","891944","761441","11.688822","3.612096","0.015421","822699","903051","815709","9.754527","2.952265","-0.007607","816732","920379","859598","7.821542","2.314490","-0.008954","708980","849880","954981","5.507391","1.591702","-0.062653","1695","2135","2342","1336","1539","1630","1157","1101","1077","1092","1042","1020","1377","1125","1023",""
"MA200-0416","21083","59","1","1.10","1.4","2023-05-07T15:21:30","120","2023/05/07","15:21:30","-15.769491136074066","35.02334099821746","0.2","15","30","64","49","-24828","-4172","1788","3","150","149.96","114.00","35.96","34.35","33.6","16.05","89756","34.00","DUALSPOT-UV-BLUE-GREEN-RED-IR","734101","704579","905301","15.933571","5.092031","0.010588","720584","892015","761551","11.708020","3.618354","0.003937","821592","901964","814764","9.770435","2.956575","-0.025976","822681","927185","865954","7.832382","2.318037","0.006419","708061","848806","953763","5.513330","1.593242","-0.060531","1617","1840","1945","1248","1290","1308","1158","994","924","953","989","1004","727","598","545",""
"MA200-0416","21084","59","1","1.10","1.4","2023-05-07T15:22:00","120","2023/05/07","15:22:00","-15.769667029380798","35.02340733073652","1.8","15","30","64","49","-24572","-4136","1408","3","150","149.53","113.42","36.11","34.35","33.6","16.05","89740","34.00","DUALSPOT-UV-BLUE-GREEN-RED-IR","733608","704254","904983","15.965563","5.104286","0.014409","720300","891815","761428","11.727652","3.623909","-0.016339","821507","901987","814809","9.786338","2.961033","-0.021091","822463","927024","865832","7.845019","2.320861","-0.093373","707994","848797","953789","5.522680","1.595828","-0.041043","1656","1993","2151","1283","1140","1076","1164","1025","964","1117","785","645","1151","1000","938",""
"MA200-0416","21085","59","1","1.10","1.4","2023-05-07T15:22:30","120","2023/05/07","15:22:30","-15.770169496536255","35.02323916181922","2.8","15","30","64","49","-22960","-5268","5224","3","150","150.21","113.88","36.34","34.36","33.6","16.05","89680","34.00","DUALSPOT-UV-BLUE-GREEN-RED-IR","733625","704382","905273","15.999376","5.116497","0.010141","719885","891358","761115","11.749705","3.631647","0.010712","821938","902550","815384","9.804029","2.966565","-0.003030","823457","928243","866991","7.859502","2.324450","-0.059164","708387","849349","954433","5.533792","1.598680","-0.068537","1744","1973","2081","1435","1578","1642","1289","1263","1252","1275","990","870","1363","1096","988",""
"MA200-0416","21086","59","1","1.10","1.4","2023-05-07T15:23:00","120","2023/05/07","15:23:00","-15.771509051322937","35.022426664829254","4.4","15","30","64","49","-23752","-4408","5044","3","150","149.34","113.84","35.50","34.37","33.5","16.03","89620","34.00","DUALSPOT-UV-BLUE-GREEN-RED-IR","733569","704673","905852","16.060970","5.137781","0.008533","720558","892490","762158","11.787020","3.643854","0.005615","821420","902146","815087","9.831208","2.975898","0.012882","822792","927661","866480","7.878356","2.330017","-0.010377","708019","848968","954065","5.546915","1.603343","0.029532","3178","3521","3682","2430","2549","2602","1982","2182","2269","1661","1573","1536","1610","1834","1925",""
"MA200-0416","21087","59","1","1.10","1.4","2023-05-07T15:23:30","120","2023/05/07","15:23:30","-15.773101568222046","35.0241239964962","7.9","15","30","64","49","-21640","-7260","7808","3","150","150.49","113.85","36.64","34.38","33.4","15.98","89604","34.00","DUALSPOT-UV-BLUE-GREEN-RED-IR","733999","705332","906867","16.117090","5.155523","-0.001656","720494","892605","762351","11.821598","3.653635","-0.017977","822206","903199","816076","9.857047","2.982491","-0.042880","817157","921426","860734","7.897689","2.334684","-0.069654","708852","850043","955312","5.560842","1.606223","-0.181744","2895","2844","2820","2251","1978","1856","1884","1493","1324","1703","1277","1099","1708","1098","849",""
"MA200-0416","21088","59","1","1.10","1.4","2023-05-07T15:24:00","120","2023/05/07","15:24:00","-15.774128556251526","35.02402566187084","12.3","16","30","64","49","-22420","-3932","8732","3","150","149.83","113.76","36.07","34.40","33.3","15.96","89488","34.06","DUALSPOT-UV-BLUE-GREEN-RED-IR","734243","706166","908263","16.229862","5.191133","-0.000361","720831","893574","763401","11.903679","3.680046","0.001780","821501","902867","815950","9.923089","3.002232","-0.008991","816824","921431","860859","7.949798","2.350306","-0.010511","704170","844689","949388","5.598345","1.616499","-0.042087","5822","5799","5788","5348","5428","5464","4819","4544","4424","4595","4345","4241","4605","3980","3726",""
"MA200-0416","21089","59","1","1.10","1.4","2023-05-07T15:24:30","120","2023/05/07","15:24:30","-15.778586149215698","35.02383449859917","19.8","16","30","64","49","-22344","-7072","8968","3","150","150.03","113.96","36.07","34.41","33.2","15.93","89656","34.06","DUALSPOT-UV-BLUE-GREEN-RED-IR","731936","705317","908111","16.513414","5.287296","0.005771","719052","892785","763317","12.130196","3.754699","0.004665","819917","902398","816099","10.118092","3.064579","0.001435","815747","921241","861162","8.108701","2.399206","-0.005034","707697","849663","955341","5.715317","1.650831","-0.019888","14614","15660","16153","14734","15345","15618","14206","14352","14415","13989","13602","13440","14338","13297","12874",""
"MA200-0416","21090","59","1","1.10","1.4","2023-05-07T15:25:00","120","2023/05/07","15:25:00","-15.783160746097565","35.023082161322236","16.6","16","30","64","49","-21512","-9864","8928","3","150","149.90","114.16","35.73","34.41","33.1","15.85","89880","34.06","DUALSPOT-UV-BLUE-GREEN-RED-IR","730002","704604","908120","16.779892","5.384611","0.011744","717596","892230","763413","12.345357","3.829826","0.011614","818237","901622","815883","10.304499","3.128123","0.011000","814365","920664","861042","8.263901","2.450508","0.008924","702766","844422","949766","5.828058","1.686193","0.000491","13710","15995","17075","13971","15585","16310","13556","14763","15289","13639","14403","14725","13795","13823","13835",""
"MA200-0416","21091","59","1","1.10","1.4","2023-05-07T15:25:30","120","2023/05/07","15:25:30","-15.785587191581726","35.02107333019376","17.8","16","30","64","49","-22572","-5620","9260","3","150","149.89","113.89","35.99","34.41","33.0","15.82","89908","34.06","DUALSPOT-UV-BLUE-GREEN-RED-IR","727658","703645","907720","17.063274","5.482034","0.006718","715776","891281","763180","12.574616","3.905077","0.004222","816622","901037","815865","10.502685","3.191566","0.001743","812480","919527","860426","8.428061","2.501064","-0.004458","705885","848861","955078","5.951294","1.722399","-0.018454","14614","15898","16506","14922","15499","15759","14446","14634","14716","14460","14092","13937","15115","14052","13619",""
"MA200-0416","21092","59","1","1.10","1.4","2023-05-07T15:26:00","120","2023/05/07","15:26:00","-15.785715460777283","35.01718682795763","11.7","16","30","64","48","-21904","-6245","9158","3","150","150.03","113.41","36.62","34.41","32.8","15.72","90048","34.06","DUALSPOT-UV-BLUE-GREEN-RED-IR","719773","699414","904794","17.529650","5.651445","0.008875","709245","886958","761228","12.971596","4.045541","0.009411","810644","897846","814637","10.841143","3.309094","0.009017","806395","915606","858180","8.709717","2.596634","0.007738","701909","846108","953136","6.153742","1.789014","0.004224","24154","27170","28605","25950","28433","29558","24778","26643","27462","24917","26181","26718","24937","25410","25603",""
"MA200-0416","21093","59","1","1.10","1.4","2023-05-07T15:26:30","120","2023/05/07","15:26:30","-15.78687196969986","35.01475366577506","13.8","16","30","64","48","-21736","-8552","8328","3","150","150.17","113.85","36.32","34.40","32.9","15.75","90136","34.00","DUALSPOT-UV-BLUE-GREEN-RED-IR","718414","699851","906589","18.206470","5.894287","0.008543","707937","887229","762279","13.550244","4.243923","0.007224","808978","897775","815279","11.361926","3.482586","0.005265","812816","924457","867131","9.153627","2.740144","0.002028","701405","846579","954124","6.477319","1.887481","-0.010777","34917","39266","41348","37678","40486","41767","37977","39652","40393","39118","39636","39858","39703","37867","37112",""
"MA200-0416","21094","59","1","1.10","1.4","2023-05-07T15:27:00","120","2023/05/07","15:27:00","-15.787923514842987","35.01365683041513","1.4","16","30","64","48","-22708","-2920","8860","3","150","149.96","113.88","36.08","34.40","32.9","15.77","90268","34.00","DUALSPOT-UV-BLUE-GREEN-RED-IR","716562","698799","905712","18.390192","5.958168","0.006855","706962","886773","762243","13.698060","4.292381","0.003519","807924","897261","815125","11.490093","3.524369","0.003497","811496","923522","866504","9.259227","2.772945","-0.003104","700794","846224","953918","6.553577","1.911089","-0.005086","9475","10399","10842","9622","9956","10109","9343","9614","9734","9302","9120","9043","9354","9140","9052",""
"MA200-0416","21095","59","1","1.10","1.4","2023-05-07T15:27:30","120","2023/05/07","15:27:30","-15.787362456321716","35.01164449751377","12.4","16","30","64","48","-23464","-5104","7536","3","150","149.35","113.65","35.70","34.39","33.0","15.80","90140","34.00","DUALSPOT-UV-BLUE-GREEN-RED-IR","714378","697151","903944","18.483988","5.990598","0.007021","704761","884496","760489","13.770313","4.316307","0.005318","806191","895771","813981","11.551555","3.543859","0.001183","809058","921104","864399","9.309782","2.789479","0.005976","699306","844635","952241","6.586849","1.920199","-0.033551","4847","5336","5570","4712","4968","5085","4489","4532","4551","4462","4646","4725","4089","3565","3349",""
"MA200-0416","21096","59","1","1.10","1.4","2023-05-07T15:28:00","120","2023/05/07","15:28:00","-15.787293374538422","35.008294666185975","12.2","15","30","64","48","-21688","-7275","8644","3","150","149.90","114.08","35.81","34.39","33.0","15.82","90260","34.00","DUALSPOT-UV-BLUE-GREEN-RED-IR","715402","698511","905985","18.581466","6.028940","0.014660","705704","886067","762018","13.843687","4.344171","0.016906","806944","896906","815172","11.615811","3.567677","0.017809","810801","923359","866647","9.361511","2.807122","0.011736","700279","845978","953855","6.623035","1.933319","0.027100","5018","6288","6897","4768","5767","6224","4676","5521","5895","4549","4942","5110","4431","5117","5400",""
"MA200-0416","21097","59","1","1.10","1.4","2023-05-07T15:28:30","120","2023/05/07","15:28:30","-15.78772884607315","35.006358832120895","0.2","15","30","64","48","-22144","-5384","8840","3","150","149.45","113.68","35.76","34.38","33.1","15.83","90260","34.00","DUALSPOT-UV-BLUE-GREEN-RED-IR","714134","697691","905289","18.678750","6.065557","0.012069","704821","885372","761616","13.921288","4.369791","0.004832","806042","896303","814794","11.679640","3.589182","0.007967","809600","922343","865817","9.415878","2.825307","0.008813","699774","845601","953547","6.661566","1.946182","0.011959","5026","6014","6489","5060","5310","5425","4661","4992","5139","4798","5101","5232","4734","5024","5144",""
"MA200-0416","21098","59","1","1.10","1.4","2023-05-07T15:29:00","120","2023/05/07","15:29:00","-15.788689196109772","35.00507016526535","0.6","16","30","64","47","-21856","-7932","8572","3","150","150.22","113.56","36.65","34.37","33.1","15.82","90208","33.94","DUALSPOT-UV-BLUE-GREEN-RED-IR","711079","695285","902561","18.812420","6.114984","0.009436","702200","882633","759546","14.027765","4.409879","0.013932","804452","895033","813913","11.773306","3.622883","0.012079","806986","919824","863671","9.489971","2.850699","0.008553","698631","844500","952444","6.711157","1.960874","-0.019541","6913","7920","8405","6950","8108","8638","6847","7633","7982","6545","6950","7123","6100","5599","5392",""
"MA200-0416","21099","59","1","1.10","1.4","2023-05-07T15:29:30","120","2023/05/07","15:29:30","-15.788685381412506","35.005059165880084","0.0","16","30","64","48","-22296","-5664","8720","3","150","149.51","113.72","35.78","34.37","33.1","15.84","90212","33.94","DUALSPOT-UV-BLUE-GREEN-RED-IR","711355","695982","903763","18.903572","6.145521","0.004631","707421","889703","765794","14.097572","4.431202","-0.003161","804597","895556","814564","11.831153","3.640043","-0.007613","808890","922268","866139","9.536764","2.864993","-0.004565","699233","845419","953561","6.743400","1.969641","-0.035207","4707","5012","5159","4550","4417","4356","4223","3981","3874","4128","4007","3955","3960","3422","3200",""
