"Serial number","Datum ID","Session ID","Data format version","Firmware version","App version","Date / time local","Timezone offset (mins)","Date local (yyyy/MM/dd)","Time local (hh:mm:ss)","GPS lat (ddmm.mmmmm)","GPS long (dddmm.mmmmm)","GPS speed (km/h)","GPS sat count","Timebase (s)","Status","Battery remaining (%)","Accel X","Accel Y","Accel Z","Tape position","Flow setpoint (mL/min)","Flow total (mL/min)","Flow1 (mL/min)","Flow2 (mL/min)","Sample temp (C)","Sample RH (%)","Sample dewpoint (C)","Internal pressure (Pa)","Internal temp (C)","Optical config","UV Sen1","UV Sen2","UV Ref","UV ATN1","UV ATN2","UV K","Blue Sen1","Blue Sen2","Blue Ref","Blue ATN1","Blue ATN2","Blue K","Green Sen1","Green Sen2","Green Ref","Green ATN1","Green ATN2","Green K","Red Sen1","Red Sen2","Red Ref","Red ATN1","Red ATN2","Red K","IR Sen1","IR Sen2","IR Ref","IR ATN1","IR ATN2","IR K","UV BC1","UV BC2","UV BCc","Blue BC1","Blue BC2","Blue BCc","Green BC1","Green BC2","Green BCc","Red BC1","Red BC2","Red BCc","IR BC1","IR BC2","IR BCc","Readable status"
"MA200-0420","20917","49","1","1.10","1.4","2023-05-03T07:15:59","120","2023/05/03","07:15:59","-15.800429344177246","35.02822849340737","0.0","9","30","66","89","-412","23170","-5816","8","150","150.41","111.41","38.99","21.49","62.6","14.06","0","0.00","DUALSPOT-UV-BLUE-GREEN-RED-IR","819049","718683","910004","0.000000","0.000000","0.000000","912752","915186","836984","0.000000","0.000000","0.000000","889274","888178","830362","0.000000","0.000000","0.000000","909087","893998","892592","0.000000","0.000000","0.000000","789349","908713","965005","0.000000","0.000000","0.000000","","","","","","","","","","","","","","","","Start up"
"MA200-0420","20918","49","1","1.10","1.4","2023-05-03T07:16:29","120","2023/05/03","07:16:29","-15.800431609153748","35.02822065912187","0.0","9","30","66","88","-368","23252","-5644","8","150","150.01","111.24","38.77","21.59","62.9","14.21","0","0.00","DUALSPOT-UV-BLUE-GREEN-RED-IR","811453","712976","903303","0.000000","0.000000","0.000000","912259","915543","837648","0.000000","0.000000","0.000000","888245","887870","830390","0.000000","0.000000","0.000000","900644","886293","885196","0.000000","0.000000","0.000000","788113","907791","964236","0.000000","0.000000","0.000000","","","","","","","","","","","","","","","","Start up"
"MA200-0420","20919","49","1","1.10","1.4","2023-05-03T07:16:59","120","2023/05/03","07:16:59","-15.80043214559555","35.028219325467944","0.0","11","30","66","89","-320","23287","-5875","8","150","149.67","111.32","38.35","21.68","63.0","14.33","89968","21.63","DUALSPOT-UV-BLUE-GREEN-RED-IR","814521","716414","908079","0.000000","0.000000","0.000000","909608","913612","836162","0.000000","0.000000","0.000000","890594","890829","833330","0.000000","0.000000","0.000000","904363","890452","889534","0.000000","0.000000","0.000000","790286","910645","967405","0.000000","0.000000","0.000000","","","","","","","","","","","","","","","","Start up"
"MA200-0420","20920","49","1","1.10","1.4","2023-05-03T07:17:29","120","2023/05/03","07:17:29","-15.800423204898834","35.028235325589776","0.0","11","30","66","89","-540","23108","-5324","8","150","149.72","110.83","38.88","21.78","63.1","14.45","89968","21.88","DUALSPOT-UV-BLUE-GREEN-RED-IR","815377","718086","910745","0.000000","0.000000","0.000000","911324","916198","838846","0.000000","0.000000","0.000000","885851","886792","829831","0.000000","0.000000","0.000000","906386","893043","892370","0.000000","0.000000","0.000000","786553","906813","963475","0.000000","0.000000","0.000000","","","","","","","","","","","","","","","","Start up"
"MA200-0420","20921","49","1","1.10","1.4","2023-05-03T07:17:59","120","2023/05/03","07:17:59","-15.800422132015228","35.02824999764562","0.0","11","30","66","88","-360","23232","-5532","8","150","149.56","111.22","38.34","21.88","63.3","14.59","89960","22.13","DUALSPOT-UV-BLUE-GREEN-RED-IR","806011","712491","905179","0.000000","0.000000","0.000000","909232","916759","840438","0.000000","0.000000","0.000000","884009","887226","831204","0.000000","0.000000","0.000000","898651","887337","887502","0.000000","0.000000","0.000000","785530","907005","964353","0.000000","0.000000","0.000000","","","","","","","","","","","","","","","","Start up"
"MA200-0420","20922","49","1","1.10","1.4","2023-05-03T07:18:29","120","2023/05/03","07:18:29","-15.800413489341736","35.02823865972459","0.0","11","30","64","88","-296","23252","-5996","8","150","149.56","111.49","38.07","21.98","63.5","14.73","89972","22.38","DUALSPOT-UV-BLUE-GREEN-RED-IR","806518","714393","908348","0.000000","0.000000","0.000000","902645","911545","836142","0.000000","0.000000","0.000000","884325","888826","833071","0.000000","0.000000","0.000000","900197","889882","890436","0.000000","0.000000","0.000000","786442","908812","966556","0.000000","0.000000","0.000000","","","","","","","","","","","","","","","",""
"MA200-0420","20923","49","1","1.10","1.4","2023-05-03T07:18:59","120","2023/05/03","07:18:59","-15.800428807735443","35.028243159875274","0.1","11","30","64","88","-324","23212","-5312","8","150","149.63","111.33","38.29","22.09","63.7","14.88","89976","22.56","DUALSPOT-UV-BLUE-GREEN-RED-IR","803166","714455","910347","0.559911","0.183052","0.000000","900232","912150","838035","0.431436","0.135707","0.000000","881715","888754","834185","0.375777","0.117605","0.000000","897805","889735","891278","0.314766","0.096406","0.000000","779838","902735","960833","0.221092","0.067608","0.000000","29538","28078","29538","28727","26273","28727","28022","25499","28022","28364","25259","28364","27741","24665","27741",""
"MA200-0420","20924","49","1","1.10","1.4","2023-05-03T07:19:29","120","2023/05/03","07:19:29","-15.800426185131073","35.028250662609935","0.0","11","30","64","88","-412","23079","-4883","8","150","150.42","111.90","38.52","22.20","63.6","14.96","89972","22.75","DUALSPOT-UV-BLUE-GREEN-RED-IR","797574","712364","909606","1.171932","0.391345","0.000000","894732","909488","836979","0.909853","0.296938","0.000000","876281","885817","832640","0.798386","0.259572","0.000000","893494","887623","890229","0.668680","0.212531","0.000000","781445","906189","965307","0.471483","0.147715","0.000000","32124","31763","32124","31694","31031","31694","31354","30600","31354","31730","30247","31730","31257","29053","31257",""
"MA200-0420","20925","49","1","1.10","1.4","2023-05-03T07:19:59","120","2023/05/03","07:19:59","-15.800421357154846","35.02825016155839","0.0","11","30","64","88","-368","23172","-5660","8","150","149.82","111.61","38.21","22.29","63.3","14.98","89968","22.88","DUALSPOT-UV-BLUE-GREEN-RED-IR","787213","707511","906550","2.160019","0.741010","0.000000","884969","904090","834326","1.707542","0.580287","0.000000","868479","881903","830980","1.509583","0.508719","0.000000","884929","882460","886863","1.270081","0.422185","0.000000","775621","901885","962114","0.898830","0.295953","0.000000","51998","53750","51998","52983","54973","52983","52903","54134","52903","54060","55048","54060","53487","54195","53487",""
"MA200-0420","20926","49","1","1.10","1.4","2023-05-03T07:20:29","120","2023/05/03","07:20:29","-15.800414025783539","35.02822549268603","0.1","11","30","64","88","-350","23258","-5587","8","150","150.45","111.94","38.51","22.40","63.0","15.00","89964","22.94","DUALSPOT-UV-BLUE-GREEN-RED-IR","782186","704992","904718","2.611135","0.905256","0.000000","887274","908497","839416","2.064669","0.708539","0.000000","869956","885179","834957","1.827067","0.621700","0.000000","889207","888232","893528","1.539008","0.518112","0.000000","778285","906087","967236","1.091629","0.364386","0.000000","23671","25050","23671","23651","24688","23651","23547","24356","23547","24103","24990","24103","24060","24823","24060",""
"MA200-0420","20927","49","1","1.10","1.4","2023-05-03T07:20:59","120","2023/05/03","07:20:59","-15.800410032272339","35.028221825137734","0.0","12","30","64","87","-361","23185","-5491","8","150","153.01","110.70","42.31","22.51","62.7","15.03","89972","23.13","DUALSPOT-UV-BLUE-GREEN-RED-IR","781759","706418","907881","3.038016","1.058334","-0.034445","880654","903551","835803","2.402061","0.829637","0.000000","863357","880011","830946","2.126795","0.728338","0.000000","881499","881897","887871","1.792960","0.607196","0.000000","772438","900254","961549","1.271713","0.425772","0.000000","22649","21251","20503","22593","21218","22593","22478","20925","22478","23015","21124","23015","22724","20268","22724",""
"MA200-0420","20928","49","1","1.10","1.4","2023-05-03T07:21:29","120","2023/05/03","07:21:29","-15.800448298454285","35.02821899205446","0.4","12","30","64","88","-370","23200","-5412","8","150","149.84","111.42","38.41","22.63","62.4","15.07","89964","23.69","DUALSPOT-UV-BLUE-GREEN-RED-IR","778959","705332","907487","3.356681","1.171836","0.014411","878510","902771","835775","2.646064","0.913507","0.000000","861127","879017","830594","2.342146","0.801163","0.000000","880689","882138","888642","1.975229","0.668367","0.000000","776221","905479","967571","1.401987","0.469541","0.000000","16798","17354","17652","16234","16185","16234","16046","15739","16046","16412","15975","16412","16333","15916","16333",""
"MA200-0420","20929","49","1","1.10","1.4","2023-05-03T07:21:59","120","2023/05/03","07:21:59","-15.800442516803741","35.02820232696831","0.0","12","30","64","88","-383","23162","-5254","8","150","150.08","111.34","38.74","22.77","62.0","15.10","89968","24.38","DUALSPOT-UV-BLUE-GREEN-RED-IR","780657","707760","911266","3.577237","1.251745","0.016712","881375","906558","839733","2.810925","0.972718","0.000000","862210","880839","832725","2.488649","0.853270","0.000000","882174","884240","891114","2.099507","0.712719","0.000000","771991","901049","963097","1.495058","0.499274","0.000000","11634","12115","12374","10976","11330","10976","10923","11166","10923","11198","11486","11198","11676","10721","11676",""
"MA200-0420","20930","49","1","1.10","1.4","2023-05-03T07:22:29","120","2023/05/03","07:22:29","-15.800444841384888","35.02820932865143","0.0","12","30","64","87","-388","23148","-5128","8","150","149.94","111.16","38.78","22.94","61.7","15.19","89956","25.06","DUALSPOT-UV-BLUE-GREEN-RED-IR","775233","703730","906749","3.787072","1.330539","0.027766","875270","901196","835198","2.968615","1.027429","0.000000","863271","882713","834855","2.627683","0.901019","0.000000","876936","879678","886873","2.216984","0.750890","0.000000","772275","901853","964221","1.580698","0.528786","0.000000","11087","11932","12390","10516","10457","10516","10384","10221","10384","10603","9874","10603","10762","10629","10762",""
"MA200-0420","20931","49","1","1.10","1.4","2023-05-03T07:22:59","120","2023/05/03","07:22:59","-15.80044549703598","35.02821699343622","0.0","12","30","64","87","-388","23144","-5096","8","150","149.95","111.33","38.62","23.15","61.4","15.31","89972","25.75","DUALSPOT-UV-BLUE-GREEN-RED-IR","773684","702899","906151","3.925420","1.381282","0.020740","880893","907558","841347","3.069860","1.061123","-0.021492","861268","881179","833611","2.717030","0.929594","0.000000","882031","885205","892636","2.293156","0.775721","0.000000","770147","899689","962098","1.636297","0.546912","0.000000","7298","7718","7945","6741","6468","6324","6662","6143","6662","6864","6451","6864","6976","6556","6976",""
"MA200-0420","20932","49","1","1.10","1.4","2023-05-03T07:23:29","120","2023/05/03","07:23:29","-15.800426185131073","35.02822349220514","0.0","13","30","64","87","-392","23164","-5120","8","150","149.32","111.26","38.06","23.36","61.0","15.40","89964","26.38","DUALSPOT-UV-BLUE-GREEN-RED-IR","773665","703674","907736","4.095654","1.446563","0.038467","873831","900977","835639","3.189969","1.104343","0.023029","861963","882524","835219","2.822602","0.965851","0.000000","877327","881001","888697","2.382761","0.807267","0.000000","770783","900905","963586","1.705350","0.568610","0.000000","8987","10074","10667","8003","8418","8637","7878","7908","7878","8080","8315","8080","8670","7964","8670",""
"MA200-0420","20933","49","1","1.10","1.4","2023-05-03T07:23:59","120","2023/05/03","07:23:59","-15.800416886806488","35.0282346624881","0.0","14","30","64","87","-379","23116","-5120","8","150","150.03","111.03","39.00","23.58","60.6","15.52","89960","26.88","DUALSPOT-UV-BLUE-GREEN-RED-IR","773549","704168","908942","4.248054","1.507011","0.039274","874081","901847","836798","3.298718","1.143926","0.015948","861362","882453","835405","2.918565","0.999236","0.000000","876245","880399","888314","2.464835","0.835118","0.000000","769323","899562","962334","1.767805","0.589318","0.000000","8062","9104","9676","7261","7524","7664","7175","7107","7175","7416","7164","7416","7857","7417","7857",""
"MA200-0420","20934","49","1","1.10","1.4","2023-05-03T07:24:29","120","2023/05/03","07:24:29","-15.800394713878632","35.02822166122496","0.0","14","30","64","86","-366","23100","-4941","8","150","149.44","110.92","38.52","23.82","60.2","15.64","89964","27.44","DUALSPOT-UV-BLUE-GREEN-RED-IR","771023","702670","907588","4.413494","1.568204","0.020801","871413","899908","835343","3.421277","1.183933","-0.029513","858666","880390","833765","3.028184","1.035201","-0.030216","873698","878444","886618","2.556772","0.864986","0.000000","771496","902562","965757","1.837083","0.608857","0.000000","8760","9331","9646","8191","7699","7439","8204","7752","7517","8315","7779","8315","8725","7086","8725",""
"MA200-0420","20935","49","1","1.10","1.4","2023-05-03T07:24:59","120","2023/05/03","07:24:59","-15.800400018692017","35.02821716107428","0.0","14","30","64","87","-360","23192","-5224","8","150","149.95","111.73","38.22","24.05","59.9","15.77","89976","27.94","DUALSPOT-UV-BLUE-GREEN-RED-IR","769815","702897","908897","4.699310","1.671573","0.017353","870806","900668","836694","3.639132","1.257140","-0.007644","858056","880941","834855","3.218406","1.097220","-0.023832","874549","880323","889042","2.720728","0.919573","0.000000","771271","903082","966686","1.956760","0.646784","0.000000","15025","15884","16359","14454","14198","14063","14134","13471","13127","14722","14328","14722","14963","13861","14963",""
"MA200-0420","20936","49","1","1.10","1.4","2023-05-03T07:25:29","120","2023/05/03","07:25:29","-15.800394713878632","35.02820782922208","0.0","14","30","64","87","-412","23187","-4950","8","150","149.44","110.70","38.73","24.30","59.6","15.93","89972","28.50","DUALSPOT-UV-BLUE-GREEN-RED-IR","769447","703464","910348","4.934778","1.761293","0.024628","869999","900708","837166","3.816169","1.317370","-0.011567","857050","880698","835021","3.376287","1.149838","-0.022982","873134","879570","888630","2.854925","0.963797","0.000000","769234","901238","965029","2.056417","0.678064","0.000000","12493","13604","14221","11855","11527","11354","11840","11278","10987","12162","11454","12162","12575","11281","12575",""
"MA200-0420","20937","49","1","1.10","1.4","2023-05-03T07:25:59","120","2023/05/03","07:25:59","-15.800417184829712","35.02821199409664","0.1","13","30","64","86","-379","23145","-5070","8","150","149.35","110.93","38.42","24.55","59.2","16.06","89992","29.00","DUALSPOT-UV-BLUE-GREEN-RED-IR","767056","701881","908820","5.083181","1.821537","0.041596","867474","898703","835607","3.922761","1.356441","0.020863","855161","879308","833954","3.468895","1.181846","-0.000922","870937","877828","887098","2.935335","0.991692","0.000000","767172","899223","963002","2.118463","0.696535","0.000000","7857","9209","9964","7123","7538","7758","6931","6916","6908","7272","7284","7272","7813","6715","7813",""
"MA200-0420","20938","49","1","1.10","1.4","2023-05-03T07:26:29","120","2023/05/03","07:26:29","-15.800425350666046","35.02822849340737","0.2","13","30","64","86","-360","23136","-5188","8","150","149.30","111.18","38.12","24.77","58.8","16.17","89988","29.00","DUALSPOT-UV-BLUE-GREEN-RED-IR","763481","699118","905668","5.202903","1.869869","0.041670","871126","902982","839823","4.005063","1.385814","0.014671","850917","875337","830420","3.543413","1.206892","-0.008736","872745","879981","889476","2.998911","1.013377","0.000000","767581","900005","964027","2.170141","0.712316","0.000000","6324","7446","8075","5487","5711","5830","5564","5454","5397","5737","5706","5737","6493","5782","6493",""
"MA200-0420","20939","49","1","1.10","1.4","2023-05-03T07:26:59","120","2023/05/03","07:26:59","-15.800627291202545","35.028419664129615","2.8","13","30","64","86","-336","22340","-8884","8","150","149.74","111.16","38.58","24.98","58.4","16.24","89972","28.81","DUALSPOT-UV-BLUE-GREEN-RED-IR","761521","697870","904535","5.331135","1.919851","0.030256","868632","900913","838191","4.095024","1.419067","0.022101","850550","875445","830750","3.622210","1.235103","0.012614","872642","880286","890002","3.066307","1.037478","0.014288","767174","899892","964044","2.224163","0.728149","0.000000","6775","7609","8078","5999","6389","6596","5885","6071","6167","6082","6267","6361","6789","5733","6789",""
"MA200-0420","20940","49","1","1.10","1.4","2023-05-03T07:27:29","120","2023/05/03","07:27:29","-15.799284756183624","35.02865882962942","7.6","13","30","64","86","-3925","23083","-4925","8","150","150.02","111.16","38.87","25.15","58.0","16.29","90048","28.44","DUALSPOT-UV-BLUE-GREEN-RED-IR","762653","700192","908553","5.624588","2.029466","0.017165","870149","903813","841597","4.324585","1.501805","0.010413","850964","877044","832861","3.825688","1.305395","-0.004859","866846","875409","885628","3.240805","1.097176","-0.010404","767542","901134","965747","2.356542","0.768986","0.000000","15506","16565","17163","15310","15781","16032","15197","15015","14920","15749","15410","15236","16636","14677","16636",""
"MA200-0420","20941","49","1","1.10","1.4","2023-05-03T07:27:59","120","2023/05/03","07:27:59","-15.797950088977814","35.02869999781251","0.0","13","30","64","86","333","23258","-4983","8","150","149.77","111.61","38.16","25.27","57.5","16.28","90088","28.00","DUALSPOT-UV-BLUE-GREEN-RED-IR","756794","695432","902795","5.766201","2.082410","0.022113","864231","898291","836746","4.430247","1.539850","0.016965","850418","877014","833073","3.918260","1.335900","-0.014868","865913","874968","885383","3.323270","1.124951","-0.006975","762715","895855","960286","2.420034","0.785849","0.000000","7452","8148","8541","7018","7390","7588","6886","6636","6507","7412","7301","7244","7946","6172","7946",""
"MA200-0420","20942","49","1","1.10","1.4","2023-05-03T07:28:29","120","2023/05/03","07:28:29","-15.797929048538208","35.03151382878423","15.7","13","30","64","86","1237","22229","-4108","8","150","149.56","111.30","38.27","25.36","57.1","16.25","89972","27.69","DUALSPOT-UV-BLUE-GREEN-RED-IR","760793","699672","908779","5.896339","2.128954","0.010040","861992","896461","835393","4.523391","1.576245","0.038281","848992","875982","832369","3.998571","1.366096","0.031114","871181","880660","891392","3.390617","1.149163","0.019038","766185","900339","965230","2.475834","0.800353","0.000000","6868","7144","7300","6204","7050","7503","5991","6551","6842","6071","6348","6490","7003","5294","7003",""
"MA200-0420","20943","49","1","1.10","1.4","2023-05-03T07:28:59","120","2023/05/03","07:28:59","-15.797038197517395","35.03532599285245","16.5","13","30","64","86","179","23800","-3550","8","150","149.67","111.41","38.26","25.43","56.5","16.16","89952","27.31","DUALSPOT-UV-BLUE-GREEN-RED-IR","755139","695304","903662","6.067680","2.193729","0.022457","862534","897735","836995","4.649895","1.627797","0.047953","849248","876864","833579","4.110074","1.410776","0.049251","865273","875264","886246","3.484801","1.187368","0.061832","761430","895223","959959","2.549120","0.822797","0.000000","9033","9943","10458","8418","9988","10833","8309","9694","10418","8481","10017","10811","9189","8194","9189",""
"MA200-0420","20944","49","1","1.10","1.4","2023-05-03T07:29:29","120","2023/05/03","07:29:29","-15.795504212379456","35.03645432367921","14.1","13","30","64","86","1000","23364","-5356","8","150","150.33","111.80","38.54","25.48","56.1","16.09","90064","27.00","DUALSPOT-UV-BLUE-GREEN-RED-IR","756311","698638","909700","6.465326","2.333492","0.004624","858249","895663","836307","4.965454","1.739151","0.007104","845976","875538","833329","4.386026","1.505976","0.000304","863709","875306","887195","3.715946","1.266758","-0.001456","764768","900477","966238","2.719389","0.875373","0.000000","20891","21302","21535","20924","21421","21689","20492","20510","20519","20742","20669","20631","21275","19059","21275",""
"MA200-0420","20945","49","1","1.10","1.4","2023-05-03T07:29:59","120","2023/05/03","07:29:59","-15.793956398963928","35.03580082580447","3.3","14","30","64","86","1929","23087","-6066","8","150","149.67","111.57","38.10","25.52","55.7","16.01","90000","26.69","DUALSPOT-UV-BLUE-GREEN-RED-IR","747131","696229","910896","7.539966","2.712379","0.006412","850061","893386","837381","5.836404","2.043712","0.006124","837484","872245","832937","5.157209","1.770287","0.001092","855161","871327","885625","4.370104","1.488018","-0.003328","759189","897486","964958","3.203668","1.032905","-0.023458","56573","58413","59447","57869","59263","60014","57385","57599","57710","58823","58267","57980","60635","57763","56396",""
"MA200-0420","20946","49","1","1.10","1.4","2023-05-03T07:30:29","120","2023/05/03","07:30:29","-15.793253004550934","35.03544848784804","5.0","13","30","64","85","3076","23008","-5036","8","150","149.44","111.57","37.87","25.54","55.4","15.95","89936","26.50","DUALSPOT-UV-BLUE-GREEN-RED-IR","729789","686604","903232","9.310469","3.356195","0.010794","839641","889208","837013","7.236612","2.543682","0.010276","828802","869102","833034","6.391744","2.205437","0.008704","846797","867812","884751","5.402674","1.846188","0.006001","753887","894889","964187","3.933521","1.281175","0.000861","93206","99866","103620","93036","97883","100510","91864","95409","97276","92851","94899","95962","91382","91592","91693",""
"MA200-0420","20947","49","1","1.10","1.4","2023-05-03T07:30:59","120","2023/05/03","07:30:59","-15.792287051677704","35.034945990890265","0.0","13","30","64","86","1550","23066","-5383","8","150","149.32","111.30","38.02","25.57","55.1","15.88","89856","26.31","DUALSPOT-UV-BLUE-GREEN-RED-IR","724233","686407","906887","10.490204","3.791347","0.010580","835205","889817","840390","8.179265","2.885068","0.010388","820411","864899","831461","7.226610","2.503085","0.008656","846213","871178","890384","6.106436","2.092397","0.005786","748821","891841","962563","4.437177","1.452225","-0.001984","62260","67223","70032","62789","66563","68619","62278","64994","66434","63441","64968","65764","63217","62846","62666",""
"MA200-0420","20948","49","1","1.10","1.4","2023-05-03T07:31:29","120","2023/05/03","07:31:29","-15.791708052158356","35.03474582731724","2.6","12","30","64","86","129","22904","-5508","8","150","149.84","111.95","37.89","25.59","54.8","15.81","89836","26.19","DUALSPOT-UV-BLUE-GREEN-RED-IR","716112","682393","904431","11.379103","4.120935","0.011457","827289","885236","838161","8.894424","3.145296","0.011719","818110","865878","834233","7.861241","2.729863","0.010034","839254","866884","887631","6.645746","2.282931","0.009441","748804","894095","966222","4.833956","1.586309","-0.000444","46637","51097","53629","47358","50919","52868","47065","49695","51095","48332","50456","51567","49511","49440","49405",""
"MA200-0420","20949","49","1","1.10","1.4","2023-05-03T07:31:59","120","2023/05/03","07:31:59","-15.79077410697937","35.036426823586226","9.4","13","30","64","86","2800","22816","-9258","8","150","150.15","111.88","38.27","25.61","54.6","15.78","89804","26.06","DUALSPOT-UV-BLUE-GREEN-RED-IR","719096","685827","909323","11.601976","4.195226","-0.003599","824548","882892","836197","9.066250","3.202676","-0.004211","815587","863727","832337","8.014469","2.778226","-0.016753","841567","869764","890698","6.774215","2.322158","-0.028842","745650","890691","962617","4.928613","1.612408","-0.082211","11701","11401","11232","11385","11115","10967","11371","10491","10025","11520","10283","9637","11819","9526","8411",""
"MA200-0420","20950","49","1","1.10","1.4","2023-05-03T07:32:29","120","2023/05/03","07:32:29","-15.788895845413208","35.03605515509844","8.3","12","30","64","85","2620","23087","-5745","8","150","149.54","111.71","37.83","25.63","54.4","15.76","89684","26.00","DUALSPOT-UV-BLUE-GREEN-RED-IR","714825","682303","904909","11.706827","4.222687","-0.046946","825568","884496","837888","9.143509","3.222746","-0.061487","816852","865536","834208","8.080349","2.793568","-0.113093","837958","866387","887372","6.827467","2.334196","-0.149625","747760","893551","965776","4.971708","1.617665","-3.700951","5513","4263","3557","5127","3932","3281","4896","3366","2558","4782","3192","2365","5389","1940","277",""
"MA200-0420","20951","49","1","1.10","1.4","2023-05-03T07:32:59","120","2023/05/03","07:32:59","-15.787581622600555","35.03585849329829","4.0","12","30","64","86","1044","23196","-5680","8","150","149.61","111.72","37.89","25.64","54.3","15.72","89624","25.94","DUALSPOT-UV-BLUE-GREEN-RED-IR","714425","682321","905168","11.791861","4.249153","-0.012537","825534","884794","838315","9.202754","3.240544","-0.023284","811812","860414","829390","8.129891","2.807706","-0.039345","838412","867083","888182","6.867223","2.344525","-0.080253","747640","893629","965916","5.002966","1.623244","-0.469257","4470","4102","3894","3931","3481","3237","3681","3097","2789","3570","2734","2301","3908","2056","1167",""
"MA200-0420","20952","49","1","1.10","1.4","2023-05-03T07:33:29","120","2023/05/03","07:33:29","-15.786926627159119","35.0343513302505","5.9","12","30","64","86","-1408","23224","-5716","8","150","150.15","111.82","38.33","25.67","54.1","15.70","89736","25.88","DUALSPOT-UV-BLUE-GREEN-RED-IR","713898","682078","905007","11.857571","4.270534","-0.007253","825344","884830","838478","9.249378","3.256285","-0.002560","815407","864483","833408","8.168260","2.818560","-0.044533","842781","871786","893058","6.898884","2.353744","-0.042916","745992","891846","964041","5.029260","1.628231","-0.386922","3451","3276","3178","3091","3044","3019","2848","2351","2088","2840","2413","2191","3284","1817","1115",""
"MA200-0420","20953","49","1","1.10","1.4","2023-05-03T07:33:59","120","2023/05/03","07:33:59","-15.786606252193451","35.03306766599417","4.1","11","30","64","85","1284","23628","-6180","8","150","150.15","111.73","38.42","25.68","54.0","15.67","89840","25.81","DUALSPOT-UV-BLUE-GREEN-RED-IR","716509","684876","908900","11.919436","4.290304","-0.010403","822328","881890","835815","9.292111","3.269559","-0.018846","813546","862720","831791","8.205097","2.828640","-0.055186","839657","868725","890002","6.929305","2.362391","-0.051527","743611","889170","961173","5.053850","1.632793","-0.420863","3252","3022","2893","2835","2561","2412","2737","2178","1884","2731","2257","2012","3074","1658","983",""
"MA200-0420","20954","49","1","1.10","1.4","2023-05-03T07:34:29","120","2023/05/03","07:34:29","-15.786064684391022","35.032181829214096","4.4","12","30","64","85","3100","23166","-4541","8","150","150.64","112.02","38.62","25.71","53.9","15.66","89900","25.81","DUALSPOT-UV-BLUE-GREEN-RED-IR","715879","685091","909787","12.091900","4.350136","0.000807","822063","882373","836660","9.423465","3.314060","-0.002907","812814","862606","832023","8.319385","2.867686","-0.001669","839326","869001","890561","7.022773","2.392266","-0.017684","748627","895640","968414","5.124424","1.653310","-0.058745","9042","9099","9131","8692","8542","8460","8470","8394","8354","8370","7761","7446","8800","7421","6764",""
"MA200-0420","20955","49","1","1.10","1.4","2023-05-03T07:34:59","120","2023/05/03","07:34:59","-15.785979092121124","35.03298116102815","4.1","11","30","64","85","2176","22668","-8015","8","150","149.75","111.57","38.18","25.72","53.7","15.63","89816","25.75","DUALSPOT-UV-BLUE-GREEN-RED-IR","714522","684124","908716","12.175272","4.376753","-0.009593","820671","881194","835678","9.482233","3.332794","-0.012435","811164","861146","830694","8.368753","2.880818","-0.061439","837417","867250","888862","7.064542","2.404398","-0.042095","747295","894239","966947","5.156500","1.660516","-0.199114","4389","4095","3930","3904","3637","3492","3673","2855","2426","3755","3188","2895","4016","2636","1981",""
"MA200-0420","20956","49","1","1.10","1.4","2023-05-03T07:35:29","120","2023/05/03","07:35:29","-15.786095798015594","35.03397449105978","2.3","11","30","64","85","2948","22532","-6392","8","150","150.02","111.77","38.25","25.74","53.7","15.63","89724","25.69","DUALSPOT-UV-BLUE-GREEN-RED-IR","712765","682773","907071","12.241055","4.396723","-0.017466","825090","886233","840553","9.526001","3.346127","-0.021372","810612","860813","830482","8.407203","2.891785","-0.040443","837102","867084","888794","7.094077","2.413097","-0.037712","746775","893812","966482","5.180847","1.663917","-1.311873","3456","3066","2848","2902","2584","2411","2856","2380","2131","2651","2281","2091","3043","1242","390",""
"MA200-0420","20957","49","1","1.10","1.4","2023-05-03T07:35:59","120","2023/05/03","07:35:59","-15.786414444446564","35.03484232723713","4.4","11","30","64","85","2291","-26850","3000","8","150","150.28","111.85","38.43","25.77","53.6","15.63","89656","25.75","DUALSPOT-UV-BLUE-GREEN-RED-IR","712166","682513","906922","12.308414","4.414797","-0.042146","824448","885884","840331","9.576009","3.358554","-0.077562","814407","865167","834745","8.449112","2.901059","-0.140065","836099","866310","888027","7.129419","2.419329","-0.392779","745634","892628","965312","5.209219","1.670943","-0.134039","3537","2762","2329","3314","2397","1901","3110","2003","1424","3170","1626","834","3543","2553","2086",""
"MA200-0420","20958","49","1","1.10","1.4","2023-05-03T07:36:29","120","2023/05/03","07:36:29","-15.786768555641174","35.03577698767185","2.4","11","30","64","85","4055","-26136","4400","8","150","150.27","111.65","38.62","25.79","53.5","15.64","89612","25.69","DUALSPOT-UV-BLUE-GREEN-RED-IR","710886","681630","906007","12.385265","4.442278","0.004025","823375","885060","839695","9.629882","3.376001","-0.011333","813473","864388","834124","8.494289","2.914679","-0.028654","834631","865036","886838","7.167395","2.429899","-0.058566","744845","891879","964537","5.236967","1.678356","-0.096281","4043","4179","4255","3577","3348","3225","3359","2927","2701","3412","2745","2403","3471","2681","2308",""
"MA200-0420","20959","49","1","1.10","1.4","2023-05-03T07:36:59","120","2023/05/03","07:36:59","-15.785951435565948","35.03620099276304","2.5","11","30","64","85","995","-26066","5100","8","150","149.56","111.45","38.11","25.81","53.5","15.66","89604","25.63","DUALSPOT-UV-BLUE-GREEN-RED-IR","709387","680598","904873","12.469109","4.470171","-0.003525","821652","883535","838416","9.689137","3.395837","-0.003433","812693","863906","833784","8.544307","2.929681","-0.026884","840231","871093","893144","7.207869","2.442035","-0.031720","743612","890627","963247","5.267475","1.684829","-0.239568","4418","4299","4232","3941","3858","3814","3725","3268","3029","3643","3195","2965","3823","2372","1690",""
"MA200-0420","20960","49","1","1.10","1.4","2023-05-03T07:37:29","120","2023/05/03","07:37:29","-15.7851482629776","35.03539698943496","3.2","11","30","64","85","-1383","-27195","1916","8","150","150.34","111.49","38.85","25.83","53.4","15.64","89668","25.63","DUALSPOT-UV-BLUE-GREEN-RED-IR","708512","680096","904490","12.551580","4.501219","0.008875","820562","882704","837815","9.746307","3.416180","0.003237","812077","863508","833529","8.593957","2.946639","-0.003620","839894","870926","893105","7.247877","2.455077","-0.014913","743278","890411","963113","5.298284","1.693570","-0.070907","4344","4694","4889","3801","3881","3925","3697","3623","3585","3600","3367","3249","3860","3143","2806",""
"MA200-0420","20961","49","1","1.10","1.4","2023-05-03T07:37:59","120","2023/05/03","07:37:59","-15.784622430801392","35.034925658255816","1.9","12","30","64","85","1995","-26862","1933","8","150","149.81","111.32","38.48","25.84","53.4","15.65","89736","25.56","DUALSPOT-UV-BLUE-GREEN-RED-IR","712894","684730","911005","12.648935","4.535484","0.002179","819592","882070","837362","9.811148","3.436512","-0.017008","810986","862699","832902","8.646961","2.961433","-0.047905","838387","869679","891925","7.293062","2.469917","-0.011178","742047","889182","961866","5.332243","1.699954","-0.380182","5136","5229","5282","4317","3916","3700","3952","3191","2795","4072","3869","3765","4261","2317","1407",""
"MA200-0420","20962","49","1","1.10","1.4","2023-05-03T07:38:29","120","2023/05/03","07:38:29","-15.78389686346054","35.03496949374676","3.1","12","30","64","85","-2154","-26754","3225","8","150","150.08","111.57","38.51","25.89","53.3","15.67","89780","25.56","DUALSPOT-UV-BLUE-GREEN-RED-IR","711968","684227","910634","12.740685","4.569004","0.006566","818889","881635","837123","9.871423","3.458327","0.007059","810483","862422","832793","8.700582","2.980155","0.002000","837671","869185","891569","7.335072","2.482400","-0.036280","746867","895180","968440","5.364712","1.707768","-0.148893","4830","5112","5271","4004","4199","4304","3990","4036","4060","3777","3252","2983","4065","2834","2260",""
"MA200-0420","20963","49","1","1.10","1.4","2023-05-03T07:38:59","120","2023/05/03","07:38:59","-15.784662425518036","35.03401283174753","5.2","11","30","64","85","2654","-26785","1782","8","150","149.74","111.78","37.96","25.92","53.2","15.68","89760","25.56","DUALSPOT-UV-BLUE-GREEN-RED-IR","711729","684381","911072","12.822435","4.598448","0.006731","818740","881787","837459","9.929382","3.478301","0.002240","810119","862335","832804","8.748484","2.995622","-0.009235","836965","868711","891170","7.376553","2.496695","0.002955","746216","894613","967884","5.397079","1.715660","-0.130553","4295","4555","4701","3843","3900","3931","3557","3382","3291","3723","3778","3806","4045","2904","2373",""
"MA200-0420","20964","49","1","1.10","1.4","2023-05-03T07:39:29","120","2023/05/03","07:39:29","-15.78534734249115","35.03369865939021","2.1","11","30","64","85","5087","-26637","2954","8","150","150.62","111.94","38.68","25.95","53.2","15.71","89748","25.56","DUALSPOT-UV-BLUE-GREEN-RED-IR","710728","683816","910645","12.910402","4.627098","-0.007613","817074","880416","836305","9.991852","3.497708","-0.018395","809471","862018","832642","8.802673","3.011280","-0.037647","837380","869415","892029","7.420984","2.509316","-0.049533","741239","888905","961745","5.429991","1.722588","-0.246546","4615","4350","4202","4136","3719","3494","4018","3360","3018","3982","3273","2911","4107","2501","1756",""
"MA200-0420","20965","49","1","1.10","1.4","2023-05-03T07:39:59","120","2023/05/03","07:39:59","-15.785465657711029","35.034353490918875","5.4","11","30","64","84","4733","-26908","1520","8","150","149.56","111.53","38.03","25.95","53.3","15.72","89668","25.63","DUALSPOT-UV-BLUE-GREEN-RED-IR","708410","682214","908906","13.047766","4.674761","0.002051","815202","878958","835159","10.087145","3.526485","-0.021141","807707","860616","831490","8.885542","3.034031","-0.047274","835543","867941","890675","7.491886","2.528470","-0.060948","744567","893278","966585","5.484848","1.732865","-0.351706","7233","7361","7432","6333","5609","5220","6168","4966","4343","6377","5053","4378","6870","3775","2345",""
"MA200-0420","20966","49","1","1.10","1.4","2023-05-03T07:40:29","120","2023/05/03","07:40:29","-15.785796880722046","35.035631991922855","4.2","11","30","64","85","3358","-26541","2950","8","150","149.84","111.19","38.64","25.95","53.3","15.71","89624","25.56","DUALSPOT-UV-BLUE-GREEN-RED-IR","709116","683345","910776","13.145424","4.710642","0.006233","816187","880421","836771","10.150641","3.548223","-0.002305","808346","861655","832655","8.939376","3.052384","-0.003328","836423","869154","892078","7.536241","2.542796","-0.015828","745356","894442","967959","5.517704","1.742309","-0.061283","5158","5454","5618","4233","4170","4136","4019","3943","3903","4002","3719","3575","4127","3414","3084",""
"MA200-0420","20967","49","1","1.10","1.4","2023-05-03T07:40:59","120","2023/05/03","07:40:59","-15.78592699766159","35.036288660019636","2.1","11","30","64","84","2704","-26487","3445","8","150","149.86","111.66","38.20","25.96","53.2","15.72","89608","25.63","DUALSPOT-UV-BLUE-GREEN-RED-IR","707096","681973","909375","13.288939","4.763279","0.007595","814544","879155","835824","10.245927","3.581643","0.003634","806254","859845","831097","9.020760","3.078383","-0.012393","833870","866848","889882","7.600917","2.562593","-0.024850","743391","892373","965821","5.562370","1.752772","-0.153410","7549","8093","8396","6326","6485","6570","6051","5650","5442","5811","5199","4888","5588","3825","3015",""
"MA200-0420","20968","49","1","1.10","1.4","2023-05-03T07:41:29","120","2023/05/03","07:41:29","-15.785240828990936","35.0370478220284","3.1","13","30","64","84","554","-26887","2529","8","150","150.08","111.69","38.39","25.96","53.2","15.72","89632","25.63","DUALSPOT-UV-BLUE-GREEN-RED-IR","702147","677593","903812","13.383177","4.796724","0.003602","815397","880440","837239","10.310039","3.603434","-0.001693","807524","861537","832887","9.075097","3.096062","-0.009735","829234","862286","885295","7.644721","2.576312","-0.020252","744990","894486","968210","5.595670","1.760978","-0.125764","4955","5116","5206","4255","4207","4182","4039","3823","3711","3934","3585","3407","4165","2986","2444",""
"MA200-0420","20969","49","1","1.10","1.4","2023-05-03T07:41:59","120","2023/05/03","07:41:59","-15.784720838069916","35.03759499266744","0.4","13","30","64","85","2528","-26424","304","8","150","149.41","110.91","38.50","25.96","53.2","15.70","89600","25.63","DUALSPOT-UV-BLUE-GREEN-RED-IR","702572","678399","905179","13.468094","4.828357","0.007610","815416","880765","837736","10.369391","3.625232","0.007908","807500","861769","833247","9.124164","3.112685","-0.004123","836395","869973","893310","7.686178","2.590632","-0.000952","740189","888934","962254","5.625429","1.768771","-0.099182","4497","4826","5010","3967","4197","4321","3672","3585","3539","3750","3732","3722","3748","2827","2405",""
"MA200-0420","20970","49","1","1.10","1.4","2023-05-03T07:42:29","120","2023/05/03","07:42:29","-15.784909904003143","35.03744748979807","4.3","13","30","64","84","120","-26595","2650","8","150","150.52","111.46","39.06","25.98","53.2","15.71","89608","25.63","DUALSPOT-UV-BLUE-GREEN-RED-IR","702160","678299","905311","13.545416","4.855987","0.002189","816166","881945","838948","10.422873","3.641945","-0.019166","806643","861144","832749","9.171432","3.128248","-0.011035","835651","869406","892837","7.724392","2.602567","-0.025432","744382","894178","967991","5.654840","1.775881","-0.145997","4074","4154","4199","3557","3171","2964","3520","3307","3197","3439","3065","2874","3686","2542","2019",""
"MA200-0420","20971","49","1","1.10","1.4","2023-05-03T07:42:59","120","2023/05/03","07:42:59","-15.784823656082153","35.03680149465799","2.6","13","30","64","84","660","-26416","2272","8","150","149.32","111.06","38.26","26.03","53.2","15.76","89684","25.63","DUALSPOT-UV-BLUE-GREEN-RED-IR","701517","678035","905200","13.622931","4.882690","0.000001","815067","881067","838303","10.477610","3.659796","-0.008510","807139","861951","833662","9.217344","3.141695","-0.031906","829329","863097","886482","7.763895","2.613071","-0.067489","740076","889174","962672","5.683767","1.782968","-0.127882","4099","4099","4099","3653","3459","3354","3432","2918","2652","3568","2754","2341","3638","2587","2107",""
"MA200-0420","20972","49","1","1.10","1.4","2023-05-03T07:43:29","120","2023/05/03","07:43:29","-15.784445822238922","35.036409828811884","3.4","13","30","64","84","940","-25460","4620","8","150","149.63","111.77","37.86","26.05","53.2","15.78","89724","25.63","DUALSPOT-UV-BLUE-GREEN-RED-IR","701899","678752","906432","13.705591","4.913248","0.009102","815935","882357","839673","10.534511","3.678978","-0.000701","806395","861443","833324","9.268216","3.159439","0.004669","835789","870036","893724","7.804228","2.626258","-0.007073","744239","894396","968377","5.715763","1.790982","-0.106908","4343","4741","4963","3774","3756","3746","3778","3891","3949","3620","3494","3431","3999","2957","2482",""
"MA200-0420","20973","49","1","1.10","1.4","2023-05-03T07:43:59","120","2023/05/03","07:43:59","-15.783889412879944","35.03583949431777","2.8","13","30","64","84","1004","-26525","3904","8","150","150.47","111.41","39.06","26.07","53.2","15.79","89772","25.69","DUALSPOT-UV-BLUE-GREEN-RED-IR","701516","678717","906666","13.782719","4.943767","0.012129","816097","882817","840266","10.587687","3.699219","0.011002","806360","861665","833667","9.314185","3.174203","-0.015650","828999","863161","886782","7.841403","2.638662","-0.009985","739593","889024","962637","5.744100","1.798854","-0.075411","4066","4589","4882","3538","3841","4004","3425","3138","2989","3347","3186","3104","3553","2815","2479",""
"MA200-0420","20974","49","1","1.10","1.4","2023-05-03T07:44:29","120","2023/05/03","07:44:29","-15.783679068088531","35.035599157214165","1.2","13","30","64","84","1145","-25754","6791","8","150","149.72","111.48","38.23","26.09","53.2","15.82","89792","25.69","DUALSPOT-UV-BLUE-GREEN-RED-IR","700308","677985","906007","13.880760","4.977072","-0.001078","814518","881505","839217","10.652793","3.719819","-0.012668","805659","861230","833387","9.367585","3.191429","-0.010563","827729","862152","885830","7.887201","2.652685","-0.024419","738614","888048","961650","5.775196","1.806097","-0.151632","5165","5116","5089","4329","3994","3814","3976","3740","3618","4121","3679","3455","3896","2646","2077",""
"MA200-0420","20975","49","1","1.10","1.4","2023-05-03T07:44:59","120","2023/05/03","07:44:59","-15.783478319644928","35.03540249168873","1.6","13","30","64","84","-220","-26175","5383","8","150","149.76","111.18","38.58","26.11","53.2","15.84","89820","25.75","DUALSPOT-UV-BLUE-GREEN-RED-IR","701997","679948","908870","13.960249","5.006723","0.007498","816421","883884","841638","10.707877","3.738397","-0.004202","802405","858051","830416","9.416523","3.206867","-0.016988","830295","865076","888976","7.927024","2.665803","-0.010432","740686","890737","964651","5.807363","1.814526","-0.095227","4199","4514","4690","3673","3570","3514","3654","3322","3150","3593","3411","3319","4041","3052","2602",""
"MA200-0420","20976","49","1","1.10","1.4","2023-05-03T07:45:29","120","2023/05/03","07:45:29","-15.782790720462799","35.03600515797734","5.2","13","30","64","84","2670","-27316","2245","8","150","149.84","111.68","38.15","26.15","53.2","15.86","89868","25.75","DUALSPOT-UV-BLUE-GREEN-RED-IR","701874","680123","909406","14.036125","5.036649","0.013843","810602","877889","836084","10.761098","3.757143","0.004241","802156","858064","830560","9.463029","3.221291","-0.017131","830538","865540","889551","7.965712","2.678200","-0.012915","740084","890223","964133","5.834686","1.821032","-0.134859","3990","4607","4952","3532","3642","3701","3457","3139","2974","3475","3260","3151","3417","2382","1912",""
"MA200-0420","20977","49","1","1.10","1.4","2023-05-03T07:45:59","120","2023/05/03","07:45:59","-15.782206654548645","35.036611661314964","3.4","13","30","64","84","3323","-27019","1176","8","150","149.94","111.45","38.49","26.17","53.1","15.86","89820","25.81","DUALSPOT-UV-BLUE-GREEN-RED-IR","700568","679172","908383","14.110012","5.064676","0.009412","808944","876336","834778","10.812895","3.777808","0.017798","806471","862897","835377","9.507989","3.238952","0.018122","829090","864238","888317","8.001389","2.690673","0.002241","739372","889529","963432","5.862365","1.828612","-0.073468","3894","4276","4490","3445","3979","4266","3349","3808","4046","3211","3250","3270","3469","2750","2425",""
"MA200-0420","20978","49","1","1.10","1.4","2023-05-03T07:46:29","120","2023/05/03","07:46:29","-15.781939327716827","35.036904823035","2.4","13","30","64","84","6260","-26919","1680","8","150","150.00","111.62","38.38","26.20","53.0","15.86","89808","25.81","DUALSPOT-UV-BLUE-GREEN-RED-IR","702131","681028","911113","14.185831","5.092037","0.005056","810437","878308","836795","10.865310","3.794169","-0.015186","802611","859086","831793","9.553228","3.253239","-0.014763","831795","867273","891543","8.039800","2.702963","-0.014534","741017","891739","965912","5.892147","1.835430","-0.160136","3989","4187","4298","3481","3160","2988","3364","3090","2949","3452","3212","3091","3727","2481","1917",""
"MA200-0420","20979","49","1","1.10","1.4","2023-05-03T07:46:59","120","2023/05/03","07:46:59","-15.782340466976166","35.037278328090906","2.7","13","30","64","84","4491","-26279","2433","8","150","150.15","111.34","38.80","26.22","53.0","15.88","89752","25.81","DUALSPOT-UV-BLUE-GREEN-RED-IR","696775","676147","904792","14.258675","5.118465","0.004226","810986","879177","837749","10.917334","3.812802","0.003746","802292","858966","831811","9.598945","3.267228","-0.023621","831536","867221","891607","8.077409","2.715156","-0.014505","740750","891603","965795","5.919500","1.841511","-0.187061","3842","4000","4089","3463","3559","3611","3408","2993","2778","3388","3152","3033","3431","2189","1628",""
"MA200-0420","20980","49","1","1.10","1.4","2023-05-03T07:47:29","120","2023/05/03","07:47:29","-15.782754957675934","35.036824487149715","1.7","13","30","64","83","845","-26100","2816","8","150","149.44","110.70","38.73","26.24","53.0","15.90","89776","25.88","DUALSPOT-UV-BLUE-GREEN-RED-IR","695176","674900","903363","14.331791","5.145431","0.005427","809111","877484","836290","10.970297","3.829240","-0.019134","801486","858340","831330","9.643013","3.280729","-0.024109","830499","866381","890837","8.114938","2.724973","-0.075537","739982","890840","965103","5.947803","1.850448","-0.027744","3879","4089","4206","3546","3146","2931","3304","2893","2681","3401","2542","2108","3571","3223","3065",""
"MA200-0420","20981","49","1","1.10","1.4","2023-05-03T07:47:59","120","2023/05/03","07:47:59","-15.783388376235962","35.036646988242865","3.0","13","30","64","84","3204","-27383","3250","8","150","149.37","111.48","37.89","26.27","53.0","15.94","89784","25.88","DUALSPOT-UV-BLUE-GREEN-RED-IR","697310","677335","906934","14.412821","5.175537","0.008817","811015","879836","838705","11.025321","3.849328","0.009284","802958","860207","833291","9.692433","3.297216","-0.002947","825842","861728","886185","8.155658","2.739487","0.008394","741273","892560","967057","5.977876","1.857500","-0.136745","4269","4667","4890","3658","3930","4076","3680","3612","3578","3664","3843","3933","3768","2600","2073",""
"MA200-0420","20982","49","1","1.10","1.4","2023-05-03T07:48:29","120","2023/05/03","07:48:29","-15.783819377422333","35.036755822598934","1.3","13","30","64","84","4724","-27368","2596","8","150","149.96","111.72","38.24","26.28","53.0","15.93","89744","25.88","DUALSPOT-UV-BLUE-GREEN-RED-IR","696330","676719","906399","14.496893","5.208427","0.012591","811341","880512","839553","11.085495","3.872860","0.016220","802171","859677","832906","9.743968","3.315699","0.006951","831491","867879","892651","8.198236","2.753757","-0.003932","736271","886765","960848","6.009586","1.866606","-0.050655","4419","5052","5406","3992","4562","4868","3829","4013","4107","3823","3744","3704","3964","3327","3039",""
"MA200-0420","20983","49","1","1.10","1.4","2023-05-03T07:48:59","120","2023/05/03","07:48:59","-15.784147500991821","35.03705832734704","1.6","13","30","64","84","5480","-25984","3192","8","150","149.87","111.24","38.63","26.31","53.0","15.95","89688","25.88","DUALSPOT-UV-BLUE-GREEN-RED-IR","695628","676381","906270","14.582745","5.241207","0.009212","810023","879443","838718","11.147346","3.895384","0.006238","802147","859920","833289","9.796645","3.334850","0.006767","825385","861751","886466","8.241549","2.768654","-0.001785","740987","892649","967305","6.041858","1.876035","-0.049498","4533","4983","5236","4121","4322","4429","3931","4115","4210","3906","3868","3849","4052","3409","3119",""
"MA200-0420","20984","49","1","1.10","1.4","2023-05-03T07:49:29","120","2023/05/03","07:49:29","-15.784680247306824","35.03761348873377","1.3","14","30","64","84","2954","-26137","4791","8","150","149.82","111.30","38.53","26.32","52.8","15.91","89608","25.88","DUALSPOT-UV-BLUE-GREEN-RED-IR","694924","676061","906131","14.666838","5.275217","0.014193","810045","879780","839220","11.207457","3.920228","0.020497","801964","859999","833545","9.847429","3.355467","0.021090","825336","861911","886764","8.284625","2.784314","0.008489","736175","887035","961296","6.071924","1.885505","-0.024751","4438","5185","5604","4003","4780","5198","3788","4442","4781","3883","4078","4176","3773","3433","3280",""
"MA200-0420","20985","49","1","1.10","1.4","2023-05-03T07:49:59","120","2023/05/03","07:49:59","-15.783787429332733","35.03825832530856","4.7","13","30","64","84","1316","-26996","2328","8","150","149.87","111.03","38.84","26.33","52.7","15.90","89568","25.88","DUALSPOT-UV-BLUE-GREEN-RED-IR","694042","675577","905783","14.756054","5.308435","0.006194","809477","879527","839182","11.269903","3.943020","0.005557","801340","859652","833381","9.902801","3.375178","0.002633","824737","861591","886593","8.330562","2.800933","0.005885","740316","892237","967065","6.104450","1.894908","-0.055091","4719","5023","5194","4169","4350","4447","4140","4213","4251","4150","4292","4364","4092","3382","3062",""
"MA200-0420","20986","49","1","1.10","1.4","2023-05-03T07:50:29","120","2023/05/03","07:50:29","-15.78260713815689","35.03836816176772","4.6","13","30","64","84","1156","-26600","3480","8","150","150.08","111.65","38.43","26.34","52.6","15.87","89628","25.88","DUALSPOT-UV-BLUE-GREEN-RED-IR","693647","675596","906107","14.847740","5.342674","0.007887","808388","878667","838595","11.334861","3.966147","0.004425","800669","859217","833106","9.956739","3.393828","0.000687","824184","861224","886353","8.374881","2.816156","-0.000379","739855","891881","966755","6.138866","1.904394","-0.066196","4823","5232","5463","4313","4461","4540","4010","4029","4038","3982","3974","3969","4306","3447","3061",""
"MA200-0420","20987","49","1","1.10","1.4","2023-05-03T07:50:59","120","2023/05/03","07:50:59","-15.78171569108963","35.03823632374406","2.9","12","30","64","83","955","-26747","1692","8","150","150.28","111.22","39.06","26.36","52.4","15.84","89700","25.81","DUALSPOT-UV-BLUE-GREEN-RED-IR","691131","673443","903494","14.927359","5.374468","0.011811","806075","876418","836654","11.390395","3.990180","0.023112","798345","856977","831091","10.005831","3.413612","0.018270","827001","864381","889719","8.413757","2.829591","-0.002948","737538","889259","963979","6.164753","1.912845","-0.018447","4204","4780","5104","3701","4561","5024","3664","4204","4484","3506","3450","3422","3251","3022","2919",""
"MA200-0420","20988","49","1","1.10","1.4","2023-05-03T07:51:29","120","2023/05/03","07:51:29","-15.78054803609848","35.03842732682824","6.3","12","30","64","83","1652","-26575","1627","8","150","149.50","111.18","38.32","26.36","52.3","15.81","89700","25.88","DUALSPOT-UV-BLUE-GREEN-RED-IR","691689","674288","904841","14.996710","5.398779","0.001724","806877","877587","837916","11.440093","4.007089","-0.001771","799076","857965","832157","10.047397","3.426725","-0.014696","822759","860159","885409","8.447490","2.840486","-0.012399","738857","891012","965943","6.188549","1.918751","-0.110336","3663","3726","3761","3313","3270","3247","3103","2840","2704","3043","2852","2755","2989","2152","1776",""
"MA200-0420","20989","49","1","1.10","1.4","2023-05-03T07:51:59","120","2023/05/03","07:51:59","-15.779578626155853","35.03843116015196","1.8","12","30","64","83","-2404","-27541","2645","8","150","149.56","111.06","38.50","26.37","52.1","15.75","89756","25.81","DUALSPOT-UV-BLUE-GREEN-RED-IR","691673","674491","905379","15.057632","5.424921","0.017993","807094","878030","838434","11.481544","4.024822","0.023066","798830","857918","832250","10.083964","3.442061","0.023951","828335","866141","891724","8.478310","2.853225","0.026497","738422","890610","965573","6.211071","1.926440","-0.003655","3222","3988","4419","2766","3414","3763","2733","3306","3604","2784","3319","3590","2832","2789","2770",""
"MA200-0420","20990","49","1","1.10","1.4","2023-05-03T07:52:29","120","2023/05/03","07:52:29","-15.779975712299347","35.03759365528822","2.6","12","30","64","84","2083","-26987","3291","8","150","149.71","111.08","38.63","26.38","51.9","15.71","89832","25.81","DUALSPOT-UV-BLUE-GREEN-RED-IR","690744","673862","904722","15.125418","5.450783","0.008711","806427","877544","838167","11.528215","4.042744","0.012001","802697","862281","836604","10.122806","3.457051","0.014115","827449","865388","891042","8.510921","2.864663","0.001497","737540","889675","964671","6.233392","1.934350","0.004287","3584","3932","4128","3114","3439","3614","2903","3221","3387","2945","2970","2983","2807","2860","2884",""
"MA200-0420","20991","49","1","1.10","1.4","2023-05-03T07:52:59","120","2023/05/03","07:52:59","-15.781083524227142","35.036901991814375","3.9","12","30","64","84","4512","-26075","4656","8","150","149.82","111.06","38.76","26.39","51.9","15.72","89876","25.81","DUALSPOT-UV-BLUE-GREEN-RED-IR","694970","678281","910856","15.183378","5.470358","-0.003511","805227","876531","837268","11.570744","4.054784","-0.035434","797376","856815","831385","10.159624","3.466355","-0.070957","827111","865269","890995","8.541143","2.872433","-0.077060","737458","889750","964788","6.255211","1.939781","-0.113747","3065","2966","2910","2838","2302","2013","2752","1992","1599","2730","2011","1646","2744","1957","1603",""
"MA200-0420","20992","49","1","1.10","1.4","2023-05-03T07:53:29","120","2023/05/03","07:53:29","-15.78173965215683","35.03675299137831","2.4","12","30","64","83","1045","-26604","2500","8","150","149.67","111.03","38.64","26.39","51.9","15.72","89840","25.81","DUALSPOT-UV-BLUE-GREEN-RED-IR","689840","673608","904772","15.255966","5.490207","-0.032945","804538","876138","836986","11.621016","4.063165","-0.346290","797521","857266","831876","10.203218","3.472972","-0.577027","827408","865838","891587","8.575434","2.873476","0.429691","737384","889800","964914","6.280287","1.946320","-0.090762","3839","3017","2555","3356","1608","668","3259","1421","473","3098","270","-1154","3154","2364","2009",""
"MA200-0420","20993","49","1","1.10","1.4","2023-05-03T07:53:59","120","2023/05/03","07:53:59","-15.782341718673706","35.03735198825598","0.3","12","30","64","83","1540","-26819","3332","8","150","149.73","111.17","38.56","26.39","51.8","15.70","89752","25.81","DUALSPOT-UV-BLUE-GREEN-RED-IR","692555","676554","908983","15.327778","5.517578","0.008740","802568","874245","835341","11.672901","4.084241","0.017863","795359","855160","829993","10.248039","3.489577","0.009160","824171","862620","888416","8.612678","2.888883","0.026109","735218","887383","962332","6.308605","1.953352","-0.110807","3794","4169","4380","3459","4052","4371","3347","3575","3693","3361","4009","4336","3558","2547","2094",""
"MA200-0420","20994","49","1","1.10","1.4","2023-05-03T07:54:29","120","2023/05/03","07:54:29","-15.782645225524902","35.03769798949361","1.8","13","30","64","83","4212","-26472","1911","8","150","150.45","111.28","39.16","26.40","51.8","15.71","89684","25.81","DUALSPOT-UV-BLUE-GREEN-RED-IR","688803","673208","904694","15.400293","5.543668","0.002191","804784","876977","838081","11.725806","4.102057","-0.006055","796014","856139","831036","10.293328","3.503894","-0.017716","825159","863928","889873","8.650835","2.900387","-0.031777","735879","888335","963450","6.335970","1.962195","-0.021193","3827","3913","3961","3524","3372","3290","3378","3035","2857","3440","2947","2698","3435","3154","3028",""
"MA200-0420","20995","49","1","1.10","1.4","2023-05-03T07:54:59","120","2023/05/03","07:54:59","-15.782679975032806","35.038758493959904","2.9","12","30","64","83","-308","-26891","2329","8","150","149.50","111.10","38.40","26.41","52.0","15.75","89588","25.81","DUALSPOT-UV-BLUE-GREEN-RED-IR","692925","677659","911025","15.488663","5.575105","0.002819","803688","876218","837536","11.787781","4.120779","-0.020389","795526","855957","831031","10.346519","3.520012","-0.022227","825183","864237","890307","8.694061","2.913059","-0.034048","736115","888815","964085","6.366335","1.970276","-0.078456","4671","4808","4885","4135","3614","3334","3974","3484","3231","3903","3310","3012","3818","2939","2546",""
"MA200-0420","20996","49","1","1.10","1.4","2023-05-03T07:55:29","120","2023/05/03","07:55:29","-15.781683266162872","35.038823656737804","4.2","12","30","64","83","-808","-27066","2204","8","150","149.65","111.19","38.45","26.42","52.0","15.77","89620","25.81","DUALSPOT-UV-BLUE-GREEN-RED-IR","687728","673136","905347","15.617943","5.623926","0.008044","803603","876643","838221","11.881743","4.154337","0.004027","795685","856613","831899","10.429007","3.547674","-0.004617","825689","865167","891458","8.762398","2.934538","-0.018119","736274","889307","964736","6.411638","1.983841","-0.037636","6828","7456","7810","6264","6469","6579","6158","5972","5876","6165","5603","5321","5691","4927","4585",""
"MA200-0420","20997","49","1","1.10","1.4","2023-05-03T07:55:59","120","2023/05/03","07:55:59","-15.780304372310638","35.03913565725088","6.5","12","30","64","83","220","-26929","3175","8","150","149.97","110.99","38.98","26.45","51.8","15.75","89608","25.88","DUALSPOT-UV-BLUE-GREEN-RED-IR","687419","673235","905897","15.715645","5.663440","0.012201","803622","877034","838856","11.950694","4.182923","0.018198","795779","857051","832504","10.487969","3.571516","0.017813","825280","865022","891485","8.811311","2.953160","0.012759","736123","889402","964935","6.446031","1.995260","-0.013291","5170","5954","6396","4605","5437","5885","4410","5078","5423","4421","4793","4981","4328","4092","3987",""
"MA200-0420","20998","49","1","1.10","1.4","2023-05-03T07:56:29","120","2023/05/03","07:56:29","-15.77903401851654","35.03888149186969","4.0","12","30","64","83","-2260","-26812","1996","8","150","149.47","111.07","38.39","26.46","51.6","15.69","89680","25.88","DUALSPOT-UV-BLUE-GREEN-RED-IR","687404","673586","906692","15.812845","5.703274","0.014227","803527","877273","839286","12.016644","4.208052","0.011324","795837","857365","832987","10.545530","3.593194","0.011341","819880","859586","886025","8.857571","2.970410","0.011960","736876","890435","966200","6.480049","2.006913","-0.002032","5139","6093","6631","4401","4852","5094","4302","4687","4886","4178","4507","4673","4278","4239","4222",""
"MA200-0420","20999","49","1","1.10","1.4","2023-05-03T07:56:59","120","2023/05/03","07:56:59","-15.778478264808655","35.03843382745981","1.5","12","30","64","83","-1588","-26760","2944","8","150","149.47","111.08","38.39","26.49","51.4","15.66","89736","25.88","DUALSPOT-UV-BLUE-GREEN-RED-IR","686311","673384","907199","15.993834","5.776802","0.013483","803264","877776","840217","12.143787","4.257273","0.012869","795005","857172","833155","10.652797","3.632521","0.007947","819512","859742","886475","8.944711","3.002447","0.009810","736150","889939","965848","6.536989","2.026228","-0.004189","9570","11250","12201","8485","9505","10056","8017","8505","8758","7870","8373","8627","7160","7029","6969",""
"MA200-0420","21000","49","1","1.10","1.4","2023-05-03T07:57:29","120","2023/05/03","07:57:29","-15.778104364871979","35.037927489727736","2.8","12","30","64","83","-424","-26836","2660","8","150","150.21","111.03","39.18","26.52","51.4","15.67","89756","25.94","DUALSPOT-UV-BLUE-GREEN-RED-IR","684731","672964","907743","16.313345","5.906502","0.011691","801689","877226","840394","12.376966","4.346365","0.009137","789932","852688","829421","10.853908","3.708571","0.009039","819668","860752","888038","9.108992","3.062124","0.004661","736744","891274","967630","6.645544","2.063491","-0.006185","16901","19443","20885","15568","16856","17553","15037","16114","16673","14844","15281","15502","13657","13285","13118",""
"MA200-0420","21001","49","1","1.10","1.4","2023-05-03T07:57:59","120","2023/05/03","07:57:59","-15.777770817279816","35.037228487432","3.2","12","30","64","83","1550","-26845","3025","8","150","149.56","111.37","38.19","26.55","51.3","15.68","89776","26.00","DUALSPOT-UV-BLUE-GREEN-RED-IR","682484","672905","909550","16.740900","6.077892","0.012534","794733","871511","835935","12.651124","4.446119","0.006817","788127","852292","829860","11.083015","3.788537","0.002398","818539","860810","888766","9.289271","3.123117","-0.002195","731385","885664","961971","6.762125","2.099024","-0.028386","22548","26362","28536","18248","19365","19971","17078","17385","17545","16240","16024","15915","14622","12998","12267",""
"MA200-0420","21002","49","1","1.10","1.4","2023-05-03T07:58:29","120","2023/05/03","07:58:29","-15.77827376127243","35.03618732467294","5.8","12","30","64","83","-241","-26850","2333","8","150","150.28","111.20","39.08","26.58","51.3","15.71","89792","26.00","DUALSPOT-UV-BLUE-GREEN-RED-IR","680234","672733","911173","17.362122","6.325334","0.009982","792774","871230","836721","13.060759","4.593223","0.002482","787159","852878","831217","11.433354","3.909456","-0.002459","818434","862072","890741","9.569723","3.214467","-0.012959","731392","886600","963411","6.941135","2.153403","-0.035294","32813","37185","39692","27309","27902","28223","26156","25686","25441","25303","23449","22511","22488","19436","18063",""
"MA200-0420","21003","49","1","1.10","1.4","2023-05-03T07:58:59","120","2023/05/03","07:58:59","-15.778622210025787","35.034674160182476","6.3","12","30","64","83","1754","-27020","1791","8","150","149.86","111.27","38.59","26.61","51.3","15.73","89764","26.06","DUALSPOT-UV-BLUE-GREEN-RED-IR","678827","671741","910219","17.425496","6.351579","0.013421","791671","870456","836246","13.111143","4.611772","0.006600","785679","851673","830270","11.478138","3.924769","-0.001922","816465","860348","889188","9.608325","3.227979","0.001425","729942","885125","961931","6.970985","2.160579","-0.114870","3345","3994","4366","3356","3563","3674","3341","3294","3269","3480","3512","3528","3747","2597","2081",""
"MA200-0420","21004","49","1","1.10","1.4","2023-05-03T07:59:29","120","2023/05/03","07:59:29","-15.779009521007538","35.03302149102092","6.9","12","30","64","83","-370","-26833","2037","8","150","150.41","111.33","39.07","26.64","51.3","15.76","89760","26.06","DUALSPOT-UV-BLUE-GREEN-RED-IR","674879","668136","905586","17.537812","6.395954","0.009422","792698","871902","837744","13.195535","4.640848","-0.002202","787034","853407","832103","11.554809","3.951293","-0.001916","818765","863021","892018","9.672821","3.247814","-0.023657","731229","886904","963941","7.018291","2.174297","-0.047931","5925","6670","7098","5619","5516","5460","5717","5635","5593","5811","5093","4729","5935","4904","4441",""
"MA200-0420","21005","49","1","1.10","1.4","2023-05-03T07:59:59","120","2023/05/03","07:59:59","-15.77938449382782","35.03126999735832","6.5","12","30","64","83","-3108","-26663","2940","8","150","150.15","111.34","38.80","26.65","51.4","15.79","89956","26.13","DUALSPOT-UV-BLUE-GREEN-RED-IR","674435","668208","906161","17.654508","6.441879","0.009581","792646","872348","838447","13.277326","4.669595","0.000984","786925","853742","832648","11.624641","3.973609","-0.012411","818998","863645","892850","9.730071","3.266174","-0.014016","731488","887480","964705","7.060144","2.185027","-0.087849","6155","6951","7409","5445","5492","5517","5206","4774","4550","5158","4747","4539","5250","3862","3240",""
"MA200-0420","21006","49","1","1.10","1.4","2023-05-03T08:00:29","120","2023/05/03","08:00:29","-15.779757142066956","35.03021682985127","5.5","12","30","64","83","-1062","-27091","2750","8","150","150.28","111.37","38.90","26.68","51.4","15.82","90032","26.13","DUALSPOT-UV-BLUE-GREEN-RED-IR","674418","668501","906815","17.740572","6.478065","0.013694","793442","873549","839766","13.342755","4.694236","0.008063","786752","853837","832889","11.681258","3.993380","-0.000036","818402","863270","892587","9.777640","3.281210","-0.017086","731353","887552","964866","7.095472","2.196481","-0.016345","4538","5463","5995","4355","4695","4880","4220","4219","4218","4285","3877","3671","4431","4113","3970",""
"MA200-0420","21007","49","1","1.10","1.4","2023-05-03T08:00:59","120","2023/05/03","08:00:59","-15.780491292476654","35.028987327590585","3.6","12","30","64","83","-1516","-25845","4650","8","150","150.08","111.49","38.59","26.71","51.4","15.85","90100","26.13","DUALSPOT-UV-BLUE-GREEN-RED-IR","674611","669038","907861","17.826558","6.512560","0.011241","793376","873818","840253","13.405880","4.717565","0.007063","786405","853772","832976","11.737743","4.013497","0.003592","812054","856830","886054","9.824257","3.297233","-0.001067","731231","887590","965011","7.129682","2.206136","-0.051167","4529","5250","5665","4197","4481","4636","4206","4328","4391","4194","4165","4151","4286","3495","3140",""
"MA200-0420","21008","49","1","1.10","1.4","2023-05-03T08:01:29","120","2023/05/03","08:01:29","-15.781438171863556","35.02793149277568","6.0","12","30","64","83","96","-26316","3204","8","150","150.41","111.18","39.23","26.75","51.4","15.88","90152","26.19","DUALSPOT-UV-BLUE-GREEN-RED-IR","674967","669716","909124","17.911370","6.547634","0.011906","793835","874664","841249","13.469196","4.741830","0.008705","787408","855152","834515","11.794323","4.034406","0.005687","813535","858660","888121","9.873004","3.314863","0.003664","731857","888610","966208","7.165746","2.216508","-0.051065","4480","5251","5695","4221","4585","4782","4225","4425","4528","4399","4508","4564","4531","3693","3317",""
"MA200-0420","21009","49","1","1.10","1.4","2023-05-03T08:01:59","120","2023/05/03","08:01:59","-15.782528698444366","35.02678782865405","6.1","12","30","64","83","150","-26908","1758","8","150","150.28","111.26","39.02","26.78","51.3","15.88","90200","26.25","DUALSPOT-UV-BLUE-GREEN-RED-IR","674798","669879","909689","17.999980","6.586088","0.015128","787630","868192","835279","13.535157","4.768747","0.014892","787065","855107","834639","11.851327","4.057485","0.016037","813806","859219","888881","9.920277","3.333568","0.016306","732106","889078","966883","7.200796","2.229457","0.009962","4678","5788","6428","4395","5113","5504","4253","4910","5252","4262","4809","5085","4400","4635","4741",""
"MA200-0420","21010","49","1","1.10","1.4","2023-05-03T08:02:29","120","2023/05/03","08:02:29","-15.783784747123718","35.02566499635577","6.1","12","30","64","83","20","-26584","2868","8","150","150.01","111.36","38.65","26.80","51.2","15.88","90300","26.25","DUALSPOT-UV-BLUE-GREEN-RED-IR","669486","665415","904445","18.194706","6.670690","0.015644","787962","869409","837059","13.698489","4.837167","0.017707","786600","855447","835544","12.001024","4.117292","0.015599","813520","859620","889762","10.051239","3.385386","0.017363","731673","889198","967366","7.300953","2.266084","0.009920","10270","12858","14356","10872","13124","14354","11160","12848","13730","11798","13452","14292","12563","13240","13544",""
"MA200-0420","21011","49","1","1.10","1.4","2023-05-03T08:02:59","120","2023/05/03","08:02:59","-15.784750580787659","35.02491366118193","2.9","12","30","64","83","1008","-26540","3820","8","150","149.50","111.02","38.48","26.82","51.1","15.86","90296","26.31","DUALSPOT-UV-BLUE-GREEN-RED-IR","668653","665338","905020","18.376174","6.746946","0.013674","787038","869182","837325","13.842585","4.895550","0.014971","782017","851109","831750","12.132412","4.168445","0.013031","814110","860882","891494","10.166478","3.428073","0.009239","727535","884708","962744","7.391556","2.294644","-0.020451","9600","11639","12822","9622","11247","12137","9825","11036","11670","10414","11129","11493","11400","10368","9903",""
"MA200-0420","21012","49","1","1.10","1.4","2023-05-03T08:03:29","120","2023/05/03","08:03:29","-15.785196363925934","35.02569266408682","6.2","12","30","64","82","2408","-26819","2240","8","150","150.01","111.20","38.81","26.86","51.0","15.89","90252","26.38","DUALSPOT-UV-BLUE-GREEN-RED-IR","667225","665694","907233","18.763520","6.906582","0.011856","786814","870873","840149","14.144029","5.014813","0.012122","780262","850896","832589","12.402175","4.274565","0.013097","813173","861380","892961","10.399393","3.516008","0.010566","727025","885252","964077","7.566517","2.355138","-0.001819","20459","24158","26313","20096","22780","24254","20140","22700","24047","21014","22731","23608","21979","21774","21681",""
"MA200-0420","21013","49","1","1.10","1.4","2023-05-03T08:03:59","120","2023/05/03","08:03:59","-15.785846710205078","35.02731032855809","6.3","12","30","64","82","2208","-26620","2900","8","150","149.81","111.07","38.73","26.91","50.9","15.87","90188","26.50","DUALSPOT-UV-BLUE-GREEN-RED-IR","664166","664526","907533","19.305998","7.131319","0.011901","783766","869373","839936","14.558354","5.179370","0.012192","777318","849428","832213","12.779307","4.419619","0.010650","804025","853278","885505","10.728144","3.637893","0.008145","725114","884278","963765","7.816169","2.441958","-0.000496","28686","34082","37242","27652","31497","33620","28188","31093","32629","29694","31573","32537","31398","31314","31276",""
"MA200-0420","21014","49","1","1.10","1.4","2023-05-03T08:04:29","120","2023/05/03","08:04:29","-15.786488354206085","35.028894662857056","6.5","12","30","64","83","1716","-26600","3212","8","150","150.02","111.19","38.83","26.95","50.7","15.85","90116","26.56","DUALSPOT-UV-BLUE-GREEN-RED-IR","659735","661103","903754","19.592638","7.247902","0.010579","778342","864385","835748","14.773650","5.262959","0.010020","778808","852031","835270","12.974658","4.492348","0.007084","806647","856897","889743","10.898657","3.700092","0.005806","726606","886790","966831","7.944336","2.483201","-0.016223","15141","17635","19100","14353","15959","16847","14585","15551","16062","15385","16071","16424","16101","14838","14263",""
"MA200-0420","21015","49","1","1.10","1.4","2023-05-03T08:04:59","120","2023/05/03","08:04:59","-15.786329507827759","35.0301383305341","4.3","12","30","64","82","2370","-26741","2820","8","150","150.08","111.16","38.92","26.99","50.5","15.84","90056","26.63","DUALSPOT-UV-BLUE-GREEN-RED-IR","658386","661089","905054","19.884664","7.367841","0.010842","777878","865408","837742","15.019247","5.360580","0.011567","773256","847306","831550","13.196486","4.578757","0.011137","806301","857758","891424","11.087966","3.771334","0.009181","721815","881895","962107","8.087904","2.534524","0.003664","15430","18100","19671","16379","18593","19823","16568","18432","19422","17086","18364","19023","18042","18421","18593",""
"MA200-0420","21016","49","1","1.10","1.4","2023-05-03T08:05:29","120","2023/05/03","08:05:29","-15.786384403705597","35.0311589948833","1.9","13","30","64","82","2700","-26144","2516","8","150","150.15","109.83","40.31","27.05","50.4","15.84","90008","26.75","DUALSPOT-UV-BLUE-GREEN-RED-IR","655146","659871","905513","20.464092","7.616768","0.010436","773818","863325","837399","15.530912","5.571622","0.010417","769480","845404","831208","13.668277","4.770178","0.010197","796609","849446","884152","11.501792","3.934240","0.008633","719504","880676","961826","8.394884","2.649602","0.003604","30986","36268","39400","34535","38809","41200","35662","39422","41438","37800","40542","41968","39044","39877","40262",""
"MA200-0420","21017","49","1","1.10","1.4","2023-05-03T08:05:59","120","2023/05/03","08:05:59","-15.786468863487244","35.03201116248965","1.8","13","30","64","82","1829","-26820","2137","8","150","150.08","111.46","38.63","27.09","50.2","15.82","89956","26.81","DUALSPOT-UV-BLUE-GREEN-RED-IR","657224","662267","909144","20.580216","7.667598","0.014356","777048","867276","841459","15.630873","5.614335","0.017058","771000","847404","833382","13.761823","4.808956","0.016836","799036","852343","887372","11.586133","3.968151","0.016908","720938","882704","964213","8.462454","2.674483","0.009902","6119","7729","8685","6648","8197","9065","6968","8335","9069","7591","8807","9441","8468","8998","9243",""
"MA200-0420","21018","49","1","1.10","1.4","2023-05-03T08:06:29","120","2023/05/03","08:06:29","-15.786485016345978","35.03218116611242","2.6","13","30","64","82","3496","-26688","1332","8","150","149.44","111.22","38.22","27.13","50.2","15.86","89940","26.88","DUALSPOT-UV-BLUE-GREEN-RED-IR","657674","662994","910369","20.648716","7.694227","0.008373","771581","861512","836033","15.689052","5.633372","-0.005142","771993","848794","834879","13.817936","4.826498","-0.011671","800175","853830","889065","11.635494","3.984124","-0.008372","721800","884020","965732","8.500261","2.685227","-0.039850","3617","4092","4373","3878","3692","3588","4188","3810","3607","4452","4192","4057","4748","3926","3547",""
"MA200-0420","21019","49","1","1.10","1.4","2023-05-03T08:06:59","120","2023/05/03","08:06:59","-15.786383271217346","35.03032532893121","3.6","13","30","64","82","-5750","-26925","3400","8","150","150.47","111.02","39.45","27.17","50.2","15.90","90056","26.94","DUALSPOT-UV-BLUE-GREEN-RED-IR","653459","658957","905058","20.706166","7.720239","0.014688","772446","862707","837362","15.736230","5.653459","0.015005","767778","844343","830646","13.857493","4.840964","0.003082","800900","854780","890157","11.670438","3.995196","-0.016917","722152","884584","966455","8.527090","2.693495","-0.028245","3039","3872","4367","3150","3774","4124","2958","3044","3090","3157","2815","2637","3375","2927","2720",""
"MA200-0420","21020","49","1","1.10","1.4","2023-05-03T08:07:29","120","2023/05/03","08:07:29","-15.786634504795074","35.02933766320348","0.4","13","30","64","82","820","-26572","4000","8","150","149.53","110.83","38.71","27.21","50.1","15.92","90104","26.94","DUALSPOT-UV-BLUE-GREEN-RED-IR","653337","659340","905983","20.804248","7.759182","0.008610","772442","863271","838227","15.820929","5.684656","0.004967","767800","844934","831499","13.935897","4.871005","0.009319","801645","856106","891809","11.740481","4.020511","0.004286","722388","885311","967453","8.582493","2.712655","-0.001696","5198","5909","6332","5665","5975","6148","5873","6443","6750","6340","6561","6676","6983","6914","6883",""
"MA200-0420","21021","49","1","1.10","1.4","2023-05-03T08:07:59","120","2023/05/03","08:07:59","-15.785882830619812","35.02726016193628","13.8","13","30","64","82","-792","-26624","3887","8","150","149.65","111.16","38.49","27.24","50.2","15.96","90176","27.00","DUALSPOT-UV-BLUE-GREEN-RED-IR","652585","659766","907749","21.075238","7.865909","0.008528","771935","864112","839880","16.053740","5.771810","0.006997","766688","844984","832307","14.148331","4.948187","0.004969","800771","856306","892701","11.928523","4.087222","0.003009","717386","880093","962288","8.725164","2.760030","-0.007330","14319","16285","17456","15526","16785","17491","15866","16647","17066","16972","17387","17604","17930","17193","16852",""
"MA200-0420","21022","49","1","1.10","1.4","2023-05-03T08:08:29","120","2023/05/03","08:08:29","-15.784829199314117","35.0245259962976","9.4","13","30","64","82","1420","-26900","2332","8","150","149.82","111.06","38.76","27.28","50.0","15.93","90316","27.00","DUALSPOT-UV-BLUE-GREEN-RED-IR","651130","659474","908464","21.399806","8.004894","0.012431","770736","864038","840632","16.315575","5.879182","0.013159","765258","844548","832582","14.390929","5.044794","0.012389","799839","856384","893439","12.146680","4.170341","0.010079","716400","879766","962470","8.897106","2.821354","0.003483","17165","21059","23386","17477","20534","22256","18135","20691","22070","19707","21513","22457","21627","22100","22319",""
"MA200-0420","21023","49","1","1.10","1.4","2023-05-03T08:08:59","120","2023/05/03","08:08:59","-15.78414136171341","35.022968327626586","1.4","13","30","64","82","2272","-26919","2628","8","150","149.56","111.06","38.50","27.32","49.7","15.90","90260","27.06","DUALSPOT-UV-BLUE-GREEN-RED-IR","648454","658636","909145","21.870246","8.198776","0.010605","767744","862610","840515","16.683067","6.026078","0.011581","763571","844397","833562","14.719064","5.172705","0.010934","792298","849817","887579","12.426901","4.278325","0.011697","715794","880221","963689","9.105001","2.896966","0.007373","24880","29576","32393","24530","28283","30405","24530","27581","29235","25314","28137","29620","26150","27433","28032",""
"MA200-0420","21024","49","1","1.10","1.4","2023-05-03T08:09:29","120","2023/05/03","08:09:29","-15.782181143760681","35.023447662591934","15.9","13","30","64","82","2341","-26195","1987","8","150","149.41","110.66","38.74","27.35","49.6","15.88","90092","27.06","DUALSPOT-UV-BLUE-GREEN-RED-IR","646949","658367","910123","22.184410","8.328460","0.010042","760839","856240","835244","16.930632","6.122447","0.008804","761773","843672","833643","14.940287","5.257427","0.008466","790684","849205","887641","12.615289","4.347601","0.005651","714334","879271","963217","9.243805","2.945602","0.000128","16674","19660","21454","16584","18439","19489","16597","18154","19000","17079","17938","18390","17522","17536","17542",""
"MA200-0420","21025","49","1","1.10","1.4","2023-05-03T08:09:59","120","2023/05/03","08:09:59","-15.779004454612732","35.02384333126247","9.0","14","30","64","82","1216","-26620","3408","8","150","149.85","110.75","39.10","27.38","49.3","15.83","89992","27.06","DUALSPOT-UV-BLUE-GREEN-RED-IR","646324","658383","910718","22.407986","8.422676","0.010570","760616","856655","836013","17.111568","6.196768","0.011926","761923","844401","834734","15.102951","5.322057","0.010746","790592","849603","888382","12.755833","4.402390","0.010770","714299","879637","963876","9.346338","2.983200","0.005756","11857","14154","15537","12111","14092","15216","12194","13724","14556","12731","14059","14759","12933","13433","13668",""
"MA200-0420","21026","49","1","1.10","1.4","2023-05-03T08:10:29","120","2023/05/03","08:10:29","-15.777651190757751","35.023246329277754","6.2","14","30","64","82","3192","-26736","1735","8","150","149.72","110.79","38.93","27.41","49.1","15.77","89948","27.06","DUALSPOT-UV-BLUE-GREEN-RED-IR","643591","656488","908909","22.644824","8.517891","0.008290","757693","854373","834439","17.311564","6.274796","0.008526","759111","842208","833123","15.285761","5.392379","0.008358","787704","847314","886497","12.914428","4.460939","0.005565","712269","877840","962253","9.468102","3.024182","-0.006963","12556","14366","15458","13382","14859","15699","13699","14997","15705","14361","15089","15474","15353","14706","14403",""
"MA200-0420","21027","49","1","1.10","1.4","2023-05-03T08:10:59","120","2023/05/03","08:10:59","-15.776718735694885","35.02105549350381","9.8","14","30","64","81","1650","-27241","-883","8","150","149.47","111.23","38.23","27.44","48.9","15.74","89964","27.13","DUALSPOT-UV-BLUE-GREEN-RED-IR","639039","652159","903185","22.732274","8.553543","0.010107","757726","854727","835006","17.379756","6.302721","0.013284","759297","842704","833788","15.348219","5.415106","0.005409","788484","848402","887774","12.966059","4.479798","0.006731","712677","878547","963148","9.506918","3.036872","-0.008153","4617","5476","5995","4544","5414","5909","4661","4935","5083","4656","4948","5102","4874","4636","4524",""
"MA200-0420","21028","49","1","1.10","1.4","2023-05-03T08:11:29","120","2023/05/03","08:11:29","-15.775481343269348","35.019342329353094","6.1","13","30","64","82","1212","-26640","1000","8","150","149.44","110.74","38.70","27.46","48.7","15.69","89888","27.13","DUALSPOT-UV-BLUE-GREEN-RED-IR","639581","653037","904766","22.803784","8.584122","0.011576","759029","856546","836987","17.435662","6.323642","0.005739","759834","843626","834905","15.396611","5.434078","0.010295","789556","849860","889478","13.008402","4.495291","0.005160","713348","879607","964432","9.538710","3.046425","-0.027160","3792","4641","5153","3742","4007","4158","3628","4070","4311","3836","4016","4112","4010","3448","3185",""
"MA200-0420","21029","49","1","1.10","1.4","2023-05-03T08:11:59","120","2023/05/03","08:11:59","-15.774169743061066","35.01849216222763","5.6","13","30","64","82","1088","-26803","2188","8","150","149.81","111.16","38.65","27.51","48.5","15.68","89900","27.19","DUALSPOT-UV-BLUE-GREEN-RED-IR","639497","653299","905459","22.909004","8.627747","0.010298","759043","856939","837636","17.517696","6.355804","0.009527","755887","839586","831098","15.470765","5.462843","0.009807","790857","851505","891412","13.069835","4.518449","0.008723","714104","880808","965894","9.586405","3.062005","-0.010182","5559","6630","7276","5470","6169","6567","5538","6179","6529","5544","6011","6258","5993","5631","5460",""
"MA200-0420","21030","49","1","1.10","1.4","2023-05-03T08:12:29","120","2023/05/03","08:12:29","-15.773346185684204","35.01800466328859","5.4","13","30","64","81","963","-27084","1976","8","150","149.72","110.83","38.88","27.53","48.4","15.68","89864","27.19","DUALSPOT-UV-BLUE-GREEN-RED-IR","639811","653929","906637","22.994102","8.661907","0.008171","759709","857999","838867","17.584104","6.382668","0.011016","755968","839938","831617","15.526770","5.482584","0.000467","790472","851383","891388","13.119222","4.534397","-0.010552","713761","880589","965702","9.617363","3.070018","-0.065118","4509","5160","5553","4441","5121","5509","4195","4215","4225","4470","4114","3926","3902","2879","2399",""
"MA200-0420","21031","49","1","1.10","1.4","2023-05-03T08:12:59","120","2023/05/03","08:12:59","-15.773832619190216","35.01685916446149","3.9","13","30","64","82","-1368","-26932","3116","8","150","150.49","111.36","39.12","27.55","48.2","15.63","89932","27.25","DUALSPOT-UV-BLUE-GREEN-RED-IR","640472","654778","908025","23.042724","8.683128","0.012152","759920","858451","839417","17.619832","6.397415","0.012224","756075","840246","832006","15.558865","5.495488","0.011737","785106","845732","885549","13.144993","4.545156","0.017010","714518","881622","966913","9.639477","3.078149","0.006652","2564","3185","3561","2378","2794","3031","2392","2738","2927","2321","2759","2990","2773","2903","2963",""
"MA200-0420","21032","49","1","1.10","1.4","2023-05-03T08:13:29","120","2023/05/03","08:13:29","-15.774261176586151","35.015336331911385","7.2","13","30","64","82","1129","-26908","3341","8","150","150.01","111.45","38.56","27.58","48.2","15.65","90016","27.25","DUALSPOT-UV-BLUE-GREEN-RED-IR","640475","655010","908551","23.098748","8.705742","0.009131","760413","859249","840325","17.662888","6.412739","0.002436","756563","840981","832855","15.595456","5.508005","-0.001151","785947","846815","886799","13.174982","4.555130","-0.004788","714916","882287","967697","9.663223","3.083799","-0.087753","2952","3444","3741","2863","2945","2992","2725","2694","2677","2699","2594","2539","2976","2046","1610",""
"MA200-0420","21033","49","1","1.10","1.4","2023-05-03T08:13:59","120","2023/05/03","08:13:59","-15.774278819561005","35.01403599791229","6.0","13","30","64","82","-495","-26845","2633","8","150","150.08","111.26","38.83","27.61","48.1","15.66","90144","27.31","DUALSPOT-UV-BLUE-GREEN-RED-IR","641412","656159","910374","23.154126","8.729305","0.011244","755940","854387","835725","17.703284","6.429673","0.013562","757006","841703","833687","15.631721","5.520963","0.002280","786508","847579","887661","13.204965","4.565941","0.003654","715206","882768","968312","9.685863","3.091172","-0.011239","2923","3564","3952","2691","3233","3542","2706","2770","2806","2703","2793","2840","2842","2652","2563",""
"MA200-0420","21034","49","1","1.10","1.4","2023-05-03T08:14:29","120","2023/05/03","08:14:29","-15.772795379161835","35.01363283209503","6.1","13","30","64","82","2779","-26708","1891","8","150","149.67","111.07","38.59","27.65","48.1","15.67","90192","27.38","DUALSPOT-UV-BLUE-GREEN-RED-IR","641700","656674","911263","23.208020","8.754314","0.015086","756252","854934","836385","17.743656","6.445259","0.008372","757418","842316","834399","15.668038","5.535513","0.012210","787555","848858","889125","13.234808","4.577540","0.011596","711237","877988","963122","9.707850","3.097945","-0.020584","2849","3806","4385","2694","2993","3164","2714","3129","3356","2695","3015","3184","2765","2451","2304",""
"MA200-0420","21035","49","1","1.10","1.4","2023-05-03T08:14:59","120","2023/05/03","08:14:59","-15.771305739879608","35.01354766450822","5.9","13","30","64","82","3787","-26544","1652","8","150","149.95","110.70","39.25","27.68","48.0","15.66","90008","27.38","DUALSPOT-UV-BLUE-GREEN-RED-IR","637703","652830","906176","23.261474","8.778057","0.012413","757757","856854","838445","17.783676","6.462670","0.014784","753926","838613","830864","15.700163","5.549771","0.017854","788269","849798","890232","13.263705","4.589028","0.011795","711707","878759","964018","9.728817","3.104681","-0.016443","2836","3553","3987","2679","3288","3635","2409","3015","3347","2618","2936","3104","2645","2397","2280",""
"MA200-0420","21036","49","1","1.10","1.4","2023-05-03T08:15:29","120","2023/05/03","08:15:29","-15.77128690481186","35.014931332319975","5.8","13","30","64","81","2652","-26684","2488","8","150","149.34","110.37","38.97","27.71","48.1","15.72","89848","27.44","DUALSPOT-UV-BLUE-GREEN-RED-IR","637451","653269","907562","23.445964","8.854401","0.009235","757931","857787","839735","17.909088","6.505895","-0.002171","753940","839295","831824","15.810621","5.585658","-0.008905","788638","850728","891485","13.353642","4.617439","-0.014363","712017","879532","965059","9.791822","3.121134","-0.063181","9817","11506","12531","8423","8222","8108","8308","7645","7283","8175","7314","6859","7974","5898","4926",""
"MA200-0420","21037","49","1","1.10","1.4","2023-05-03T08:15:59","120","2023/05/03","08:15:59","-15.771537959575653","35.01620083115995","3.0","13","30","64","81","3583","-26141","3058","8","150","149.74","110.83","38.91","27.74","47.9","15.71","89756","27.50","DUALSPOT-UV-BLUE-GREEN-RED-IR","638065","654221","909184","23.543392","8.897930","0.012941","758786","859048","841169","17.976408","6.534601","0.014023","754141","839745","832481","15.869054","5.610597","0.015761","789705","852123","893039","13.403411","4.636115","0.007102","712593","880450","966164","9.829247","3.134213","-0.000694","5163","6570","7425","4503","5469","6020","4377","5321","5837","4505","4815","4979","4717","4695","4685",""
"MA200-0420","21038","49","1","1.10","1.4","2023-05-03T08:16:29","120","2023/05/03","08:16:29","-15.771579444408417","35.01704666391015","3.3","13","30","64","81","3700","-26928","1392","8","150","149.63","110.86","38.77","27.79","47.8","15.70","89680","27.56","DUALSPOT-UV-BLUE-GREEN-RED-IR","637811","654147","909294","23.592926","8.918224","0.009168","758353","858708","840967","18.011866","6.549007","0.011262","754633","840459","833292","15.900652","5.622136","0.004041","784497","846641","887399","13.430120","4.646123","0.007342","713276","881403","967250","9.848385","3.138675","-0.097202","2624","3074","3348","2371","2755","2974","2366","2471","2528","2417","2590","2681","2411","1608","1232",""
"MA200-0420","21039","49","1","1.10","1.4","2023-05-03T08:16:59","120","2023/05/03","08:16:59","-15.771538317203522","35.017957162112","3.4","13","30","64","81","2484","-26496","3108","8","150","149.53","111.32","38.21","27.80","47.7","15.69","89640","27.56","DUALSPOT-UV-BLUE-GREEN-RED-IR","634190","650621","904588","23.649090","8.945713","0.017192","753562","853464","835995","18.053566","6.568039","0.018906","755504","841586","834513","15.935381","5.637258","0.018424","785803","848179","889153","13.459681","4.659543","0.024550","709518","876869","962350","9.872066","3.146773","-0.000563","2963","4225","4993","2776","3692","4216","2590","3285","3666","2664","3523","3978","2971","2960","2955",""
"MA200-0420","21040","49","1","1.10","1.4","2023-05-03T08:17:29","120","2023/05/03","08:17:29","-15.771499633789062","35.01897616125643","3.9","13","30","64","81","460","-26603","2008","8","150","149.59","111.16","38.43","27.84","47.7","15.71","89656","27.63","DUALSPOT-UV-BLUE-GREEN-RED-IR","634596","651164","905541","23.694492","8.964622","0.010453","754600","854821","837409","18.085098","6.582380","0.018334","751946","837747","830824","15.964063","5.648899","0.013285","787042","849622","890714","13.483192","4.668166","0.006312","710453","878157","963821","9.891392","3.152804","-0.016851","2399","2890","3188","2102","2766","3146","2142","2514","2718","2122","2251","2319","2428","2192","2081",""
"MA200-0420","21041","49","1","1.10","1.4","2023-05-03T08:17:59","120","2023/05/03","08:17:59","-15.771793723106384","35.01968999579549","3.5","13","30","64","81","844","-26096","4112","8","150","150.15","111.64","38.50","27.87","47.6","15.70","89704","27.63","DUALSPOT-UV-BLUE-GREEN-RED-IR","635189","651938","906770","23.735192","8.984722","0.017277","755865","856410","839084","18.115754","6.594378","0.009659","751298","837167","830340","15.990435","5.659670","0.013877","786492","849157","890308","13.505307","4.676427","0.008359","709920","877601","963239","9.908159","3.157763","-0.026673","2141","3066","3629","2035","2310","2467","1961","2322","2520","1987","2152","2240","2098","1799","1659",""
"MA200-0420","21042","49","1","1.10","1.4","2023-05-03T08:18:29","120","2023/05/03","08:18:29","-15.772812008857727","35.01974999718368","2.2","13","30","64","81","80","-27516","2648","8","150","150.01","111.74","38.27","27.90","47.5","15.72","89720","27.69","DUALSPOT-UV-BLUE-GREEN-RED-IR","633921","650774","905348","23.775730","9.002277","0.012550","754257","854707","837525","18.142808","6.605160","0.011279","750743","836662","829899","16.014008","5.667782","0.000449","785704","848440","889600","13.524282","4.682564","-0.006910","709306","876955","962566","9.923477","3.161675","-0.060044","2130","2694","3037","1794","2088","2256","1751","1759","1764","1703","1608","1558","1915","1427","1200",""
"MA200-0420","21043","49","1","1.10","1.4","2023-05-03T08:18:59","120","2023/05/03","08:18:59","-15.772912204265594","35.02069082856178","5.1","13","30","64","81","954","-26808","4637","8","150","149.71","111.46","38.25","27.94","47.6","15.77","89716","27.69","DUALSPOT-UV-BLUE-GREEN-RED-IR","636023","653131","908789","23.823800","9.022316","0.010779","756990","858028","840874","18.178868","6.617982","0.002944","752319","838612","831921","16.044743","5.677485","-0.008813","787996","851049","892437","13.549116","4.690976","-0.001488","710860","879000","964895","9.943022","3.167852","-0.013213","2533","3076","3408","2398","2484","2534","2289","2106","2005","2235","2206","2191","2449","2255","2165",""
"MA200-0420","21044","49","1","1.10","1.4","2023-05-03T08:19:29","120","2023/05/03","08:19:29","-15.773581326007843","35.02168866246939","4.0","13","30","64","81","437","-27237","2745","8","150","149.53","111.86","37.67","27.96","47.5","15.77","89764","27.69","DUALSPOT-UV-BLUE-GREEN-RED-IR","636482","653898","910159","23.896080","9.053650","0.013233","757556","858952","841986","18.230044","6.639577","0.015613","752928","839560","833015","16.090572","5.696165","0.015262","782421","845257","886493","13.588426","4.706015","0.012676","711205","879617","965663","9.972639","3.176946","-0.014914","3795","4885","5550","3391","4249","4741","3401","4116","4508","3525","4005","4259","3698","3372","3219",""
"MA200-0420","21045","49","1","1.10","1.4","2023-05-03T08:19:59","120","2023/05/03","08:19:59","-15.774317741394043","35.02253282815218","4.1","13","30","64","81","1236","-26488","4780","8","150","149.95","111.77","38.18","27.99","47.3","15.73","89808","27.75","DUALSPOT-UV-BLUE-GREEN-RED-IR","631844","649326","904052","23.961532","9.083706","0.014884","752005","852840","836141","18.276608","6.659943","0.016748","753246","840102","833677","16.130552","5.712032","0.012416","782906","845932","887320","13.623718","4.719006","0.007777","711523","880150","966358","9.999184","3.185271","-0.013678","3439","4623","5346","3088","3954","4450","2969","3450","3713","3167","3413","3543","3317","3045","2918",""
"MA200-0420","21046","49","1","1.10","1.4","2023-05-03T08:20:29","120","2023/05/03","08:20:29","-15.775481045246124","35.02220682986081","3.9","13","30","64","81","1170","-26808","3133","8","150","150.15","111.69","38.46","28.01","47.2","15.72","89880","27.75","DUALSPOT-UV-BLUE-GREEN-RED-IR","636496","654336","911228","24.013554","9.105034","0.009787","752299","853388","836805","18.312294","6.672251","0.000144","753029","840050","833717","16.161823","5.724150","0.010060","782638","845818","887282","13.648230","4.727121","-0.004584","711337","880050","966263","10.017481","3.189773","-0.071892","2735","3257","3576","2368","2372","2374","2324","2616","2775","2201","2117","2072","2288","1635","1330",""
"MA200-0420","21047","49","1","1.10","1.4","2023-05-03T08:20:59","120","2023/05/03","08:20:59","-15.776581346988678","35.02168699540198","3.2","13","30","64","81","-1364","-27172","3008","8","150","149.76","111.49","38.26","28.03","47.2","15.75","89960","27.75","DUALSPOT-UV-BLUE-GREEN-RED-IR","631571","649626","905023","24.085282","9.135498","0.011492","752249","853754","837351","18.364574","6.691993","0.007420","752623","839905","833734","16.205978","5.738055","-0.009017","783034","846498","888134","13.684260","4.740176","0.005750","711363","880286","966656","10.044931","3.197888","-0.025416","3778","4676","5224","3476","3824","4024","3288","3017","2868","3242","3423","3519","3439","2962","2739",""
"MA200-0420","21048","49","1","1.10","1.4","2023-05-03T08:21:29","120","2023/05/03","08:21:29","-15.777190029621124","35.02233949676156","6.2","14","30","64","81","2576","-26644","3796","8","150","150.15","111.08","39.07","28.06","47.3","15.79","89984","27.81","DUALSPOT-UV-BLUE-GREEN-RED-IR","629731","648057","903140","24.193264","9.178398","0.007142","750215","851737","835603","18.448010","6.723970","0.006709","751712","839194","833238","16.280363","5.766398","0.007024","782336","845984","887771","13.748103","4.761814","-0.004278","710831","879848","966265","10.091860","3.211646","-0.032000","5709","6450","6902","5568","6068","6354","5559","6023","6277","5766","5556","5445","5901","4919","4461",""
"MA200-0420","21049","49","1","1.10","1.4","2023-05-03T08:21:59","120","2023/05/03","08:21:59","-15.777666926383972","35.02345566265285","0.4","14","30","64","81","1619","-26247","5112","8","150","149.71","111.38","38.33","28.09","47.1","15.76","89976","27.88","DUALSPOT-UV-BLUE-GREEN-RED-IR","631229","649799","905815","24.248752","9.203159","0.013343","752096","854066","838033","18.488220","6.741512","0.016037","748704","835951","830156","16.316019","5.781060","0.014221","784258","848236","890220","13.776756","4.773786","0.017916","707647","876066","962171","10.113613","3.217944","-0.029981","2926","3794","4325","2676","3392","3804","2657","3176","3460","2580","3133","3426","2728","2295","2093",""
"MA200-0420","21050","49","1","1.10","1.4","2023-05-03T08:22:29","120","2023/05/03","08:22:29","-15.776748657226562","35.02340983040631","6.1","14","30","64","81","3284","-26256","3832","8","150","149.32","110.86","38.46","28.11","47.1","15.76","89920","27.88","DUALSPOT-UV-BLUE-GREEN-RED-IR","631213","650172","906756","24.338330","9.240688","0.010310","752150","854581","838815","18.562122","6.770778","0.009822","748478","836137","830568","16.379799","5.805236","0.007667","784477","848804","891044","13.830000","4.793592","0.007213","707768","876521","962826","10.155712","3.232608","0.000603","4745","5732","6335","4941","5641","6043","4776","5219","5462","4818","5167","5352","5304","5327","5337",""
"MA200-0420","21051","49","1","1.10","1.4","2023-05-03T08:22:59","120","2023/05/03","08:22:59","-15.775094211101532","35.02361666597426","7.0","14","30","64","81","2700","-26537","3895","8","150","149.47","110.83","38.64","28.14","46.9","15.74","89820","27.88","DUALSPOT-UV-BLUE-GREEN-RED-IR","629706","649777","907404","24.572998","9.340691","0.010738","750827","854338","839478","18.748690","6.847942","0.012098","751065","840093","835242","16.543961","5.871188","0.011541","782333","847426","890244","13.968831","4.848139","0.011645","710494","880682","967889","10.258366","3.269173","0.002993","12436","15200","16894","12479","14803","16140","12297","14169","15199","12567","14161","15009","12939","13218","13349",""
"MA200-0420","21052","49","1","1.10","1.4","2023-05-03T08:23:29","120","2023/05/03","08:23:29","-15.773413836956024","35.02431016229093","6.7","14","30","64","80","491","-26800","3391","8","150","149.52","111.16","38.37","28.15","46.8","15.71","89872","27.88","DUALSPOT-UV-BLUE-GREEN-RED-IR","624836","646620","904923","25.147102","9.586830","0.011183","745695","850553","837232","19.227292","7.047946","0.012980","747190","837680","834131","16.977658","6.048429","0.013091","778461","844902","888790","14.344690","4.998012","0.013411","707856","878764","966709","10.542904","3.378663","0.013707","30336","37680","42204","31919","38643","42534","32393","38352","41649","33924","39189","42005","35759","39864","41799",""
"MA200-0420","21053","49","1","1.10","1.4","2023-05-03T08:23:59","120","2023/05/03","08:23:59","-15.771890997886658","35.025066163390875","5.8","14","30","64","81","1260","-26656","2688","8","150","149.95","111.22","38.74","28.16","46.6","15.65","89936","27.88","DUALSPOT-UV-BLUE-GREEN-RED-IR","624965","647244","906292","25.283246","9.646294","0.011516","745925","851326","838348","19.337418","7.093567","0.011909","743128","833570","830362","17.075272","6.088841","0.013279","779358","846325","890553","14.427856","5.031722","0.013928","704069","874411","962119","10.606890","3.401127","0.001103","7190","9016","10143","7340","8731","9536","7286","8661","9423","7502","8731","9389","8037","8101","8132",""
"MA200-0420","21054","49","1","1.10","1.4","2023-05-03T08:24:29","120","2023/05/03","08:24:29","-15.770094513893127","35.02600866369903","7.8","14","30","64","80","529","-26837","3008","8","150","149.84","111.53","38.30","28.17","46.5","15.62","0","0.00","DUALSPOT-UV-BLUE-GREEN-RED-IR","623462","646656","906370","25.467002","9.717827","0.006975","744413","850773","838512","19.493650","7.153505","0.008013","745755","837592","834994","17.217092","6.142246","0.007582","777644","845387","890101","14.551387","5.076635","0.005687","707280","879194","967890","10.705679","3.432901","-0.009617","9677","10969","11767","10384","11601","12306","10556","11576","12141","11111","11764","12114","12373","11588","11218",""
"MA200-0420","21055","49","1","1.10","1.4","2023-05-03T08:24:59","120","2023/05/03","08:24:59","-15.768453598022461","35.02697332948446","5.7","14","30","64","81","620","-26783","2708","8","150","149.94","111.61","38.33","28.18","46.4","15.60","0","0.00","DUALSPOT-UV-BLUE-GREEN-RED-IR","620741","645561","906726","26.018010","9.954865","0.011163","741743","849695","838862","19.962992","7.348210","0.012406","738813","831573","830252","17.645380","6.314176","0.011805","775610","844836","890649","14.925356","5.222780","0.011731","705607","878460","967858","10.986305","3.535595","0.008030","28996","36323","40864","31173","37658","41435","31858","37240","40240","33615","38253","40750","35123","37427","38521",""
"MA200-0420","21056","49","1","1.10","1.4","2023-05-03T08:25:29","120","2023/05/03","08:25:29","-15.766887724399567","35.027788661420345","7.0","14","30","64","81","-352","-26984","2380","8","150","149.67","111.53","38.14","28.19","46.3","15.59","90164","27.88","DUALSPOT-UV-BLUE-GREEN-RED-IR","615418","643291","907273","26.862332","10.333347","0.012495","736166","847185","839224","20.698472","7.663644","0.013893","733541","829161","830381","18.311372","6.594172","0.014413","771432","843464","891527","15.503310","5.457942","0.014617","698166","871787","962321","11.426510","3.704836","0.013595","44465","58288","66929","48886","61312","68618","49576","60951","67352","51990","61860","67223","55137","61989","65277",""
"MA200-0420","21057","49","1","1.10","1.4","2023-05-03T08:25:59","120","2023/05/03","08:25:59","-15.765203833580017","35.02798699401319","6.7","14","30","64","80","524","-26828","1892","8","150","149.84","111.46","38.38","28.20","46.3","15.59","90276","27.88","DUALSPOT-UV-BLUE-GREEN-RED-IR","612638","642417","908318","27.480758","10.605587","0.011354","733434","846449","840249","21.234206","7.888872","0.012252","730912","828374","831127","18.807672","6.798267","0.012406","767812","841527","890864","15.943934","5.631582","0.011455","696347","871198","962732","11.762577","3.827251","0.006721","32589","41666","47370","35632","43507","48162","36968","44152","48219","39662","45394","48524","42120","44559","45736",""
"MA200-0420","21058","49","1","1.10","1.4","2023-05-03T08:26:29","120","2023/05/03","08:26:29","-15.763527572154999","35.02754716016352","6.8","14","30","64","81","-112","-27008","2744","8","150","150.35","111.57","38.78","28.21","46.2","15.57","90396","27.94","DUALSPOT-UV-BLUE-GREEN-RED-IR","612021","642264","908615","27.623550","10.668087","0.010751","732791","846196","840351","21.347650","7.935006","0.009975","730540","828453","831502","18.912598","6.838433","0.007243","768438","842640","892344","16.035929","5.667348","0.009663","696432","871626","963416","11.830387","3.851542","0.003671","7517","9466","10692","7537","8819","9577","7807","8598","9047","8272","9253","9789","8490","8750","8875",""
"MA200-0420","21059","49","1","1.10","1.4","2023-05-03T08:26:59","120","2023/05/03","08:26:59","-15.76273900270462","35.026882162317634","2.2","14","30","64","81","-650","-27575","2745","8","150","150.28","111.22","39.06","28.24","46.3","15.62","90484","27.94","DUALSPOT-UV-BLUE-GREEN-RED-IR","610931","642038","909397","27.875168","10.778851","0.010488","731717","846110","841016","21.559842","8.021528","0.009465","729457","828207","831931","19.103440","6.915088","0.009620","766798","841782","892029","16.201368","5.729889","0.006520","695595","871335","963558","11.955811","3.896877","0.003467","13288","16655","18778","14143","16420","17770","14246","16293","17454","14924","16063","16686","15754","16213","16435",""
"MA200-0420","21060","49","1","1.10","1.4","2023-05-03T08:27:29","120","2023/05/03","08:27:29","-15.763017535209656","35.02589682675898","4.7","14","30","64","80","2025","-26491","3695","8","150","149.87","111.41","38.47","28.26","46.6","15.74","90592","27.94","DUALSPOT-UV-BLUE-GREEN-RED-IR","610490","642075","910031","28.044526","10.857769","0.012951","725895","839905","835217","21.689082","8.073807","0.009893","729192","828423","832467","19.222960","6.961206","0.008090","766988","842397","892963","16.303129","5.768495","0.008129","695058","871017","963427","12.032673","3.923256","-0.000752","8928","12049","14021","8600","10074","10949","8907","9953","10547","9164","10068","10564","9638","9579","9551",""
"MA200-0420","21061","49","1","1.10","1.4","2023-05-03T08:27:59","120","2023/05/03","08:27:59","-15.76326209306717","35.02484182827175","5.0","14","30","64","80","2237","-26470","4758","8","150","150.49","111.28","39.21","28.27","46.9","15.86","90580","28.00","DUALSPOT-UV-BLUE-GREEN-RED-IR","610192","642316","910972","28.192090","10.922054","0.009881","725840","840395","836034","21.795038","8.112061","0.001741","728363","827991","832269","19.312236","6.992450","-0.000545","760564","835777","886149","16.379816","5.793921","-0.006124","695112","871434","964031","12.088406","3.939489","-0.028626","7788","9630","10795","7058","7233","7336","6660","6616","6591","6913","6506","6283","6996","5783","5197",""
"MA200-0420","21062","49","1","1.10","1.4","2023-05-03T08:28:29","120","2023/05/03","08:28:29","-15.76327097415924","35.02372583001852","2.5","13","30","64","80","820","-27868","1835","8","150","150.47","111.26","39.22","28.29","47.2","15.97","90632","28.00","DUALSPOT-UV-BLUE-GREEN-RED-IR","601640","635015","902610","28.624524","11.117428","0.011017","722320","837809","834453","22.059500","8.217395","0.007777","726311","826976","832035","19.541564","7.075903","0.002471","758845","835097","886137","16.578228","5.861587","-0.003193","693569","870644","963637","12.248051","3.984164","-0.035912","22829","29261","33345","17621","19911","21270","17113","17667","17981","17892","17310","16992","20045","15913","13921",""
"MA200-0420","21063","49","1","1.10","1.4","2023-05-03T08:28:59","120","2023/05/03","08:28:59","-15.763609528541565","35.02274782769382","4.4","13","30","64","81","3568","-26452","3280","8","150","149.76","111.06","38.70","28.31","47.4","16.04","90672","28.00","DUALSPOT-UV-BLUE-GREEN-RED-IR","600826","635617","905496","29.135094","11.367863","0.013752","722530","839451","837056","22.370532","8.346564","0.010474","726298","828233","834107","19.815718","7.182353","0.007674","759509","837022","888867","16.821676","5.947815","0.001479","693843","872180","965844","12.451511","4.042480","-0.028619","27002","38011","45054","20761","24744","27115","20494","22837","24169","21992","22355","22553","25592","21051","18868",""
"MA200-0420","21064","49","1","1.10","1.4","2023-05-03T08:29:29","120","2023/05/03","08:29:29","-15.763943254947662","35.021746495738626","5.1","13","30","64","80","3252","-26288","4288","8","150","149.41","110.99","38.41","28.33","47.5","16.09","90588","28.06","DUALSPOT-UV-BLUE-GREEN-RED-IR","600927","636388","907463","29.341896","11.468018","0.013496","723370","841166","839351","22.534928","8.419419","0.013726","726087","828712","835116","19.965990","7.245206","0.012350","759271","837415","889714","16.953664","5.999321","0.009724","693992","872885","966949","12.553890","4.077694","-0.000735","10943","15314","18118","10980","14060","15897","11240","13584","14919","11930","13452","14285","12885","12805","12767",""
"MA200-0420","21065","49","1","1.10","1.4","2023-05-03T08:29:59","120","2023/05/03","08:29:59","-15.764064371585846","35.021418660879135","0.5","13","30","64","80","2912","-26379","3654","8","150","149.94","110.87","39.07","28.37","47.6","16.16","90580","28.06","DUALSPOT-UV-BLUE-GREEN-RED-IR","600979","636828","908677","29.467106","11.532646","0.014690","723591","841895","840446","22.630600","8.461702","0.012754","721487","823828","830510","20.051128","7.282114","0.013236","759630","838198","890825","17.027748","6.028760","0.009681","693755","872915","967175","12.612724","4.096604","-0.011883","6633","9715","11696","6397","8022","8992","6375","7842","8678","6704","7558","8027","7413","6760","6446",""
"MA200-0420","21066","49","1","1.10","1.4","2023-05-03T08:30:29","120","2023/05/03","08:30:29","-15.764184772968292","35.02090382762253","1.3","13","30","64","80","-2570","-26816","1870","8","150","149.60","110.91","38.69","28.39","47.7","16.23","90588","28.13","DUALSPOT-UV-BLUE-GREEN-RED-IR","600655","636925","909483","29.609474","11.601505","0.013122","723319","842072","841020","22.734496","8.506662","0.012210","721787","824622","831608","20.143400","7.319782","0.010471","753869","832233","884774","17.108572","6.059916","0.008174","689487","867905","961792","12.672092","4.116181","-0.006963","7539","10453","12330","6944","8614","9612","6907","8082","8753","7311","8078","8499","7477","7068","6871",""
"MA200-0420","21067","49","1","1.10","1.4","2023-05-03T08:30:59","120","2023/05/03","08:30:59","-15.764103174209595","35.021169828251004","3.7","13","30","64","80","2100","-26663","1624","8","150","150.02","110.78","39.23","28.42","47.8","16.29","90580","28.13","DUALSPOT-UV-BLUE-GREEN-RED-IR","594272","634001","910037","30.722400","12.118439","0.011056","716827","839128","841759","23.717364","8.944288","0.012322","715481","821728","832029","21.054028","7.714219","0.012366","754706","837175","893069","17.917450","6.398601","0.012327","685738","866616","962772","13.308266","4.360474","0.008368","59006","77387","89359","65771","82688","92930","68245","83465","92266","73254","86605","94021","80221","86980","90274",""
"MA200-0420","21068","49","1","1.10","1.4","2023-05-03T08:31:29","120","2023/05/03","08:31:29","-15.763763308525085","35.02221849374473","3.2","13","30","64","80","-496","-26732","3156","8","150","150.02","111.12","38.90","28.44","47.9","16.34","90632","28.13","DUALSPOT-UV-BLUE-GREEN-RED-IR","589255","629142","903758","30.894162","12.198799","0.011563","710954","832852","835906","23.851630","8.999738","0.009384","714685","821368","831997","21.177338","7.762711","0.007690","754221","837138","893345","18.025560","6.437797","0.002906","689327","871618","968537","13.391701","4.385771","-0.018588","9079","12132","14124","8957","10566","11540","9213","10348","11005","9761","10108","10300","10489","9083","8398",""
"MA200-0420","21069","49","1","1.10","1.4","2023-05-03T08:31:59","120","2023/05/03","08:31:59","-15.763485372066498","35.022999826818705","3.6","13","30","64","80","112","-26260","4992","8","150","149.59","111.12","38.47","28.47","48.0","16.40","90704","28.13","DUALSPOT-UV-BLUE-GREEN-RED-IR","589450","629765","905218","31.021026","12.264214","0.014421","710913","833243","836679","23.945214","9.042481","0.014162","714876","821967","832887","21.260890","7.797854","0.011921","747917","830520","886518","18.098678","6.466753","0.010110","685298","866830","963440","13.448475","4.405893","0.002543","6705","9988","12134","6243","8237","9447","6242","7584","8362","6601","7551","8080","7137","7307","7390",""
"MA200-0420","21070","49","1","1.10","1.4","2023-05-03T08:32:29","120","2023/05/03","08:32:29","-15.763259649276733","35.0238253287971","4.4","13","30","64","80","5904","-25963","3832","8","150","149.35","110.74","38.61","28.49","48.1","16.43","90616","28.13","DUALSPOT-UV-BLUE-GREEN-RED-IR","586868","628264","904602","31.276588","12.382931","0.011348","708875","832230","836587","24.136866","9.118430","0.007459","712547","820574","832296","21.430946","7.862498","0.005824","746002","829543","886188","18.246244","6.518758","0.000905","683693","865785","962808","13.564602","4.448246","0.004728","13554","18060","21012","12829","14582","15646","12749","13900","14567","13369","13513","13593","14649","15323","15653",""
"MA200-0420","21071","49","1","1.10","1.4","2023-05-03T08:32:59","120","2023/05/03","08:32:59","-15.763201832771301","35.02509933151305","4.2","13","30","64","80","-1020","-27262","358","8","150","149.94","111.20","38.74","28.53","48.2","16.51","90588","28.19","DUALSPOT-UV-BLUE-GREEN-RED-IR","585661","627730","905002","31.649898","12.565845","0.012720","707811","831944","837085","24.437554","9.250072","0.011957","711673","820480","832898","21.711534","7.979444","0.010907","745193","829515","886814","18.499082","6.619266","0.009729","682750","865405","962898","13.765640","4.518745","0.000697","19718","27730","33006","20045","25189","28321","20949","25060","27449","22811","26027","27818","25255","25420","25500",""
"MA200-0420","21072","49","1","1.10","1.4","2023-05-03T08:33:29","120","2023/05/03","08:33:29","-15.762904465198517","35.02615166269243","4.7","13","30","64","80","2740","-26903","1048","8","150","149.44","111.01","38.43","28.55","48.3","16.56","90584","28.19","DUALSPOT-UV-BLUE-GREEN-RED-IR","585461","628130","906281","31.779144","12.629593","0.013009","707163","831826","837405","24.538444","9.295792","0.013536","711720","821097","833915","21.799628","8.017993","0.013513","746081","831056","888784","18.576592","6.651231","0.012356","683350","866590","964457","13.827015","4.539185","-0.004339","6838","9742","11658","6737","8819","10088","6588","8327","9339","7005","8344","9092","7723","7430","7286",""
"MA200-0420","21073","49","1","1.10","1.4","2023-05-03T08:33:59","120","2023/05/03","08:33:59","-15.762643039226532","35.02699916251004","0.2","13","30","64","80","5308","-26145","2620","8","150","149.90","110.78","39.12","28.58","48.2","16.57","90456","28.25","DUALSPOT-UV-BLUE-GREEN-RED-IR","584018","627660","906831","32.106350","12.769772","0.008143","706650","832346","838812","24.789816","9.399964","0.008813","710148","820326","833873","22.023106","8.107201","0.007768","744462","830135","888478","18.766500","6.725068","0.007248","682232","865979","964301","13.975033","4.590435","-0.002142","17348","21047","23489","16821","19741","21524","16748","18932","20205","17199","18936","19907","18665","18301","18123",""
"MA200-0420","21074","49","1","1.10","1.4","2023-05-03T08:34:29","120","2023/05/03","08:34:29","-15.762590169906616","35.02707582898438","0.5","13","30","64","80","475","-26796","2840","8","150","149.47","110.99","38.48","28.61","48.2","16.58","90452","28.25","DUALSPOT-UV-BLUE-GREEN-RED-IR","583087","627421","907474","32.354190","12.883972","0.010929","705781","832220","839367","24.995880","9.488639","0.011205","710136","821129","835322","22.212104","8.186656","0.011343","745182","831675","890666","18.931780","6.791208","0.010247","682644","867162","966010","14.101982","4.636516","0.004650","13115","17433","20290","13763","17084","19117","14137","17144","18899","14939","17245","18535","15977","16730","17099",""
"MA200-0420","21075","49","1","1.10","1.4","2023-05-03T08:34:59","120","2023/05/03","08:34:59","-15.762740433216095","35.027213994413614","5.9","13","30","72","80","3133","-26658","2262","8","150","149.72","111.27","38.45","28.65","48.3","16.66","90436","28.31","DUALSPOT-UV-BLUE-GREEN-RED-IR","579835","626675","909839","33.111554","13.235199","0.010962","702005","830979","840671","25.636192","9.769603","0.011842","702374","815073","831365","22.789926","8.434161","0.012090","742697","831568","892544","19.434216","6.999028","0.012112","589869","751204","838142","14.480644","4.781152","0.009386","39979","53653","62759","42661","54171","61259","43114","53443","59511","45303","54227","59249","47540","52549","55018",""
"MA200-0420","21076","49","1","1.10","1.4","2023-05-03T08:35:29","120","2023/05/03","08:35:29","-15.76424503326416","35.027935326099396","5.5","13","30","64","80","3428","-26356","3212","8","150","149.47","111.34","38.12","28.69","48.1","16.63","90336","28.38","DUALSPOT-UV-BLUE-GREEN-RED-IR","578580","626417","910975","33.506520","13.424747","0.011977","695860","824944","835675","25.957898","9.916822","0.013585","701317","814990","832208","23.082140","8.563183","0.013659","735778","824839","886153","19.687206","7.106245","0.013776","679930","866808","967743","14.672523","4.855372","0.011072","20835","29204","34800","21419","28629","33086","21788","28099","31820","22795","28217","31279","24073","27197","28742",""
"MA200-0420","21077","49","1","1.10","1.4","2023-05-03T08:35:59","120","2023/05/03","08:35:59","-15.765691697597504","35.028102826327085","6.6","13","30","64","80","2837","-26662","3320","8","150","149.34","111.24","38.10","28.72","47.8","16.57","90244","28.44","DUALSPOT-UV-BLUE-GREEN-RED-IR","571120","620404","904815","34.018932","13.667534","0.011480","693097","824008","836671","26.389008","10.111563","0.012913","698800","814201","833164","23.465290","8.732305","0.013423","733839","824598","887431","20.015030","7.246104","0.013887","674205","861096","962533","14.921093","4.954475","0.013213","27055","37427","44392","28730","37890","43580","28595","36851","41744","29566","36827","40947","31215","36335","38880",""
"MA200-0420","21078","49","1","1.10","1.4","2023-05-03T08:36:29","120","2023/05/03","08:36:29","-15.767410218715668","35.027711994946","7.0","13","30","64","79","2683","-26529","3379","8","150","149.10","111.79","37.31","28.73","47.6","16.49","90144","28.44","DUALSPOT-UV-BLUE-GREEN-RED-IR","568069","618784","904770","34.621608","13.951385","0.011776","689856","822250","836594","26.900178","10.341695","0.013444","695578","812341","832765","23.936802","8.939153","0.013954","730729","822808","886864","20.427694","7.420773","0.014503","671835","859501","961825","15.234837","5.079124","0.014572","31665","44680","53463","33898","45720","53103","35018","46022","52581","37035","46962","52626","39206","46664","50394",""
"MA200-0420","21079","49","1","1.10","1.4","2023-05-03T08:36:59","120","2023/05/03","08:36:59","-15.768835604190826","35.02687232941389","7.2","13","30","64","79","1927","-26816","2760","8","150","149.69","111.61","38.08","28.77","47.3","16.43","90096","28.50","DUALSPOT-UV-BLUE-GREEN-RED-IR","569066","620415","907913","34.813748","14.044228","0.011805","691383","824693","839619","27.063250","10.417521","0.013710","696348","813809","834716","24.085614","9.005052","0.013386","731868","824601","889234","20.559910","7.478211","0.014614","672424","860688","963486","15.337414","5.118160","0.009624","10111","14320","17166","10831","14761","17221","11069","14367","16336","11884","15132","16989","12838","14320","15062",""
"MA200-0420","21080","49","1","1.10","1.4","2023-05-03T08:37:29","120","2023/05/03","08:37:29","-15.770301580429077","35.02600699663162","5.9","13","30","64","79","2625","-26779","2562","8","150","149.59","111.91","37.67","28.80","47.1","16.40","90036","28.56","DUALSPOT-UV-BLUE-GREEN-RED-IR","568483","620251","908250","34.988224","14.125801","0.011281","690940","824715","840094","27.211502","10.483324","0.012542","696189","814147","835461","24.220716","9.063593","0.012985","732467","825783","890835","20.677228","7.526217","0.012239","673000","861843","965009","15.427059","5.152045","0.010091","9157","12717","15128","9820","12948","14908","10022","12900","14621","10517","12783","14080","11190","12564","13253",""
"MA200-0420","21081","49","1","1.10","1.4","2023-05-03T08:37:59","120","2023/05/03","08:37:59","-15.771850883960724","35.02520616538823","8.1","13","30","64","79","2150","-26825","2750","8","150","148.90","111.70","37.20","28.84","46.9","16.35","89948","28.56","DUALSPOT-UV-BLUE-GREEN-RED-IR","567581","619653","907962","35.109456","14.184437","0.012289","689661","823668","839437","27.315020","10.530121","0.013462","694371","812449","834106","24.315460","9.105939","0.014538","730283","823701","888926","20.759142","7.561588","0.015323","671294","860007","963226","15.490952","5.177809","0.015524","6374","9257","11212","6870","9325","10865","7041","9450","10892","7357","9539","10789","7990","9674","10520",""
"MA200-0420","21082","49","1","1.10","1.4","2023-05-03T08:38:29","120","2023/05/03","08:38:29","-15.773284196853638","35.02438849397004","4.3","13","30","72","79","4352","-27980","-4184","8","150","149.37","112.01","37.36","28.86","46.7","16.32","89904","28.56","DUALSPOT-UV-BLUE-GREEN-RED-IR","568180","620551","909560","35.192072","14.223198","0.011523","690492","824932","840975","27.385260","10.562064","0.013569","599406","701534","720410","24.377978","9.133013","0.013244","732509","826424","892073","20.814726","7.585415","0.014873","672830","862182","965797","15.534920","5.193391","0.005507","4332","6093","7287","4648","6337","7397","4634","6015","6843","4978","6397","7211","5483","5825","5996",""
"MA200-0420","21083","49","1","1.10","1.4","2023-05-03T08:38:59","120","2023/05/03","08:38:59","-15.773064196109772","35.02394532971084","2.4","13","30","64","79","725","-26537","3220","8","150","149.81","111.74","38.07","28.89","46.6","16.30","89932","28.63","DUALSPOT-UV-BLUE-GREEN-RED-IR","564553","616799","904236","35.246772","14.245304","0.006753","686070","819864","835953","27.432568","10.581522","0.009195","691788","809877","831805","24.420608","9.149699","0.007873","732402","826520","892276","20.852262","7.599532","0.006738","672712","862226","965932","15.564438","5.203220","-0.002258","2875","3410","3773","3138","3789","4197","3167","3639","3921","3370","3720","3921","3690","3607","3565",""
