"Serial number","Datum ID","Session ID","Data format version","Firmware version","App version","Date / time local","Timezone offset (mins)","Date local (yyyy/MM/dd)","Time local (hh:mm:ss)","GPS lat (ddmm.mmmmm)","GPS long (dddmm.mmmmm)","GPS speed (km/h)","GPS sat count","Timebase (s)","Status","Battery remaining (%)","Accel X","Accel Y","Accel Z","Tape position","Flow setpoint (mL/min)","Flow total (mL/min)","Flow1 (mL/min)","Flow2 (mL/min)","Sample temp (C)","Sample RH (%)","Sample dewpoint (C)","Internal pressure (Pa)","Internal temp (C)","Optical config","UV Sen1","UV Sen2","UV Ref","UV ATN1","UV ATN2","UV K","Blue Sen1","Blue Sen2","Blue Ref","Blue ATN1","Blue ATN2","Blue K","Green Sen1","Green Sen2","Green Ref","Green ATN1","Green ATN2","Green K","Red Sen1","Red Sen2","Red Ref","Red ATN1","Red ATN2","Red K","IR Sen1","IR Sen2","IR Ref","IR ATN1","IR ATN2","IR K","UV BC1","UV BC2","UV BCc","Blue BC1","Blue BC2","Blue BCc","Green BC1","Green BC2","Green BCc","Red BC1","Red BC2","Red BCc","IR BC1","IR BC2","IR BCc","Readable status"
"MA200-0420","26644","60","1","1.10","1.4","2023-05-28T11:36:31","120","2023/05/28","11:36:31","0","0","0.0","3","30","66","90","-76","-1504","-26384","2","150","150.07","114.13","35.94","23.52","54.5","13.81","90548","23.31","DUALSPOT-UV-BLUE-GREEN-RED-IR","814962","714729","905240","0.000000","0.000000","0.000000","908506","908542","835314","0.000000","0.000000","0.000000","892426","888677","834733","0.000000","0.000000","0.000000","908714","890803","893200","0.000000","0.000000","0.000000","785989","899657","962816","0.000000","0.000000","0.000000","","","","","","","","","","","","","","","","Start up"
"MA200-0420","26645","60","1","1.10","1.4","2023-05-28T11:37:01","120","2023/05/28","11:37:01","0","0","0.0","6","30","66","90","-80","-1424","-26603","2","150","149.60","114.05","35.55","23.61","54.7","13.97","90544","23.44","DUALSPOT-UV-BLUE-GREEN-RED-IR","815622","715828","906909","0.000000","0.000000","0.000000","909235","909572","836477","0.000000","0.000000","0.000000","891718","888220","834493","0.000000","0.000000","0.000000","899974","882411","885005","0.000000","0.000000","0.000000","784059","897773","960797","0.000000","0.000000","0.000000","","","","","","","","","","","","","","","","Start up"
"MA200-0420","26646","60","1","1.10","1.4","2023-05-28T11:37:31","120","2023/05/28","11:37:31","0","0","0.0","7","30","66","90","-141","-1450","-26504","2","150","149.82","113.90","35.92","23.71","54.4","13.97","90548","23.44","DUALSPOT-UV-BLUE-GREEN-RED-IR","818309","718452","910484","0.000000","0.000000","0.000000","911410","911902","838802","0.000000","0.000000","0.000000","888592","885230","831833","0.000000","0.000000","0.000000","903931","886380","889139","0.000000","0.000000","0.000000","786255","900502","963777","0.000000","0.000000","0.000000","","","","","","","","","","","","","","","","Start up"
"MA200-0420","26647","60","1","1.10","1.4","2023-05-28T11:38:01","120","2023/05/28","11:38:01","0","0","0.0","7","30","66","90","-8","-1480","-26428","2","150","149.32","113.66","35.65","23.80","54.1","13.96","90544","23.50","DUALSPOT-UV-BLUE-GREEN-RED-IR","813182","714429","905618","0.000000","0.000000","0.000000","913018","913860","840756","0.000000","0.000000","0.000000","888920","885824","832507","0.000000","0.000000","0.000000","903120","885751","888631","0.000000","0.000000","0.000000","786147","900540","963920","0.000000","0.000000","0.000000","","","","","","","","","","","","","","","","Start up"
"MA200-0420","26648","60","1","1.10","1.4","2023-05-28T11:38:31","120","2023/05/28","11:38:31","0","0","0.0","8","30","66","90","-62","-1525","-26537","2","150","149.87","114.22","35.65","23.89","53.8","13.96","90544","23.50","DUALSPOT-UV-BLUE-GREEN-RED-IR","813938","715534","907250","0.000000","0.000000","0.000000","905949","907104","834682","0.000000","0.000000","0.000000","889383","886493","833293","0.000000","0.000000","0.000000","905714","888466","891475","0.000000","0.000000","0.000000","786531","901197","964669","0.000000","0.000000","0.000000","","","","","","","","","","","","","","","","Start up"
"MA200-0420","26649","60","1","1.10","1.4","2023-05-28T11:39:01","120","2023/05/28","11:39:01","0","0","0.0","8","30","64","89","-52","-1436","-26347","2","150","149.34","114.01","35.33","23.98","53.5","13.94","90544","23.56","DUALSPOT-UV-BLUE-GREEN-RED-IR","814391","716337","908500","0.000000","0.000000","0.000000","907304","908704","836278","0.000000","0.000000","0.000000","889818","887172","833986","0.000000","0.000000","0.000000","906408","889281","892402","0.000000","0.000000","0.000000","786962","901887","965405","0.000000","0.000000","0.000000","","","","","","","","","","","","","","","",""
"MA200-0420","26650","60","1","1.10","1.4","2023-05-28T11:39:31","120","2023/05/28","11:39:31","0","0","0.0","9","30","64","89","-104","-1460","-26452","2","150","149.38","113.71","35.67","24.06","53.1","13.92","90540","23.63","DUALSPOT-UV-BLUE-GREEN-RED-IR","809573","712628","904113","0.111880","0.033462","0.000000","909220","911033","838582","0.065565","0.022006","0.000000","885698","883367","830545","0.050342","0.014609","0.000000","899937","883157","886354","0.039541","0.013924","0.000000","787825","903119","966798","0.031799","0.006725","0.000000","5779","5509","5779","4274","4572","4274","3675","3399","3675","3488","3916","3488","3906","2633","3906",""
"MA200-0420","26651","60","1","1.10","1.4","2023-05-28T11:40:01","120","2023/05/28","11:40:01","-15.79557603597641","35.002872332930565","0.1","10","30","64","89","-96","-1416","-26663","2","150","148.77","113.31","35.46","24.15","52.8","13.92","90540","23.69","DUALSPOT-UV-BLUE-GREEN-RED-IR","808888","712324","903899","0.180613","0.054563","0.000000","907981","909954","837696","0.102246","0.032788","0.000000","886396","884210","831436","0.081825","0.025505","0.000000","900105","883436","886713","0.062727","0.023077","0.000000","787850","903294","967016","0.054048","0.010770","0.000000","3562","3495","3562","2399","2254","2399","2306","2550","2306","2052","2589","2052","2743","1593","2743",""
"MA200-0420","26652","60","1","1.10","1.4","2023-05-28T11:40:31","120","2023/05/28","11:40:31","-15.79561048746109","35.002886166097596","0.0","10","30","64","89","-76","-1500","-26512","2","150","150.28","113.76","36.52","24.24","52.5","13.89","90544","23.69","DUALSPOT-UV-BLUE-GREEN-RED-IR","811643","714943","907333","0.221928","0.067571","0.000000","911877","913983","841477","0.123763","0.041723","0.000000","888537","886426","833563","0.098645","0.032234","0.000000","902571","885909","889270","0.076895","0.030077","0.000000","784069","899075","962526","0.070745","0.012684","0.000000","2133","2092","2133","1402","1813","1402","1227","1529","1227","1249","1923","1249","2050","732","2050",""
"MA200-0420","26653","60","1","1.10","1.4","2023-05-28T11:41:01","120","2023/05/28","11:41:01","-15.795621573925018","35.002901166444644","0.1","10","30","64","89","-44","-1456","-26636","2","150","149.76","113.55","36.21","24.32","52.0","13.85","90544","23.75","DUALSPOT-UV-BLUE-GREEN-RED-IR","813058","716687","909851","0.309487","0.095035","0.000000","906338","908829","836903","0.178927","0.060074","0.000000","889003","887237","834452","0.142490","0.046110","0.000000","904112","887658","891167","0.112283","0.043587","0.000000","784693","900031","963616","0.100955","0.018899","0.000000","4529","4454","4529","3601","3757","3601","3205","3181","3205","3126","3743","3126","3716","2397","3716",""
"MA200-0420","26654","60","1","1.10","1.4","2023-05-28T11:41:31","120","2023/05/28","11:41:31","-15.795612454414368","35.00289766630158","0.3","10","30","64","88","-4","-1428","-26563","2","150","149.44","113.74","35.69","24.40","51.7","13.80","90544","23.81","DUALSPOT-UV-BLUE-GREEN-RED-IR","811518","715947","909212","0.423142","0.128164","0.000000","904718","907676","836012","0.248838","0.080752","0.000000","888152","886773","834200","0.201094","0.063020","0.000000","902696","886568","890174","0.156801","0.056596","0.000000","783844","899316","962895","0.136165","0.026788","0.000000","5869","5451","5869","4556","4294","4556","4277","3933","4277","3926","3656","3926","4324","3087","4324",""
"MA200-0420","26655","60","1","1.10","1.4","2023-05-28T11:42:01","120","2023/05/28","11:42:01","-15.79563719034195","35.00290666637011","0.2","10","30","64","89","-112","-1450","-26704","2","150","149.61","113.67","35.94","24.48","51.4","13.79","90548","23.88","DUALSPOT-UV-BLUE-GREEN-RED-IR","806778","712925","906001","0.658485","0.195764","0.000000","907307","911253","839669","0.400716","0.124156","0.000000","883865","883254","831190","0.327670","0.100964","0.000000","898320","882861","886729","0.254368","0.086463","0.000000","785228","901354","965290","0.201745","0.043076","0.000000","12160","11048","12160","9905","8953","9905","9244","8765","9244","8611","8337","8611","8059","6331","8059",""
"MA200-0420","26656","60","1","1.10","1.4","2023-05-28T11:42:31","120","2023/05/28","11:42:31","-15.795572996139526","35.00289966608398","0.4","10","30","64","88","-54","-1354","-26545","2","150","149.72","113.79","35.93","24.58","51.1","13.79","90548","23.94","DUALSPOT-UV-BLUE-GREEN-RED-IR","808243","714507","908161","0.735191","0.219245","0.000000","908778","912934","841317","0.448704","0.140064","0.000000","885292","884894","832777","0.367671","0.111854","0.000000","899719","884337","888305","0.284856","0.097083","0.000000","785870","902232","966236","0.225708","0.047123","0.000000","3959","3838","3959","3126","3282","3126","2918","2516","2918","2688","2965","2688","2941","1573","2941",""
"MA200-0420","26657","60","1","1.10","1.4","2023-05-28T11:43:01","120","2023/05/28","11:43:01","-15.795605778694153","35.002919332822785","0.2","10","30","64","88","-152","-1452","-26368","2","150","150.08","113.57","36.51","24.63","50.8","13.77","90544","23.94","DUALSPOT-UV-BLUE-GREEN-RED-IR","807793","714317","908020","0.774443","0.229625","0.000000","901338","905612","834636","0.469816","0.145316","0.000000","884135","883825","831815","0.383633","0.115239","0.000000","899350","884100","888060","0.298929","0.100867","0.000000","785335","901753","965715","0.241228","0.048655","0.000000","2029","1669","2029","1378","1066","1378","1166","769","1166","1243","1039","1243","1908","586","1908",""
"MA200-0420","26658","60","1","1.10","1.4","2023-05-28T11:43:31","120","2023/05/28","11:43:31","-15.795575320720673","35.00291083310731","0.1","10","30","64","89","-54","-1420","-26504","2","150","149.41","113.99","35.42","24.71","50.5","13.72","90540","24.00","DUALSPOT-UV-BLUE-GREEN-RED-IR","810134","716591","911007","0.813991","0.241384","0.000000","904142","908540","837368","0.491708","0.153201","0.000000","886874","886633","834521","0.399988","0.120514","0.000000","903408","888145","892191","0.312501","0.106040","0.000000","782640","898766","962561","0.254789","0.050187","0.000000","2037","1949","2037","1423","1650","1423","1191","1236","1191","1194","1465","1194","1661","604","1661",""
"MA200-0420","26659","60","1","1.10","1.4","2023-05-28T11:44:01","120","2023/05/28","11:44:01","-15.795512735843658","35.00288233277388","0.5","11","30","64","88","-100","-1440","-26619","2","150","149.60","114.38","35.22","24.79","50.1","13.69","90544","24.06","DUALSPOT-UV-BLUE-GREEN-RED-IR","804782","712712","906510","0.945523","0.277503","0.000000","905991","910909","839752","0.550908","0.169312","0.000000","881896","882042","830294","0.445490","0.133914","0.000000","903901","888899","893021","0.343400","0.115237","0.000000","783433","899878","963779","0.278677","0.054438","0.000000","6754","6024","6754","3836","3391","3836","3302","3158","3302","2710","2620","2710","2917","1686","2917",""
"MA200-0420","26660","60","1","1.10","1.4","2023-05-28T11:44:31","120","2023/05/28","11:44:31","-15.7955841422081","35.00290266633965","0.1","11","30","64","88","-129","-1475","-26650","2","150","149.53","113.93","35.60","24.86","49.8","13.67","90540","24.13","DUALSPOT-UV-BLUE-GREEN-RED-IR","804627","713632","908243","1.174284","0.344200","0.000000","905682","911249","840300","0.658095","0.199663","0.000000","882364","882969","831367","0.526577","0.154704","0.000000","898523","883953","888214","0.401264","0.130843","0.000000","783698","900423","964434","0.313611","0.061563","0.000000","11793","11003","11793","6974","6319","6974","5908","4848","5908","5095","4397","5095","4283","2795","4283",""
"MA200-0420","26661","60","1","1.10","1.4","2023-05-28T11:45:01","120","2023/05/28","11:45:01","-15.79562622308731","35.002901666332036","0.3","11","30","64","88","-79","-1445","-26687","2","150","150.08","114.06","36.02","24.93","49.6","13.65","90540","24.19","DUALSPOT-UV-BLUE-GREEN-RED-IR","799551","709666","903405","1.283958","0.376533","0.000000","901416","907297","836808","0.714851","0.215703","0.000000","883277","884185","832580","0.570964","0.166940","0.000000","899588","885174","889522","0.433671","0.140629","0.000000","784741","901794","965943","0.335750","0.064909","0.000000","5647","5272","5647","3688","3300","3688","3230","2820","3230","2850","2725","2850","2711","1297","2711",""
"MA200-0420","26662","60","1","1.10","1.4","2023-05-28T11:45:31","120","2023/05/28","11:45:31","-15.79559999704361","35.002840833039954","0.3","11","30","64","88","-104","-1500","-26570","2","150","150.86","113.31","37.55","25.02","49.2","13.63","90540","24.25","DUALSPOT-UV-BLUE-GREEN-RED-IR","797936","708556","902207","1.355147","0.397935","0.000000","899510","905592","835290","0.752532","0.228506","0.000000","881953","883022","831568","0.600737","0.176823","0.000000","899818","885527","889927","0.454711","0.148739","0.000000","783732","900741","964864","0.354135","0.068778","0.000000","3690","3347","3690","2465","2527","2465","2181","2184","2181","1862","2166","1862","2266","1439","2266",""
"MA200-0420","26663","60","1","1.10","1.4","2023-05-28T11:46:01","120","2023/05/28","11:46:01","-15.795545995235443","35.00287533295341","0.1","11","30","64","88","-100","-1524","-26588","2","150","149.94","114.18","35.76","25.08","48.9","13.58","90540","24.31","DUALSPOT-UV-BLUE-GREEN-RED-IR","800668","711539","906328","1.446659","0.423910","0.000000","903108","909649","839193","0.803727","0.242155","0.000000","884748","886201","834627","0.640296","0.186586","0.000000","895727","881729","886198","0.483047","0.156274","0.000000","781095","897921","961869","0.376049","0.072723","0.000000","4707","4265","4707","3323","2829","3323","2876","2266","2876","2489","2113","2489","2681","1541","2681",""
"MA200-0420","26664","60","1","1.10","1.4","2023-05-28T11:46:31","120","2023/05/28","11:46:31","-15.795565783977509","35.00287733296864","0.1","12","30","64","87","-140","-1480","-26644","2","150","149.67","113.85","35.82","25.16","48.6","13.56","90536","24.38","DUALSPOT-UV-BLUE-GREEN-RED-IR","799924","711812","907081","1.633828","0.476499","0.000000","902098","909297","839069","0.909591","0.271469","0.000000","879213","881081","830056","0.722706","0.209027","0.000000","895004","881355","885967","0.543403","0.171635","0.000000","780382","897330","961298","0.413045","0.080729","0.000000","9656","8622","9656","6893","6066","6893","6009","5201","6009","5318","4302","5318","4539","3122","4539",""
"MA200-0420","26665","60","1","1.10","1.4","2023-05-28T11:47:01","120","2023/05/28","11:47:01","-15.795589804649353","35.002903833054006","0.1","12","30","64","88","-132","-1444","-26600","2","150","149.67","114.18","35.49","25.22","48.3","13.53","90528","24.38","DUALSPOT-UV-BLUE-GREEN-RED-IR","795948","709001","903864","1.770435","0.514783","0.000000","898609","906321","836551","0.989515","0.294511","0.000000","881273","883593","832544","0.785410","0.226390","0.000000","897836","884453","889215","0.589829","0.186734","0.000000","782115","899547","963739","0.443168","0.086975","0.000000","7027","6335","7027","5189","4813","5189","4559","4061","4559","4079","4268","4079","3685","2458","3685",""
"MA200-0420","26666","60","1","1.10","1.4","2023-05-28T11:47:31","120","2023/05/28","11:47:31","-15.795608222484589","35.00293416646309","0.1","12","30","64","88","-64","-1400","-26640","2","150","149.33","114.11","35.22","25.29","48.1","13.51","90524","24.44","DUALSPOT-UV-BLUE-GREEN-RED-IR","795800","709503","904831","1.911644","0.555187","0.000000","898933","907138","837502","1.076329","0.319748","0.000000","881882","884611","833653","0.853520","0.245380","0.000000","899671","886556","891451","0.640541","0.200697","0.000000","782994","900775","965102","0.475561","0.094102","0.000000","7268","6737","7268","5640","5311","5640","4955","4476","4955","4458","3977","4458","3965","2826","3965",""
"MA200-0420","26667","60","1","1.10","1.4","2023-05-28T11:48:01","120","2023/05/28","11:48:01","-15.795610010623932","35.00293583306484","0.3","12","30","64","88","-59","-1392","-26547","2","150","150.34","114.41","35.93","25.35","47.8","13.48","90528","24.50","DUALSPOT-UV-BLUE-GREEN-RED-IR","797366","711276","907356","1.992235","0.580671","0.000000","900725","909274","839600","1.124442","0.334185","0.000000","877062","879981","829385","0.891500","0.255781","0.000000","900327","887411","892365","0.670158","0.209267","0.000000","783651","901699","966161","0.496002","0.098469","0.000000","4137","4166","4137","3117","2978","3117","2755","2403","2755","2597","2393","2597","2495","1698","2495",""
"MA200-0420","26668","60","1","1.10","1.4","2023-05-28T11:48:31","120","2023/05/28","11:48:31","-15.795630693435669","35.0029628330376","0.4","13","30","64","88","-20","-1352","-26512","2","150","149.53","113.72","35.81","25.42","47.6","13.47","90532","24.56","DUALSPOT-UV-BLUE-GREEN-RED-IR","798264","712360","908819","2.045485","0.593427","0.000000","901669","910412","840702","1.157427","0.342833","0.000000","877808","880958","830321","0.920456","0.262367","0.000000","895333","882616","887602","0.691175","0.214602","0.000000","784240","902456","967005","0.512344","0.100795","0.000000","2750","2092","2750","2150","1790","2150","2113","1526","2113","1854","1494","1854","2007","907","2007",""
"MA200-0420","26669","60","1","1.10","1.4","2023-05-28T11:49:01","120","2023/05/28","11:49:01","-15.795605778694153","35.00294516654685","0.2","13","30","64","88","-62","-1387","-26525","2","150","150.62","113.89","36.74","25.48","47.4","13.47","90528","24.63","DUALSPOT-UV-BLUE-GREEN-RED-IR","792381","707526","902859","2.123315","0.614845","0.000000","895693","904694","835523","1.200653","0.352942","0.000000","878952","882298","831680","0.954210","0.271749","0.000000","896250","883655","888708","0.716489","0.222059","0.000000","785038","903558","968215","0.531648","0.103925","0.000000","4013","3424","4013","2813","2039","2813","2460","2120","2460","2229","2036","2229","2367","1190","2367",""
"MA200-0420","26670","60","1","1.10","1.4","2023-05-28T11:49:31","120","2023/05/28","11:49:31","-15.795624375343323","35.00296133314259","0.1","13","30","64","88","8","-1436","-26696","2","150","149.99","113.65","36.34","25.53","47.2","13.47","90532","24.69","DUALSPOT-UV-BLUE-GREEN-RED-IR","792944","708349","904050","2.189723","0.634119","0.000000","896733","905994","836825","1.240742","0.364923","0.000000","879416","883002","832379","0.984823","0.278407","0.000000","897284","884850","889965","0.740981","0.227969","0.000000","780492","898446","962779","0.550275","0.107194","0.000000","3432","3115","3432","2615","2443","2615","2236","1521","2236","2162","1631","2162","2289","1256","2289",""
"MA200-0420","26671","60","1","1.10","1.4","2023-05-28T11:50:01","120","2023/05/28","11:50:01","-15.795585691928864","35.00294516654685","0.2","13","30","64","86","-92","-1432","-26747","2","150","150.15","114.18","35.97","25.60","47.1","13.47","90536","24.75","DUALSPOT-UV-BLUE-GREEN-RED-IR","793132","708988","905127","2.268358","0.654735","0.000000","896109","905697","836627","1.283342","0.374280","0.000000","878994","882831","832311","1.018816","0.286263","0.000000","896916","884653","889815","0.766271","0.233676","0.000000","779976","897981","962280","0.567804","0.109839","0.000000","4045","3366","4045","2765","1928","2765","2471","1813","2471","2222","1591","2222","2144","1027","2144",""
"MA200-0420","26672","60","1","1.10","1.4","2023-05-28T11:50:31","120","2023/05/28","11:50:31","-15.795620739459991","35.002941499697044","0.2","13","30","64","88","-48","-1480","-26788","2","150","149.89","114.06","35.83","25.65","47.0","13.51","90532","24.75","DUALSPOT-UV-BLUE-GREEN-RED-IR","795531","711444","908431","2.348149","0.675647","0.000000","899372","909192","839902","1.319206","0.382124","0.000000","881384","885379","834737","1.046991","0.290960","0.000000","893024","880957","886134","0.786817","0.237069","0.000000","781867","900281","964741","0.581893","0.110298","0.000000","4108","3428","4108","2331","1623","2331","2050","1088","2050","1807","950","1807","1725","179","1725",""
"MA200-0420","26673","60","1","1.10","1.4","2023-05-28T11:51:01","120","2023/05/28","11:51:01","-15.795605957508087","35.00292266625911","0.6","13","30","64","87","-40","-1464","-26580","2","150","150.01","114.14","35.87","25.71","46.9","13.50","90536","24.81","DUALSPOT-UV-BLUE-GREEN-RED-IR","789654","706939","903029","2.444659","0.702562","0.000000","894265","904447","835679","1.362855","0.393402","0.000000","876609","880900","830614","1.079779","0.299787","0.000000","893754","881883","887160","0.809198","0.243664","0.000000","782388","901040","965590","0.597751","0.113851","0.000000","4966","4406","4966","2835","2330","2835","2385","2042","2385","1967","1844","1967","1940","1383","1940",""
"MA200-0420","26674","60","1","1.10","1.4","2023-05-28T11:51:31","120","2023/05/28","11:51:31","-15.795560836791992","35.00289866630919","0.4","13","30","64","87","-40","-1520","-26568","2","150","149.69","113.90","35.79","25.77","46.8","13.52","90536","24.88","DUALSPOT-UV-BLUE-GREEN-RED-IR","781786","705475","904151","3.460014","0.997291","-0.034657","891471","904307","836478","1.735157","0.495576","0.000000","875569","881767","832047","1.344328","0.367874","0.000000","893789","883237","888946","0.988841","0.287322","0.000000","782668","902075","966884","0.687057","0.131546","0.000000","52358","48367","46752","24230","21163","24230","19282","15793","19282","15823","12238","15823","10952","6906","10952",""
"MA200-0420","26675","60","1","1.10","1.4","2023-05-28T11:52:01","120","2023/05/28","11:52:01","-15.795595467090607","35.00285116629675","0.3","13","30","64","87","-25","-1470","-26575","2","150","150.33","114.14","36.19","25.83","46.7","13.55","90536","24.88","DUALSPOT-UV-BLUE-GREEN-RED-IR","779412","705877","906121","4.103954","1.199010","-0.004239","891645","905805","838335","1.979781","0.562209","0.000000","875021","882147","832746","1.522612","0.415515","0.000000","894128","884258","890179","1.110565","0.318254","0.000000","777825","896879","961426","0.751556","0.145231","0.000000","33136","32735","32570","15888","13647","15888","12967","10928","12967","10699","8574","10699","7893","5282","7893",""
"MA200-0420","26676","60","1","1.10","1.4","2023-05-28T11:52:31","120","2023/05/28","11:52:31","-15.795556128025055","35.00286249956116","0.0","13","30","64","87","-120","-1375","-26754","2","150","149.69","113.70","35.99","25.91","46.5","13.56","90540","24.94","DUALSPOT-UV-BLUE-GREEN-RED-IR","778227","705759","906592","4.320581","1.269821","0.010274","891447","906167","838913","2.074272","0.592314","0.000000","875586","883124","833819","1.590019","0.435268","0.000000","895361","885720","891774","1.158690","0.331575","0.000000","783467","903581","968673","0.780246","0.149780","0.000000","11190","11557","11710","6160","6201","6160","4921","4557","4921","4246","3713","4246","3524","1766","3524",""
"MA200-0420","26677","60","1","1.10","1.4","2023-05-28T11:53:01","120","2023/05/28","11:53:01","-15.795550346374512","35.00292333308607","0.3","13","30","64","86","-48","-1424","-26696","2","150","149.89","114.02","35.87","25.95","46.3","13.55","90540","25.00","DUALSPOT-UV-BLUE-GREEN-RED-IR","777209","705679","906941","4.496730","1.322719","-0.015257","890962","906223","839121","2.155066","0.614303","0.000000","874029","881949","832870","1.650691","0.451731","0.000000","893702","884385","890488","1.201170","0.343409","0.000000","777301","896602","961259","0.805318","0.155224","0.000000","9074","8662","8491","5253","4544","5253","4417","3810","4417","3737","3310","3737","3071","2120","3071",""
"MA200-0420","26678","60","1","1.10","1.4","2023-05-28T11:53:31","120","2023/05/28","11:53:31","-15.795548021793365","35.00292466627434","0.6","13","30","64","86","-112","-1483","-26625","2","150","149.89","113.39","36.50","25.96","46.2","13.52","90532","25.00","DUALSPOT-UV-BLUE-GREEN-RED-IR","773285","702792","903621","4.620263","1.361990","-0.003876","886322","901975","835361","2.219003","0.631624","0.000000","871401","879648","830777","1.697051","0.463438","0.000000","890239","881201","887403","1.235723","0.353217","0.000000","779430","899249","964147","0.825489","0.160131","0.000000","6399","6319","6286","4180","3518","4180","3394","2662","3394","3057","2695","3057","2484","1878","2484",""
"MA200-0420","26679","60","1","1.10","1.4","2023-05-28T11:54:01","120","2023/05/28","11:54:01","-15.795585215091705","35.00287599954754","0.3","13","30","64","86","-62","-1391","-26466","2","150","149.53","113.43","36.10","26.01","46.1","13.50","90532","25.06","DUALSPOT-UV-BLUE-GREEN-RED-IR","769515","702384","904816","5.205482","1.539102","-0.014371","885057","902758","836899","2.527249","0.722456","0.000000","870293","880042","831754","1.928424","0.529694","0.000000","889083","881167","887781","1.395607","0.397270","0.000000","779014","899386","964502","0.911842","0.181249","0.000000","30302","28817","28193","20145","18652","20145","16934","15237","16934","14141","12243","14141","10634","8172","10634",""
"MA200-0420","26680","60","1","1.10","1.4","2023-05-28T11:54:31","120","2023/05/28","11:54:31","-15.795597672462463","35.002952832961455","0.1","13","30","64","87","-62","-1433","-26495","2","150","149.82","113.47","36.35","26.07","45.9","13.52","90524","25.13","DUALSPOT-UV-BLUE-GREEN-RED-IR","767186","701990","905371","5.592861","1.662578","-0.001316","883810","902763","837409","2.738536","0.786113","0.000000","869129","879817","831919","2.088361","0.576674","0.000000","890561","883284","890216","1.509571","0.429870","0.000000","779501","900321","965643","0.971790","0.195874","0.000000","20052","19949","19906","13804","12981","13804","11702","10729","11702","10076","8996","10076","7380","5619","7380",""
"MA200-0420","26681","60","1","1.10","1.4","2023-05-28T11:55:01","120","2023/05/28","11:55:01","-15.79558402299881","35.00293433316983","0.2","13","30","64","86","-100","-1512","-26487","2","150","149.89","113.41","36.48","26.12","45.8","13.52","90524","25.19","DUALSPOT-UV-BLUE-GREEN-RED-IR","762958","700742","905245","6.058241","1.804807","-0.012640","880279","901185","836738","3.009122","0.864398","-0.054630","867095","879347","832074","2.297478","0.635612","0.000000","887828","881701","889074","1.659556","0.470989","0.000000","778243","899566","965040","1.054380","0.215476","0.000000","24102","22898","22387","17687","15907","15190","15308","13412","15308","13268","11307","13268","10173","7506","10173",""
"MA200-0420","26682","60","1","1.10","1.4","2023-05-28T11:55:31","120","2023/05/28","11:55:31","-15.795494973659515","35.00301399989985","0.3","13","30","64","86","-128","-1540","-26603","2","150","150.07","113.92","36.16","26.17","45.6","13.51","90524","25.19","DUALSPOT-UV-BLUE-GREEN-RED-IR","761339","701621","907814","6.589285","1.975206","0.002334","880648","903547","839692","3.342956","0.965988","-0.018419","866266","880017","833314","2.565080","0.715834","0.000000","889259","884311","892190","1.860122","0.529416","0.000000","778896","901005","966875","1.164602","0.244305","0.000000","27380","27680","27808","21724","20828","20464","19502","18420","19502","17663","16211","17663","13516","11137","13516",""
"MA200-0420","26683","60","1","1.10","1.4","2023-05-28T11:56:01","120","2023/05/28","11:56:01","-15.795636713504791","35.00284449988976","0.3","13","30","64","86","-75","-1512","-26462","2","150","150.15","113.39","36.76","26.22","45.4","13.49","90524","25.25","DUALSPOT-UV-BLUE-GREEN-RED-IR","760317","701935","909049","6.922838","2.086475","0.005758","880183","904015","840585","3.540075","1.028055","-0.011921","865496","879998","833604","2.719635","0.762116","0.000000","887383","882978","891076","1.971843","0.562757","0.000000","778500","900873","966880","1.227989","0.261856","0.000000","17278","17779","17995","12887","12517","12365","11316","10453","11316","9885","9099","9885","7809","6670","7809",""
"MA200-0420","26684","60","1","1.10","1.4","2023-05-28T11:56:31","120","2023/05/28","11:56:31","-15.795615792274475","35.002919499529526","1.3","13","30","64","86","-80","-1416","-26652","2","150","149.71","113.27","36.44","26.26","45.2","13.47","90524","25.25","DUALSPOT-UV-BLUE-GREEN-RED-IR","755325","698184","904702","7.094967","2.140245","-0.006098","873961","898266","835475","3.641421","1.057755","-0.039394","861846","876804","830773","2.799975","0.785875","0.000000","883120","879119","887381","2.032223","0.581320","0.000000","775105","897173","962986","1.261438","0.268957","0.000000","8925","8667","8555","6632","6042","5800","5888","5413","5888","5348","5111","5348","4125","2722","4125",""
"MA200-0420","26685","60","1","1.10","1.4","2023-05-28T11:57:01","120","2023/05/28","11:57:01","-15.795727133750916","35.00307466625236","0.6","13","30","64","86","-80","-1516","-26740","2","150","149.86","113.79","36.07","26.31","45.1","13.45","90524","25.31","DUALSPOT-UV-BLUE-GREEN-RED-IR","752851","698005","905754","7.544952","2.281061","-0.002497","873898","899587","837287","3.864968","1.124030","-0.026037","861065","877033","831396","2.968323","0.832754","0.000000","882383","879136","887653","2.151511","0.613149","0.000000","774835","897279","963228","1.323167","0.284185","0.000000","23227","22928","22798","14564","13619","13232","12283","10789","12283","10517","8852","10517","7578","5897","7578",""
"MA200-0420","26686","60","1","1.10","1.4","2023-05-28T11:57:31","120","2023/05/28","11:57:31","-15.795700490474701","35.0029961662367","0.2","13","30","64","85","-88","-1400","-26708","2","150","149.41","113.27","36.14","26.35","45.0","13.45","90520","25.31","DUALSPOT-UV-BLUE-GREEN-RED-IR","751742","697463","905341","7.658930","2.318330","0.004511","872879","898965","836825","3.929806","1.141720","-0.065235","860213","876512","831008","3.019124","0.846499","-0.088638","881564","878532","887104","2.187550","0.621635","0.000000","774213","896701","962622","1.343841","0.287511","0.000000","5910","6057","6121","4243","3629","3377","3723","3157","2937","3192","2355","3192","2549","1285","2549",""
"MA200-0420","26687","60","1","1.10","1.4","2023-05-28T11:58:01","120","2023/05/28","11:58:01","-15.795555710792542","35.00290199974552","0.4","13","30","64","86","-36","-1352","-26500","2","150","149.62","113.08","36.54","26.39","44.9","13.46","90520","25.38","DUALSPOT-UV-BLUE-GREEN-RED-IR","753168","699373","908177","7.783588","2.358616","0.000026","875231","901830","839640","4.001540","1.162254","-0.047893","861344","877972","832492","3.075069","0.861609","-0.096067","884260","881499","890208","2.228834","0.633034","0.000000","775903","898824","964925","1.367302","0.291261","0.000000","6474","6475","6476","4702","4166","3946","4107","3433","3170","3662","3130","3662","2898","1433","2898",""
"MA200-0420","26688","60","1","1.10","1.4","2023-05-28T11:58:31","120","2023/05/28","11:58:31","-15.79559201002121","35.003051333129406","0.7","13","30","64","86","-80","-1373","-26850","2","150","149.71","113.57","36.14","26.43","44.7","13.45","90516","25.38","DUALSPOT-UV-BLUE-GREEN-RED-IR","752217","699297","908576","7.936048","2.405172","-0.007728","875031","902246","840256","4.088569","1.186978","-0.043495","861244","878365","833036","3.141612","0.879478","-0.088044","884582","882172","890999","2.276223","0.645615","0.000000","775783","898907","965094","1.395135","0.297392","0.000000","7884","7567","7429","5680","5071","4822","4864","4105","3810","4186","3492","4186","3423","2370","3423",""
"MA200-0420","26689","60","1","1.10","1.4","2023-05-28T11:59:01","120","2023/05/28","11:59:01","-15.795669198036194","35.00301433331333","0.2","13","30","64","86","-16","-1370","-26750","2","150","150.08","113.60","36.48","26.47","44.6","13.44","90520","25.44","DUALSPOT-UV-BLUE-GREEN-RED-IR","752361","699830","909499","8.032879","2.438678","0.012474","874795","902300","840455","4.147101","1.204609","-0.023083","861558","878918","833661","3.187847","0.893211","-0.036523","885046","882830","891755","2.310037","0.655403","0.000000","776455","899802","966109","1.414831","0.301563","0.000000","5006","5394","5564","3819","3582","3485","3379","3125","3026","2986","2692","2986","2421","1597","2421",""
"MA200-0420","26690","60","1","1.10","1.4","2023-05-28T11:59:31","120","2023/05/28","11:59:31","-15.795574605464935","35.002883666427806","0.1","13","30","64","86","-59","-1560","-26480","2","150","149.67","113.06","36.61","26.51","44.6","13.45","90524","25.50","DUALSPOT-UV-BLUE-GREEN-RED-IR","745843","695007","903917","8.231794","2.497717","-0.016515","868658","896939","835813","4.264218","1.238507","-0.041242","856632","874632","829881","3.278345","0.918591","-0.069695","879256","877586","886643","2.375525","0.672816","0.000000","777129","900934","967429","1.452674","0.310318","0.000000","10333","9472","9097","7679","6864","6530","6645","5755","5409","5811","4771","5811","4675","3340","4675",""
"MA200-0420","26691","60","1","1.10","1.4","2023-05-28T12:00:01","120","2023/05/28","12:00:01","-15.795621037483215","35.00299249961972","0.3","13","30","64","85","-64","-1424","-26796","2","150","149.44","113.65","35.79","26.54","44.4","13.44","90524","25.50","DUALSPOT-UV-BLUE-GREEN-RED-IR","744438","695104","904988","8.584743","2.613815","0.007004","867526","896924","836306","4.475970","1.303166","-0.010008","856496","875403","830967","3.447121","0.967156","-0.039533","879228","878263","887603","2.500048","0.707517","0.000000","777196","901437","968092","1.520547","0.326576","0.000000","18241","19053","19408","13812","13392","13220","12329","11265","10850","10992","9727","10992","8342","6345","8342",""
"MA200-0420","26692","60","1","1.10","1.4","2023-05-28T12:00:31","120","2023/05/28","12:00:31","-15.79565167427063","35.00286016636528","0.0","13","30","64","86","-119","-1448","-26552","2","150","149.89","113.78","36.10","26.58","44.3","13.44","90520","25.56","DUALSPOT-UV-BLUE-GREEN-RED-IR","745134","696290","906842","8.705368","2.654596","0.009893","868745","898662","838080","4.553933","1.326930","-0.012910","856754","876088","831752","3.510594","0.984937","-0.055411","880035","879325","888788","2.548251","0.722312","0.000000","772798","896512","962854","1.549873","0.333426","0.000000","6226","6634","6813","5079","4879","4797","4631","4088","3877","4250","4111","4250","3600","2650","3600",""
"MA200-0420","26693","60","1","1.10","1.4","2023-05-28T12:01:01","120","2023/05/28","12:01:01","-15.795640170574188","35.00296266656369","0.3","13","30","64","86","-124","-1292","-26652","2","150","150.21","113.43","36.78","26.62","44.2","13.44","90516","25.56","DUALSPOT-UV-BLUE-GREEN-RED-IR","744981","696627","907572","8.804893","2.686756","-0.000591","868887","899240","838796","4.620356","1.345765","-0.046624","856132","875775","831594","3.564113","1.000797","-0.038191","879869","879470","889041","2.588252","0.733385","0.000000","772566","896433","962819","1.574205","0.338572","0.000000","5153","5135","5127","4341","3795","3571","3917","3579","3447","3538","3020","3538","2996","1954","2996",""
"MA200-0420","26694","60","1","1.10","1.4","2023-05-28T12:01:31","120","2023/05/28","12:01:31","-15.795641303062439","35.0029768331442","0.3","13","30","64","85","-66","-1441","-26600","2","150","149.50","113.31","36.19","26.65","44.1","13.42","90520","25.63","DUALSPOT-UV-BLUE-GREEN-RED-IR","741449","695109","906684","9.110344","2.780229","-0.007033","866291","898157","838427","4.831839","1.409024","-0.020359","854194","875136","831518","3.739601","1.051950","-0.036990","877103","877752","887706","2.722121","0.770434","0.000000","771362","895672","962254","1.655038","0.358703","0.000000","15833","15171","14880","13836","12958","12597","12858","11735","11295","11853","10271","11853","9965","7770","9965",""
"MA200-0420","26695","60","1","1.10","1.4","2023-05-28T12:02:01","120","2023/05/28","12:02:01","-15.795674920082092","35.00293583306484","0.2","13","30","64","85","-72","-1460","-26628","2","150","149.87","113.31","36.56","26.69","43.9","13.41","0","0.00","DUALSPOT-UV-BLUE-GREEN-RED-IR","739843","696206","909729","9.579590","2.932897","0.001220","864663","899099","840332","5.176193","1.512664","-0.020311","853356","876445","833574","4.028874","1.136309","-0.038450","878186","880550","891236","2.947624","0.834947","0.000000","771655","897149","964243","1.791734","0.393619","0.000000","24324","24523","24612","22529","21012","20386","21195","19154","18352","19966","17701","19966","16852","13339","16852",""
"MA200-0420","26696","60","1","1.10","1.4","2023-05-28T12:02:31","120","2023/05/28","12:02:31","-15.795539021492004","35.00288683292456","0.1","13","30","64","85","-100","-1544","-26680","2","150","149.84","113.12","36.71","26.72","43.8","13.40","0","0.00","DUALSPOT-UV-BLUE-GREEN-RED-IR","729505","689755","903499","10.406799","3.207367","0.003000","854521","891856","835033","5.807603","1.710063","-0.009467","849810","875653","834067","4.571885","1.302659","-0.018631","875862","880482","892169","3.376732","0.962443","-0.039727","770372","897078","964797","2.051181","0.464435","0.000000","42951","43909","44335","41379","39857","39222","39853","37616","36725","38058","34839","33556","32039","26944","32039",""
"MA200-0420","26697","60","1","1.10","1.4","2023-05-28T12:03:01","120","2023/05/28","12:03:01","-15.795565485954285","35.0029084996786","0.2","13","30","64","85","-12","-1412","-26612","2","150","150.07","113.67","36.40","26.76","43.8","13.41","90512","25.69","DUALSPOT-UV-BLUE-GREEN-RED-IR","728277","690110","904936","10.750023","3.324192","0.007784","853492","892393","836211","6.076885","1.795494","-0.002161","843748","870758","829988","4.804528","1.373070","-0.017271","875533","881304","893493","3.564247","1.017883","-0.033686","770441","897921","965999","2.166330","0.496657","0.000000","17734","18853","19353","17561","17400","17333","16991","16061","15689","16549","15282","14775","14150","12367","14150",""
"MA200-0420","26698","60","1","1.10","1.4","2023-05-28T12:03:31","120","2023/05/28","12:03:31","-15.795593321323395","35.002927999710664","0.3","13","30","64","85","-54","-1341","-26708","2","150","149.37","113.09","36.28","26.79","43.7","13.41","90504","25.69","DUALSPOT-UV-BLUE-GREEN-RED-IR","726882","690085","905837","11.044821","3.426948","0.010099","852236","892460","836912","6.310100","1.871520","0.003571","847094","875387","834926","5.006021","1.437127","-0.002546","867359","874024","886554","3.726066","1.068228","-0.011849","769398","897357","965674","2.268690","0.524529","0.000000","15310","16636","17232","15287","15535","15639","14792","14659","14605","14355","13922","13748","12643","10732","12643",""
"MA200-0420","26699","60","1","1.10","1.4","2023-05-28T12:04:01","120","2023/05/28","12:04:01","-15.79561972618103","35.00290549965575","0.3","13","30","64","85","45","-1250","-27066","2","150","149.69","113.74","35.95","26.82","43.5","13.38","90504","25.75","DUALSPOT-UV-BLUE-GREEN-RED-IR","725569","690055","906605","11.314554","3.517168","0.006898","850926","892377","837366","6.521929","1.938187","-0.000913","841821","871039","831218","5.186635","1.491820","-0.012028","867637","875195","888150","3.872715","1.111074","-0.030590","769832","898470","967064","2.359562","0.546903","0.000000","13928","14741","15107","13806","13748","13724","13183","12631","12409","12935","11958","11565","11160","8694","11160",""
"MA200-0420","26700","60","1","1.10","1.4","2023-05-28T12:04:31","120","2023/05/28","12:04:31","-15.795592844486237","35.00294566643424","0.1","13","30","64","85","-28","-1412","-26508","2","150","149.89","113.39","36.50","26.85","43.5","13.39","90504","25.75","DUALSPOT-UV-BLUE-GREEN-RED-IR","723593","689900","907548","11.682171","3.637710","0.002262","849445","892718","838498","6.819308","2.029782","-0.009592","839441","870228","831108","5.447608","1.570159","-0.019213","865837","874703","888187","4.082285","1.172866","-0.032724","768622","897944","966894","2.492904","0.584489","0.000000","19042","19398","19559","19442","18604","18248","19108","17819","17298","18543","16985","16357","16427","14386","16427",""
"MA200-0420","26701","60","1","1.10","1.4","2023-05-28T12:05:01","120","2023/05/28","12:05:01","-15.79558914899826","35.00297333300114","0.1","13","30","64","85","-64","-1480","-26647","2","150","150.02","113.59","36.43","26.89","43.4","13.38","90496","25.81","DUALSPOT-UV-BLUE-GREEN-RED-IR","721681","688755","906519","11.876778","3.707153","0.011840","847579","891449","837618","6.972635","2.080875","0.007544","838078","869400","830596","5.581295","1.612627","-0.002443","863800","873178","886864","4.191486","1.205647","-0.023581","767365","896849","965799","2.559059","0.601086","0.000000","10063","11195","11709","10007","10396","10562","9771","9678","9640","9645","9027","8777","8136","6364","8136",""
"MA200-0420","26702","60","1","1.10","1.4","2023-05-28T12:05:31","120","2023/05/28","12:05:31","-15.795563161373138","35.002926166402176","0.2","13","30","64","85","-204","-1532","-26691","2","150","149.90","113.42","36.48","26.92","43.2","13.34","90500","25.81","DUALSPOT-UV-BLUE-GREEN-RED-IR","722663","690400","909167","12.020422","3.753700","0.000914","848645","893288","839651","7.079375","2.113652","-0.009717","839508","871473","832838","5.673927","1.641351","-0.009338","866812","876725","890666","4.265506","1.228229","-0.018203","764838","894236","963147","2.608236","0.614682","0.000000","7438","7495","7521","6976","6661","6527","6780","6537","6439","6547","6211","6075","6056","5207","6056",""
"MA200-0420","26703","60","1","1.10","1.4","2023-05-28T12:06:01","120","2023/05/28","12:06:01","-15.79551613330841","35.00291883293539","0.5","13","30","64","85","-40","-1476","-26640","2","150","150.58","113.57","37.01","26.95","43.0","13.31","90500","25.88","DUALSPOT-UV-BLUE-GREEN-RED-IR","716921","685595","903235","12.145954","3.796152","0.004294","848393","893731","840351","7.176853","2.142882","-0.017874","839112","871712","833261","5.757660","1.664936","-0.040932","866657","877077","891215","4.333685","1.247328","-0.056612","764660","894366","963393","2.652300","0.624108","0.000000","6492","6737","6849","6362","5855","5639","6121","5291","4953","6022","5177","4836","5419","3558","5419",""
"MA200-0420","26704","60","1","1.10","1.4","2023-05-28T12:06:31","120","2023/05/28","12:06:31","-15.795564115047455","35.00291849975474","0.1","13","30","64","85","29","-1375","-26779","2","150","149.67","113.35","36.32","26.97","42.9","13.29","90496","25.88","DUALSPOT-UV-BLUE-GREEN-RED-IR","713770","684038","902128","12.454872","3.894979","-0.000203","845458","892110","839483","7.415331","2.214347","-0.013749","836804","870589","832720","5.964970","1.724088","-0.030573","864560","876004","890547","4.500401","1.292772","-0.058947","763065","893205","962407","2.759727","0.650536","0.000000","16008","15980","15967","15597","14585","14154","15185","13519","12842","14756","12551","11662","13240","10163","13240",""
"MA200-0420","26705","60","1","1.10","1.4","2023-05-28T12:07:01","120","2023/05/28","12:07:01","-15.795579850673676","35.00297349970788","0.3","13","30","64","85","-66","-1337","-26716","2","150","149.81","113.02","36.79","27.00","42.9","13.30","90492","25.88","DUALSPOT-UV-BLUE-GREEN-RED-IR","711232","684661","904942","12.987101","4.071024","0.001779","837939","887356","836334","7.820970","2.340894","-0.008055","834177","870540","833799","6.313073","1.831269","-0.013047","863168","876805","892306","4.779898","1.374684","-0.033995","762491","894000","963861","2.937105","0.698790","0.000000","27659","28108","28313","26607","25502","25030","25571","24189","23625","24811","22340","21342","21924","18324","21924",""
"MA200-0420","26706","60","1","1.10","1.4","2023-05-28T12:07:31","120","2023/05/28","12:07:31","-15.79555630683899","35.00293216621503","0.3","13","30","64","85","-28","-1384","-26512","2","150","149.91","113.26","36.65","27.04","42.8","13.32","90496","25.94","DUALSPOT-UV-BLUE-GREEN-RED-IR","707396","683760","905862","13.766470","4.348009","0.009132","827880","879542","830377","8.425570","2.541774","0.004395","830919","869677","834183","6.844493","2.003425","0.000250","859964","875669","892209","5.216155","1.513788","-0.004011","760773","893430","963912","3.214447","0.781308","-0.036998","40417","44393","46229","39573","40635","41094","38954","39001","39021","38644","38082","37852","34207","31455","30571",""
"MA200-0420","26707","60","1","1.10","1.4","2023-05-28T12:08:01","120","2023/05/28","12:08:01","-15.795564830303192","35.002914499724284","0.3","13","30","64","85","-87","-1450","-26645","2","150","149.47","113.27","36.20","27.06","42.8","13.33","90496","25.94","DUALSPOT-UV-BLUE-GREEN-RED-IR","706042","683195","905673","13.966120","4.422584","0.014178","832923","885677","836548","8.581635","2.596103","0.013215","830347","869748","834549","6.980445","2.048558","0.007438","853462","869618","886279","5.328535","1.549876","0.001248","760631","893671","964337","3.288046","0.801822","-0.061911","10353","12099","12909","10214","11125","11520","9965","10350","10510","9954","10001","10020","9077","7916","7541",""
"MA200-0420","26708","60","1","1.10","1.4","2023-05-28T12:08:31","120","2023/05/28","12:08:31","-15.795571029186249","35.002901333151385","0.2","13","30","64","85","-120","-1366","-26795","2","150","150.08","113.88","36.21","27.09","42.7","13.33","90496","25.94","DUALSPOT-UV-BLUE-GREEN-RED-IR","706775","684032","907114","14.028824","4.450538","0.026419","834033","887031","838045","8.631184","2.616185","0.032749","826385","865733","830945","7.027106","2.067190","0.037859","854370","870626","887556","5.368325","1.564152","0.028566","761479","894766","965634","3.314161","0.808678","-0.090454","3234","4534","5138","3225","4111","4496","3401","4272","4634","3505","3955","4140","3203","2645","2464",""
"MA200-0420","26709","60","1","1.10","1.4","2023-05-28T12:09:01","120","2023/05/28","12:09:01","-15.795571148395538","35.00289733312093","0.2","13","30","64","84","-32","-1404","-26647","2","150","149.65","113.31","36.34","27.11","42.7","13.33","90496","26.00","DUALSPOT-UV-BLUE-GREEN-RED-IR","705728","683222","906186","14.075190","4.477918","0.039242","832888","886020","837247","8.672884","2.643334","0.068840","829574","869241","834432","7.062301","2.090716","0.085853","852195","868610","885540","5.397516","1.584409","0.115289","759928","893084","963871","3.335556","0.820206","0.142158","2403","4425","5368","2728","5538","6770","2578","5374","6550","2584","5592","6842","2637","4431","5016",""
"MA200-0420","26710","60","1","1.10","1.4","2023-05-28T12:09:31","120","2023/05/28","12:09:31","-15.795574128627777","35.00288849975914","0.1","13","30","64","85","-112","-1416","-26675","2","150","150.15","113.31","36.84","27.14","42.6","13.32","90496","26.00","DUALSPOT-UV-BLUE-GREEN-RED-IR","705860","684561","908659","14.223806","4.521406","-0.012069","833352","887730","839288","8.785866","2.673834","-0.036708","825481","866006","831678","7.159046","2.115339","-0.062229","853866","871178","888454","5.475396","1.603431","-0.099099","761303","895353","966468","3.388685","0.830279","-0.363726","7703","6933","6575","7391","6137","5589","7088","5549","4903","6895","5180","4470","6550","3819","2933",""
"MA200-0420","26711","60","1","1.10","1.4","2023-05-28T12:10:01","120","2023/05/28","12:10:01","-15.795527040958405","35.00287083280273","0.2","13","30","64","85","-54","-1550","-26620","2","150","149.60","113.35","36.25","27.16","42.5","13.32","90496","26.06","DUALSPOT-UV-BLUE-GREEN-RED-IR","701408","683082","908748","14.896055","4.751596","0.006314","829283","886197","839168","9.281668","2.833181","0.000763","822555","865389","832162","7.591248","2.249831","-0.005254","852488","871771","890004","5.826243","1.709190","-0.015184","759992","895192","966903","3.615005","0.889703","-0.086121","34834","37297","38450","32426","32586","32657","31656","30802","30442","31053","29270","28529","27892","22899","21270",""
"MA200-0420","26712","60","1","1.10","1.4","2023-05-28T12:10:31","120","2023/05/28","12:10:31","-15.795528054237366","35.00286249956116","0.3","13","30","64","85","-8","-1433","-26650","2","150","150.07","113.44","36.64","27.20","42.5","13.34","90496","26.06","DUALSPOT-UV-BLUE-GREEN-RED-IR","695040","678018","902881","15.220924","4.870134","0.010532","828784","886879","840369","9.528621","2.916705","0.006693","821390","865187","832466","7.808239","2.320284","0.000967","851079","871247","889873","6.004515","1.764523","-0.009718","759509","895257","967198","3.729299","0.922270","-0.049710","16820","19004","20032","16138","16901","17237","15880","15965","16001","15766","15152","14897","14074","12417","11873",""
"MA200-0420","26713","60","1","1.10","1.4","2023-05-28T12:11:01","120","2023/05/28","12:11:01","-15.79557067155838","35.002887832932174","0.1","13","30","64","85","-75","-1483","-26587","2","150","149.81","113.10","36.70","27.21","42.4","13.33","90492","26.06","DUALSPOT-UV-BLUE-GREEN-RED-IR","694851","678410","903830","15.361593","4.922130","0.011057","822522","880768","834871","9.636646","2.952575","0.003363","821246","865548","833042","7.902202","2.350879","0.000605","851020","871614","890439","6.081274","1.788242","-0.011930","759485","895522","967625","3.779314","0.935071","-0.103262","7305","8320","8799","7080","7245","7317","6897","6920","6930","6808","6483","6348","6177","4872","4443",""
"MA200-0420","26714","60","1","1.10","1.4","2023-05-28T12:11:31","120","2023/05/28","12:11:31","-15.795554161071777","35.00288949953392","0.0","13","30","64","84","-37","-1329","-26583","2","150","149.95","113.03","36.92","27.25","42.4","13.34","90488","26.13","DUALSPOT-UV-BLUE-GREEN-RED-IR","693349","677322","902644","15.455454","4.957199","0.011312","820305","878765","833166","9.708619","2.975922","-0.001023","820179","864800","832488","7.965772","2.372038","0.003323","850066","870943","889887","6.133468","1.804087","-0.018113","758589","894695","966808","3.813821","0.943573","-0.127135","4877","5579","5910","4720","4688","4673","4669","4758","4796","4632","4305","4169","4264","3216","2872",""
"MA200-0420","26715","60","1","1.10","1.4","2023-05-28T12:12:01","120","2023/05/28","12:12:01","-15.795593619346619","35.002905833069235","0.1","13","30","64","85","-29","-1466","-26687","2","150","150.08","113.80","36.28","27.26","42.3","13.34","90492","26.13","DUALSPOT-UV-BLUE-GREEN-RED-IR","694704","678933","905050","15.522854","4.980203","0.006057","822014","880904","835325","9.760631","2.992731","0.001966","821484","866449","834157","8.010414","2.383989","-0.036941","852446","873572","892676","6.170823","1.814769","-0.027720","755362","891066","962922","3.839775","0.948854","-0.240875","3478","3723","3839","3388","3434","3454","3256","2734","2513","3293","2953","2812","3185","2033","1655",""
"MA200-0420","26716","60","1","1.10","1.4","2023-05-28T12:12:31","120","2023/05/28","12:12:31","-15.795589327812195","35.00291799986735","0.1","13","30","64","84","-64","-1444","-26652","2","150","150.02","113.78","36.23","27.29","42.3","13.35","90492","26.19","DUALSPOT-UV-BLUE-GREEN-RED-IR","694527","679119","905511","15.596926","5.004852","0.003983","822523","881746","836234","9.809664","3.007674","-0.006743","821589","866797","834598","8.051224","2.395862","-0.017419","845522","866716","885739","6.203908","1.823930","-0.036543","755305","891159","963053","3.861568","0.952784","-0.351584","3823","3995","4076","3194","3057","2996","2977","2720","2611","2917","2536","2378","2675","1515","1134",""
"MA200-0420","26717","60","1","1.10","1.4","2023-05-28T12:13:01","120","2023/05/28","12:13:01","-15.79563820362091","35.002923666499555","0.1","13","30","64","84","-83","-1508","-26866","2","150","149.77","113.42","36.35","27.31","42.2","13.35","90484","26.19","DUALSPOT-UV-BLUE-GREEN-RED-IR","693242","678178","904454","15.668711","5.029249","0.005217","821328","880798","835454","9.861922","3.023529","-0.008450","820134","865530","833487","8.096316","2.408320","-0.030186","850375","871924","891125","6.240476","1.832799","-0.084164","754053","889873","961695","3.886253","0.957976","-0.215793","3717","3942","4048","3415","3233","3152","3300","2845","2652","3234","2447","2120","3040","1995","1653",""
"MA200-0420","26718","60","1","1.10","1.4","2023-05-28T12:13:31","120","2023/05/28","12:13:31","-15.795529901981354","35.002899332903326","0.3","13","30","64","84","-108","-1495","-26520","2","150","149.69","113.78","35.91","27.32","42.2","13.36","90476","26.19","DUALSPOT-UV-BLUE-GREEN-RED-IR","695376","680484","907721","15.726622","5.049339","0.008112","823518","883425","838050","9.904771","3.035020","-0.027894","816381","861762","829961","8.132655","2.419067","-0.012085","845993","867600","886804","6.269047","1.840755","-0.031880","755484","891635","963671","3.904972","0.962639","-0.099314","2989","3286","3426","2791","2372","2187","2651","2484","2414","2519","2222","2099","2298","1814","1655",""
"MA200-0420","26719","60","1","1.10","1.4","2023-05-28T12:14:01","120","2023/05/28","12:14:01","-15.795522153377533","35.00289099966176","0.2","13","30","64","84","-104","-1492","-26803","2","150","150.33","113.42","36.91","27.35","42.1","13.35","90476","26.19","DUALSPOT-UV-BLUE-GREEN-RED-IR","694627","679942","907110","15.765472","5.062645","0.004545","823097","883110","837852","9.932420","3.044587","0.008412","816833","862414","830620","8.157719","2.426076","-0.030681","847138","868855","888169","6.288992","1.846762","-0.018742","756063","892450","964564","3.918781","0.965423","-0.260428","2011","2117","2167","1807","1921","1971","1834","1576","1467","1764","1632","1578","1700","1053","841",""
"MA200-0420","26720","60","1","1.10","1.4","2023-05-28T12:14:31","120","2023/05/28","12:14:31","-15.79547131061554","35.002896666526794","0.7","13","30","64","84","-104","-1432","-26744","2","150","150.21","113.82","36.39","27.38","42.0","13.34","90480","26.25","DUALSPOT-UV-BLUE-GREEN-RED-IR","694347","680556","908548","15.952499","5.125437","0.004313","823217","883900","838854","10.030388","3.072881","-0.016137","816605","862695","831087","8.233655","2.446401","-0.036603","846007","868104","887497","6.343821","1.859935","-0.085476","755576","892132","964307","3.951212","0.972237","-0.210962","9651","10135","10364","6380","5764","5491","5538","4637","4256","4832","3631","3133","3980","2616","2170",""
"MA200-0420","26721","60","1","1.10","1.4","2023-05-28T12:15:01","120","2023/05/28","12:15:01","-15.795435965061188","35.00284233316779","0.4","13","30","64","84","-150","-1387","-26691","2","150","150.08","113.76","36.31","27.40","41.9","13.33","90480","26.25","DUALSPOT-UV-BLUE-GREEN-RED-IR","693895","680496","908781","16.051411","5.162153","0.012063","823213","884207","839278","10.087282","3.091442","0.003050","816206","862511","831019","8.280479","2.460933","-0.004969","846414","868713","888185","6.378177","1.868795","-0.058489","755555","892226","964437","3.972847","0.975614","-0.528645","5106","5938","6333","3707","3789","3825","3417","3322","3282","3029","2447","2206","2656","1298","856",""
"MA200-0420","26722","60","1","1.10","1.4","2023-05-28T12:15:31","120","2023/05/28","12:15:31","-15.795477330684662","35.002832332858816","0.2","13","30","64","84","-64","-1364","-26744","2","150","150.00","113.96","36.04","27.42","41.9","13.32","90480","26.25","DUALSPOT-UV-BLUE-GREEN-RED-IR","689058","676107","903102","16.124090","5.184904","-0.000952","823315","884618","839761","10.131917","3.103304","-0.029533","816984","863593","832122","8.317005","2.470404","-0.041426","847763","870321","889897","6.407051","1.875120","-0.119928","756669","893709","966068","3.992065","0.978873","-0.399073","3745","3707","3689","2903","2439","2234","2660","2181","1979","2541","1760","1437","2355","1263","908",""
"MA200-0420","26723","60","1","1.10","1.4","2023-05-28T12:16:01","120","2023/05/28","12:16:01","-15.795484840869904","35.00283466652036","0.2","13","30","64","84","-79","-1504","-26620","2","150","149.76","113.66","36.09","27.44","41.8","13.30","90484","26.31","DUALSPOT-UV-BLUE-GREEN-RED-IR","688504","676097","903452","16.233007","5.221473","0.004807","823658","885371","840644","10.192762","3.122228","-0.002982","816793","863749","832381","8.366615","2.483564","-0.036507","847113","869878","889524","6.442667","1.884348","-0.054588","756250","893378","965742","4.014482","0.982739","-0.381416","5628","5951","6104","3968","3887","3851","3623","3027","2775","3143","2565","2325","2755","1496","1088",""
"MA200-0420","26724","60","1","1.10","1.4","2023-05-28T12:16:31","120","2023/05/28","12:16:31","-15.795498788356781","35.00287116621621","0.1","13","30","64","83","-72","-1380","-26644","2","150","150.01","113.43","36.58","27.45","41.7","13.28","90480","26.31","DUALSPOT-UV-BLUE-GREEN-RED-IR","686253","674357","901469","16.344511","5.261621","0.008978","821370","883259","838818","10.252853","3.140497","-0.008762","815309","862414","831241","8.415070","2.497893","-0.015884","845628","868606","888323","6.481263","1.895783","-0.020007","755116","892219","964517","4.038568","0.987766","-0.216937","5773","6447","6766","3927","3702","3603","3546","3252","3128","3413","3136","3021","2966","1919","1581",""
"MA200-0420","26725","60","1","1.10","1.4","2023-05-28T12:17:01","120","2023/05/28","12:17:01","-15.795539021492004","35.00289749982767","0.6","13","30","64","84","-41","-1375","-26504","2","150","149.52","113.69","35.84","27.47","41.6","13.27","90484","26.31","DUALSPOT-UV-BLUE-GREEN-RED-IR","687870","676397","904717","16.465424","5.314680","0.022268","823754","886181","841823","10.319911","3.169184","0.032957","816199","863652","832615","8.468557","2.519977","0.036136","847370","870600","890521","6.521704","1.911632","0.039259","756328","893759","966362","4.064439","1.001401","0.115968","6246","8696","9863","4372","5934","6626","3906","5115","5628","3568","4437","4797","3178","5315","6013",""
"MA200-0420","26726","60","1","1.10","1.4","2023-05-28T12:17:31","120","2023/05/28","12:17:31","-15.795669853687286","35.00289983279072","0.6","13","30","64","84","-32","-1352","-26612","2","150","150.21","113.35","36.86","27.50","41.5","13.27","90484","26.38","DUALSPOT-UV-BLUE-GREEN-RED-IR","687343","676420","905130","16.588209","5.357773","0.006310","817045","879391","835506","10.386892","3.189152","-0.013167","816273","864047","833098","8.521660","2.534771","-0.030090","847736","871222","891241","6.562248","1.922947","-0.038248","756138","893711","966326","4.090244","1.005849","-0.404585","6362","6866","7106","4380","4015","3853","3889","3331","3095","3588","3079","2868","3180","1685","1197",""
"MA200-0420","26727","60","1","1.10","1.4","2023-05-28T12:18:01","120","2023/05/28","12:18:01","-15.795691549777985","35.00284899980761","0.4","13","30","64","84","-104","-1468","-26572","2","150","149.56","113.35","36.21","27.52","41.5","13.27","90484","26.38","DUALSPOT-UV-BLUE-GREEN-RED-IR","687120","676721","905891","16.695915","5.395389","0.007250","817518","880312","836574","10.447796","3.207654","-0.007301","816520","864665","833847","8.573026","2.550686","-0.005242","847756","871507","891646","6.601506","1.932606","-0.072955","756575","894419","967150","4.114393","1.011031","-0.187368","5581","6101","6349","3983","3787","3700","3762","3648","3600","3474","2675","2345","2976","1998","1680",""
"MA200-0420","26728","60","1","1.10","1.4","2023-05-28T12:18:31","120","2023/05/28","12:18:31","-15.795644700527191","35.00284816650674","0.1","13","30","64","84","-156","-1512","-26675","2","150","149.69","114.14","35.55","27.53","41.5","13.28","90484","26.44","DUALSPOT-UV-BLUE-GREEN-RED-IR","686231","676716","906535","16.893552","5.464363","0.008943","817160","880544","837077","10.553840","3.239208","-0.006533","816444","865105","834477","8.656709","2.573329","-0.026540","848533","872746","893058","6.664534","1.950901","-0.015994","756893","895073","967973","4.154142","1.019976","-0.140084","10170","11395","11980","6887","6579","6443","6087","5287","4949","5540","5162","5006","4864","3514","3075",""
"MA200-0420","26729","60","1","1.10","1.4","2023-05-28T12:19:01","120","2023/05/28","12:19:01","-15.795911133289337","35.00302733317949","0.3","13","30","64","83","-20","-1433","-26691","2","150","149.69","114.06","35.63","27.56","41.5","13.30","90484","26.44","DUALSPOT-UV-BLUE-GREEN-RED-IR","684337","675470","905293","17.039498","5.513805","0.006514","815200","878900","835683","10.631339","3.262102","-0.008006","815150","864086","833654","8.719249","2.591312","-0.014641","846447","870860","891223","6.711136","1.961855","-0.080170","755491","893609","966405","4.182253","1.024630","-0.394259","7515","8150","8453","5037","4763","4641","4552","4190","4036","4099","3084","2665","3442","1824","1299",""
"MA200-0420","26730","60","1","1.10","1.4","2023-05-28T12:19:31","120","2023/05/28","12:19:31","-15.79568213224411","35.00303499982692","0.7","13","30","64","84","-100","-1428","-26744","2","150","149.67","113.72","35.95","27.57","41.5","13.30","90488","26.44","DUALSPOT-UV-BLUE-GREEN-RED-IR","685106","676932","907770","17.204244","5.572536","0.009242","816316","880617","837531","10.717765","3.288984","-0.002200","811271","860380","830227","8.787708","2.610755","-0.019201","842434","867066","887475","6.763183","1.975763","-0.041315","752308","890063","962651","4.213367","1.032495","-0.085713","8508","9596","10117","5633","5543","5504","4997","4490","4276","4591","3881","3588","3822","3056","2807",""
"MA200-0420","26731","60","1","1.10","1.4","2023-05-28T12:20:01","120","2023/05/28","12:20:01","-15.795635879039764","35.002950333291665","0.4","13","30","64","83","-62","-1462","-26679","2","150","150.33","114.10","36.23","27.59","41.4","13.31","90488","26.50","DUALSPOT-UV-BLUE-GREEN-RED-IR","685032","677351","908707","17.327354","5.615160","0.006805","816932","881691","838709","10.784487","3.308879","-0.008932","811206","860645","830599","8.840736","2.625292","-0.027285","842241","867089","887594","6.802508","1.986171","-0.045206","752775","890802","963473","4.239067","1.036645","-0.439164","6337","6909","7184","4334","4070","3954","3858","3331","3108","3457","2881","2644","3146","1600","1099",""
"MA200-0420","26732","60","1","1.10","1.4","2023-05-28T12:20:31","120","2023/05/28","12:20:31","-15.795746803283691","35.003028666367754","0.6","13","30","64","83","-120","-1537","-26662","2","150","149.90","113.57","36.32","27.61","41.4","13.32","90488","26.50","DUALSPOT-UV-BLUE-GREEN-RED-IR","683367","676022","907124","17.401030","5.641264","0.007907","814982","879795","837033","10.827719","3.323823","0.009635","815035","864889","834777","8.876637","2.636230","-0.008152","841342","866331","886872","6.829784","1.992785","-0.075921","751639","889556","962162","4.257761","1.040952","-0.137968","3810","4221","4418","2821","3049","3150","2624","2499","2447","2409","1826","1586","2299","1656","1448",""
"MA200-0420","26733","60","1","1.10","1.4","2023-05-28T12:21:01","120","2023/05/28","12:21:01","-15.795736849308014","35.00300149992108","0.2","13","30","64","84","-44","-1448","-26684","2","150","149.50","113.35","36.15","27.64","41.3","13.30","90484","26.50","DUALSPOT-UV-BLUE-GREEN-RED-IR","684827","677637","909431","17.439468","5.655401","0.010599","816320","881443","838661","10.853702","3.332448","0.005122","811324","861130","831191","8.898005","2.642935","-0.002627","843133","868288","888897","6.846936","1.999386","0.033024","752725","890952","963702","4.269987","1.042834","-0.508053","1991","2297","2443","1699","1768","1799","1565","1540","1529","1518","1832","1961","1506","727","475",""
"MA200-0420","26734","60","1","1.10","1.4","2023-05-28T12:21:31","120","2023/05/28","12:21:31","-15.795670807361603","35.002936833072454","0.5","13","30","64","84","-45","-1391","-26545","2","150","149.84","113.72","36.11","27.66","41.2","13.29","90484","26.50","DUALSPOT-UV-BLUE-GREEN-RED-IR","684284","677426","909367","17.508652","5.680731","0.010549","816880","882265","839552","10.894650","3.344559","-0.010063","811535","861505","831646","8.929872","2.652097","-0.017409","843117","868427","889122","6.872538","2.005891","-0.057211","752996","891362","964218","4.285034","1.047078","-0.040509","3573","4120","4382","2669","2486","2405","2326","2106","2013","2258","1807","1621","1848","1641","1574",""
"MA200-0420","26735","60","1","1.10","1.4","2023-05-28T12:22:01","120","2023/05/28","12:22:01","0","0","0.0","13","30","64","84","-141","-1437","-26625","2","150","149.63","114.06","35.57","27.68","41.2","13.30","90484","26.56","DUALSPOT-UV-BLUE-GREEN-RED-IR","685108","678566","911107","17.579780","5.704382","0.005087","818281","884049","841350","10.935711","3.356015","-0.016377","815332","865789","835856","8.965597","2.661985","-0.021213","842729","868240","888965","6.899243","2.011761","-0.103443","753322","891865","964757","4.302345","1.048728","-2.611957","3662","3905","4022","2668","2387","2263","2600","2308","2184","2348","1655","1370","2120","647","173",""
"MA200-0420","26736","60","1","1.10","1.4","2023-05-28T12:22:31","120","2023/05/28","12:22:31","0","0","0.0","13","30","64","83","-96","-1364","-27175","2","150","149.82","113.74","36.08","27.70","41.1","13.30","90484","26.56","DUALSPOT-UV-BLUE-GREEN-RED-IR","682961","677013","909488","17.699028","5.745432","0.006336","816094","882203","839799","11.006737","3.377091","-0.009314","808284","858709","829186","9.022633","2.678090","-0.020499","841250","867006","887825","6.941626","2.023430","-0.032983","751338","889748","962499","4.329920","1.055434","-0.102994","6157","6683","6935","4629","4330","4198","4163","3706","3513","3738","3244","3041","3386","2596","2342",""
"MA200-0420","26737","60","1","1.10","1.4","2023-05-28T12:23:01","120","2023/05/28","12:23:01","0","0","0.0","13","30","64","83","-64","-1192","-26996","2","150","149.54","113.81","35.73","27.71","41.2","13.33","90480","26.56","DUALSPOT-UV-BLUE-GREEN-RED-IR","682188","677523","911059","17.956548","5.833828","0.006765","815779","882973","841044","11.171222","3.428620","-0.000280","808827","860192","831030","9.160002","2.719462","-0.006708","842258","868797","889961","7.047210","2.052865","-0.026646","752413","891540","964647","4.395132","1.070626","-0.117736","13290","14530","15127","10713","10690","10680","10020","9612","9440","9307","8264","7835","8004","5939","5274",""
"MA200-0420","26738","60","1","1.10","1.4","2023-05-28T12:23:31","120","2023/05/28","12:23:31","0","0","0.0","13","30","64","83","-48","-1344","-27391","2","150","150.08","113.38","36.70","27.73","41.1","13.33","90484","26.56","DUALSPOT-UV-BLUE-GREEN-RED-IR","676491","672735","905322","18.201500","5.924448","0.009609","809390","876917","835702","11.343078","3.486358","0.004584","808481","860608","831729","9.307281","2.766186","-0.003124","842360","869532","891001","7.166660","2.089294","-0.012385","752391","891940","965264","4.470064","1.090542","-0.069326","12689","14503","15378","11236","11663","11852","10784","10570","10479","10569","9958","9707","9231","7580","7047",""
"MA200-0420","26739","60","1","1.10","1.4","2023-05-28T12:24:01","120","2023/05/28","12:24:01","0","0","0.0","13","30","64","83","-70","-1570","-26479","2","150","149.52","113.88","35.65","27.75","41.1","13.34","90484","26.63","DUALSPOT-UV-BLUE-GREEN-RED-IR","676641","673169","906127","18.280736","5.954754","0.013539","809481","877331","836241","11.405244","3.507966","0.012045","808858","861258","832511","9.361776","2.784067","0.006853","842392","869786","891386","7.211856","2.103636","0.002616","752726","892500","965924","4.502292","1.099237","-0.049660","4086","4993","5431","4046","4493","4691","3973","4164","4245","3981","4036","4058","3953","3407","3231",""
"MA200-0420","26740","60","1","1.10","1.4","2023-05-28T12:24:31","120","2023/05/28","12:24:31","0","0","0.0","13","30","64","83","-125","-1579","-26512","2","150","149.95","113.35","36.60","27.76","41.0","13.32","90484","26.63","DUALSPOT-UV-BLUE-GREEN-RED-IR","676586","673590","907028","18.375330","5.987734","0.005752","809620","877941","836990","11.472254","3.529495","-0.000644","808563","861332","832753","9.421113","2.802837","-0.003180","843081","870828","892611","7.259206","2.118040","-0.012279","752966","893042","966601","4.535335","1.106797","-0.138390","4901","5292","5481","4382","4360","4350","4346","4257","4219","4191","3948","3848","4072","2885","2501",""
"MA200-0420","26741","60","1","1.10","1.4","2023-05-28T12:25:01","120","2023/05/28","12:25:01","0","0","0.0","13","30","64","83","-107","-1516","-26640","2","150","150.28","114.30","35.98","27.79","41.0","13.32","90484","26.69","DUALSPOT-UV-BLUE-GREEN-RED-IR","675463","673256","907168","18.550394","6.050209","0.008922","808680","877627","837033","11.590888","3.568297","0.004603","808071","861453","833124","9.521175","2.834409","0.000346","836452","864467","886316","7.339774","2.141904","-0.012401","752780","893192","966893","4.587639","1.120347","-0.066703","8996","10198","10780","7694","7994","8128","7268","7285","7292","7072","6654","6482","6392","5260","4894",""
"MA200-0420","26742","60","1","1.10","1.4","2023-05-28T12:25:31","120","2023/05/28","12:25:31","0","0","0.0","13","30","64","83","-59","-1500","-26388","2","150","149.38","113.70","35.67","27.80","40.9","13.29","90484","26.69","DUALSPOT-UV-BLUE-GREEN-RED-IR","675242","673328","907595","18.652648","6.089840","0.013884","808471","877729","837327","11.661479","3.593659","0.014872","807932","861567","833370","9.583189","2.855325","0.010074","836461","864731","886683","7.389928","2.159016","0.014886","752642","893215","966974","4.622455","1.130154","-0.033814","5282","6525","7128","4602","5270","5568","4528","4867","5011","4425","4812","4972","4277","3840","3699",""
"MA200-0420","26743","60","1","1.10","1.4","2023-05-28T12:26:01","120","2023/05/28","12:26:01","0","0","0.0","13","30","64","83","-158","-1533","-26629","2","150","149.77","113.95","35.82","27.81","40.7","13.24","90484","26.69","DUALSPOT-UV-BLUE-GREEN-RED-IR","674128","672313","906273","18.674498","6.098663","0.015906","807757","877035","836740","11.682542","3.601998","0.023347","806682","860314","832228","9.601315","2.861851","0.017874","834484","862775","884713","7.405533","2.164027","0.003998","751482","891929","965635","4.633838","1.131781","-0.559734","1126","1446","1602","1370","1725","1884","1320","1512","1594","1373","1403","1415","1395","634","388",""
"MA200-0420","26744","60","1","1.10","1.4","2023-05-28T12:26:31","120","2023/05/28","12:26:31","0","0","0.0","13","30","64","83","-70","-1458","-26570","2","150","149.64","113.16","36.49","27.83","40.5","13.18","90484","26.75","DUALSPOT-UV-BLUE-GREEN-RED-IR","675913","674148","908820","18.690672","6.105974","0.019997","809565","879090","838761","11.698880","3.609007","0.027649","803266","856734","828826","9.615890","2.868718","0.041244","836587","864971","887018","7.416934","2.169039","0.045749","748293","888179","961582","4.643795","1.135292","0.023752","839","1176","1340","1070","1424","1582","1069","1562","1772","1010","1378","1529","1229","1344","1381",""
"MA200-0420","26745","60","1","1.10","1.4","2023-05-28T12:27:01","120","2023/05/28","12:27:01","0","0","0.0","13","30","64","83","29","-1400","-26875","2","150","149.77","113.84","35.94","27.85","40.3","13.12","0","0.00","DUALSPOT-UV-BLUE-GREEN-RED-IR","675400","673958","908764","18.751708","6.126323","0.004106","809055","878828","838610","11.737692","3.621774","0.004888","808145","862172","834179","9.648710","2.878362","-0.011333","836813","865400","887512","7.442620","2.177021","-0.003014","752879","893765","967655","4.660970","1.139550","-0.085085","3149","3326","3411","2527","2633","2681","2393","2228","2157","2263","2228","2214","2107","1655","1509",""
"MA200-0420","26746","60","1","1.10","1.4","2023-05-28T12:27:31","120","2023/05/28","12:27:31","0","0","0.0","13","30","64","83","-104","-1424","-26740","2","150","149.41","113.31","36.10","27.86","40.2","13.10","0","0.00","DUALSPOT-UV-BLUE-GREEN-RED-IR","673694","672458","906886","18.802422","6.143406","0.004171","807713","877515","837456","11.772279","3.633367","0.005952","806644","860700","832840","9.677580","2.888525","0.013446","834821","863465","885577","7.465683","2.182523","-0.073705","747029","886906","960277","4.675796","1.142751","-0.159168","2628","2779","2852","2262","2380","2433","2115","2337","2431","2042","1529","1317","1827","1238","1047",""
"MA200-0420","26747","60","1","1.10","1.4","2023-05-28T12:28:01","120","2023/05/28","12:28:01","0","0","0.0","13","30","64","83","-52","-1384","-26524","2","150","149.32","114.38","34.94","27.87","40.1","13.06","90480","26.75","DUALSPOT-UV-BLUE-GREEN-RED-IR","675970","674881","910283","18.839572","6.158050","0.015996","810185","880380","840262","11.800116","3.642278","0.005488","803681","857708","830001","9.701176","2.895361","-0.008175","837284","866130","888394","7.484197","2.188966","0.021962","748555","888770","962332","4.688030","1.146042","-0.040029","1907","2461","2730","1804","1890","1929","1712","1624","1586","1624","1850","1943","1494","1315","1258",""
"MA200-0420","26748","60","1","1.10","1.4","2023-05-28T12:28:31","120","2023/05/28","12:28:31","0","0","0.0","13","30","64","83","-119","-1468","-26552","2","150","150.21","113.84","36.37","27.89","40.0","13.04","90476","26.81","DUALSPOT-UV-BLUE-GREEN-RED-IR","676087","675161","910809","18.878444","6.172094","0.008619","809643","879919","839922","11.828517","3.652983","0.017448","803869","858020","830379","9.724975","2.904224","0.019643","838284","867260","889606","7.504208","2.196621","0.029049","749042","889424","963096","4.700460","1.149655","-0.028823","2005","2267","2395","1849","2181","2330","1735","2023","2145","1763","2111","2255","1525","1387","1343",""
"MA200-0420","26749","60","1","1.10","1.4","2023-05-28T12:29:01","120","2023/05/28","12:29:01","0","0","0.0","13","30","64","82","-48","-1364","-26912","2","150","150.01","113.56","36.45","27.90","40.0","13.04","90472","26.81","DUALSPOT-UV-BLUE-GREEN-RED-IR","674760","673955","909246","18.908820","6.184280","0.014316","808783","879124","839231","11.851929","3.661340","0.011759","807130","861615","833905","9.746193","2.912265","0.021006","836136","865115","887450","7.519566","2.201708","0.005734","747613","887825","961367","4.711967","1.154007","0.040474","1571","1963","2154","1528","1699","1775","1551","1831","1950","1356","1400","1418","1415","1667","1749",""
"MA200-0420","26750","60","1","1.10","1.4","2023-05-28T12:29:31","120","2023/05/28","12:29:31","0","0","0.0","13","30","64","83","-41","-1462","-26579","2","150","149.65","114.37","35.28","27.91","39.9","13.02","90468","26.81","DUALSPOT-UV-BLUE-GREEN-RED-IR","671655","670903","905186","18.925010","6.190502","0.014129","811067","881704","841718","11.867600","3.666872","0.014538","803941","858284","830715","9.757894","2.914697","-0.089167","838300","867416","889844","7.529170","2.204092","-0.050633","749109","889630","963365","4.718961","1.154498","9.612713","831","1035","1135","1015","1162","1227","849","572","454","842","678","609","854","194","-19",""
"MA200-0420","26751","60","1","1.10","1.4","2023-05-28T12:30:01","120","2023/05/28","12:30:01","-15.795535743236542","35.00278899958357","0.4","13","30","64","83","-170","-1520","-26258","2","150","149.89","113.70","36.18","27.93","39.8","12.98","90468","26.81","DUALSPOT-UV-BLUE-GREEN-RED-IR","671610","670909","905248","18.936240","6.194574","0.009078","804633","874786","835134","11.879910","3.671151","0.009941","805967","860461","832879","9.770150","2.920216","0.038069","839032","868238","890696","7.538927","2.207871","0.031160","749796","890521","964338","4.726028","1.155891","-0.214386","580","661","700","802","876","910","894","1266","1424","860","1047","1125","868","538","431",""
"MA200-0420","26752","60","1","1.10","1.4","2023-05-28T12:30:31","120","2023/05/28","12:30:31","-15.795596480369568","35.00277733313851","1.1","13","30","64","82","-44","-1444","-26540","2","150","149.40","113.58","35.82","27.94","39.7","12.97","90468","26.81","DUALSPOT-UV-BLUE-GREEN-RED-IR","670494","669903","903932","18.952144","6.199095","-0.009076","809730","880388","840526","11.893064","3.675156","-0.004398","804462","858968","831430","9.781003","2.923071","-0.031669","836685","865882","888307","7.546381","2.209351","-0.145713","748028","888477","962091","4.733234","1.157311","-0.208336","822","741","701","858","828","815","793","661","605","658","414","313","886","553","446",""
"MA200-0420","26753","60","1","1.10","1.4","2023-05-28T12:31:01","120","2023/05/28","12:31:01","-15.795559525489807","35.00274199969135","0.1","13","30","64","83","-45","-1404","-26625","2","150","149.72","113.74","35.97","27.95","39.6","12.95","90468","26.81","DUALSPOT-UV-BLUE-GREEN-RED-IR","670676","670321","904670","19.007494","6.217512","0.003781","803862","874210","834729","11.924152","3.685254","0.003146","805461","860217","832723","9.807138","2.930766","-0.011139","838928","868315","890832","7.566163","2.214952","-0.022984","749564","890360","964211","4.743814","1.159596","-0.152590","2858","3007","3079","2026","2080","2105","1907","1775","1719","1744","1562","1486","1299","887","753",""
"MA200-0420","26754","60","1","1.10","1.4","2023-05-28T12:31:31","120","2023/05/28","12:31:31","-15.795546174049377","35.0026998326648","0.5","13","30","64","83","-104","-1475","-26570","2","150","150.15","114.01","36.13","27.96","39.5","12.92","90460","26.81","DUALSPOT-UV-BLUE-GREEN-RED-IR","671312","671141","905947","19.055356","6.236870","0.015272","804693","875278","835839","11.955152","3.695922","0.009257","805161","860030","832585","9.833242","2.939790","0.011656","838652","868132","890715","7.584190","2.220663","-0.000057","749195","890031","963866","4.758367","1.163675","-0.037953","2465","3146","3477","2015","2188","2266","1900","2073","2146","1586","1585","1585","1783","1577","1510",""
"MA200-0420","26755","60","1","1.10","1.4","2023-05-28T12:32:01","120","2023/05/28","12:32:01","-15.795547366142273","35.002715832786635","1.1","13","30","64","82","0","-1504","-26640","2","150","150.15","113.31","36.84","27.97","39.4","12.88","90460","26.88","DUALSPOT-UV-BLUE-GREEN-RED-IR","669917","669829","904209","19.075318","6.245481","0.017152","802474","872943","833679","11.973701","3.704518","0.031826","804381","859310","831923","9.847739","2.944785","0.007982","837674","867174","889731","7.595054","2.224650","0.020292","748535","889304","963087","4.765606","1.164992","-0.293142","1034","1373","1537","1213","1729","1960","1062","1125","1152","961","1085","1137","892","499","372",""
"MA200-0420","26756","60","1","1.10","1.4","2023-05-28T12:32:31","120","2023/05/28","12:32:31","-15.795543670654297","35.002807499375194","0.2","13","30","64","82","-77","-1437","-26597","2","150","149.50","113.94","35.56","27.98","39.3","12.85","90460","26.88","DUALSPOT-UV-BLUE-GREEN-RED-IR","671768","671756","906891","19.092974","6.250774","-0.003258","804773","875542","836213","11.988080","3.707319","-0.099472","805913","860968","833595","9.861130","2.949107","0.004713","839951","869601","892277","7.607728","2.228748","0.006363","749966","891020","964972","4.773430","1.167369","-0.007597","910","874","856","935","584","426","975","1009","1023","1116","1156","1172","959","933","925",""
"MA200-0420","26757","60","1","1.10","1.4","2023-05-28T12:33:01","120","2023/05/28","12:33:01","-15.795483529567719","35.002798499772325","0.2","13","30","64","82","-100","-1362","-26570","2","150","149.77","113.57","36.20","28.00","39.3","12.85","90456","26.88","DUALSPOT-UV-BLUE-GREEN-RED-IR","672152","672227","907590","19.115170","6.258116","0.002778","806070","877066","837671","12.006636","3.713929","0.012120","805921","861073","833730","9.876518","2.953804","-0.006521","839631","869366","892095","7.619354","2.231941","-0.031933","749541","890583","964511","4.782217","1.169123","-0.204772","1147","1191","1212","1211","1353","1417","1124","1077","1056","1027","884","826","1080","676","546",""
"MA200-0420","26758","60","1","1.10","1.4","2023-05-28T12:33:31","120","2023/05/28","12:33:31","-15.795584499835968","35.00278349989094","0.6","13","30","64","82","-59","-1412","-26696","2","150","149.63","113.62","36.00","28.01","39.2","12.84","90456","26.94","DUALSPOT-UV-BLUE-GREEN-RED-IR","671755","671959","907364","19.146916","6.269058","0.006037","805415","876492","837206","12.029829","3.721034","-0.004191","805641","860920","833650","9.896165","2.959287","-0.020679","840293","870131","892910","7.633654","2.235745","-0.038436","749758","890954","964929","4.791605","1.171215","-0.134957","1641","1785","1855","1513","1463","1440","1435","1264","1191","1262","1060","976","1154","811","700",""
"MA200-0420","26759","60","1","1.10","1.4","2023-05-28T12:34:01","120","2023/05/28","12:34:01","-15.795531988143921","35.002727166283876","1.1","13","30","64","82","-104","-1458","-26487","2","150","150.35","114.26","36.09","28.01","39.2","12.85","90452","26.88","DUALSPOT-UV-BLUE-GREEN-RED-IR","671814","672262","907876","19.182572","6.281536","0.007209","805476","876745","837524","12.053635","3.728360","-0.003216","805929","861367","834124","9.917827","2.966380","0.005013","840102","870044","892859","7.649337","2.239611","-0.058852","750410","891748","965840","4.800970","1.172804","-0.328962","1832","2030","2127","1544","1504","1486","1573","1631","1656","1376","1074","949","1144","615","443",""
"MA200-0420","26760","60","1","1.10","1.4","2023-05-28T12:34:31","120","2023/05/28","12:34:31","-15.79533165693283","35.002635166281834","0.5","13","30","64","82","-148","-1500","-26703","2","150","150.08","113.95","36.13","28.03","39.2","12.87","90452","26.94","DUALSPOT-UV-BLUE-GREEN-RED-IR","670995","672183","908376","19.347682","6.339056","0.006613","805240","877047","838061","12.141981","3.755492","-0.003933","805620","861486","834405","9.986210","2.985591","-0.019459","839705","869944","892898","7.697147","2.253484","-0.017727","749752","891168","965287","4.827923","1.178640","-0.149777","8510","9350","9759","5747","5566","5485","4982","4414","4171","4209","3852","3704","3304","2256","1917",""
"MA200-0420","26761","60","1","1.10","1.4","2023-05-28T12:35:01","120","2023/05/28","12:35:01","-15.79548466205597","35.00269899936393","55885.5","13","30","64","82","-140","-1452","-26608","2","150","149.76","113.82","35.93","28.04","39.2","12.89","90444","26.94","DUALSPOT-UV-BLUE-GREEN-RED-IR","669237","671063","907400","19.498908","6.394254","0.009671","803888","876127","837390","12.224123","3.780961","-0.002172","803845","860022","833150","10.052700","3.005636","-0.006833","833104","863393","886294","7.743991","2.266282","-0.030346","750088","891783","965987","4.854446","1.185366","-0.072477","7803","9022","9617","5349","5254","5211","4849","4631","4538","4129","3573","3343","3255","2614","2408",""
"MA200-0420","26762","60","1","1.10","1.4","2023-05-28T12:35:31","120","2023/05/28","12:35:31","0","0","0.0","13","30","64","82","-8","-1408","-26519","2","150","150.35","114.18","36.17","28.04","39.3","12.90","90444","26.94","DUALSPOT-UV-BLUE-GREEN-RED-IR","669068","671717","908858","19.678816","6.460613","0.009983","804193","876993","838458","12.314981","3.810083","0.001356","803220","859768","833077","10.123722","3.026176","-0.014024","839295","870175","893369","7.795628","2.280649","-0.026681","749576","891383","965627","4.884758","1.191772","-0.161152","9254","10774","11517","5899","5968","5999","5164","4714","4522","4537","3984","3756","3708","2473","2075",""
"MA200-0420","26763","60","1","1.10","1.4","2023-05-28T12:36:01","120","2023/05/28","12:36:01","0","0","0.0","13","30","64","82","-37","-1491","-26587","2","150","149.95","114.57","35.38","28.06","39.3","12.92","90448","26.94","DUALSPOT-UV-BLUE-GREEN-RED-IR","667782","671177","908719","19.863828","6.529194","0.011575","803498","876795","838545","12.414814","3.842324","0.005015","803406","860435","833934","10.204024","3.051239","0.001486","833344","864347","887556","7.857623","2.298395","-0.014636","750086","892238","966645","4.923507","1.201005","-0.087825","9484","11385","12316","6459","6755","6888","5818","5881","5908","5428","5032","4868","4724","3646","3298",""
"MA200-0420","26764","60","1","1.10","1.4","2023-05-28T12:36:31","120","2023/05/28","12:36:31","0","0","0.0","13","30","64","83","-87","-1483","-26508","2","150","150.21","114.26","35.95","28.06","39.3","12.92","90444","26.94","DUALSPOT-UV-BLUE-GREEN-RED-IR","667364","671465","909708","20.042168","6.596803","0.011666","803536","877386","839382","12.512819","3.876442","0.010662","798365","855463","829360","10.284081","3.078234","0.009008","832691","864044","887398","7.918478","2.317700","0.001431","749635","891974","966437","4.962406","1.211584","-0.044145","9167","11044","11965","6358","7034","7337","5817","6233","6411","5343","5386","5404","4755","4109","3901",""
"MA200-0420","26765","60","1","1.10","1.4","2023-05-28T12:37:01","120","2023/05/28","12:37:01","0","0","0.0","13","30","64","82","-59","-1432","-26516","2","150","149.89","113.82","36.06","28.08","39.3","12.93","90448","27.00","DUALSPOT-UV-BLUE-GREEN-RED-IR","666523","671209","909861","20.187570","6.650690","0.010003","802885","877163","839370","12.592687","3.902053","0.001370","797901","855328","829385","10.347945","3.098231","-0.001645","832911","864567","888037","7.966468","2.330519","-0.035797","745376","887080","961196","4.991058","1.218092","-0.119908","7503","8776","9401","5201","5264","5293","4658","4603","4580","4230","3566","3291","3516","2521","2199",""
"MA200-0420","26766","60","1","1.10","1.4","2023-05-28T12:37:31","120","2023/05/28","12:37:31","0","0","0.0","13","30","64","82","-56","-1444","-26491","2","150","150.08","113.65","36.44","28.09","39.3","12.94","90440","27.00","DUALSPOT-UV-BLUE-GREEN-RED-IR","666082","671225","910225","20.298774","6.691786","0.009140","802927","877575","839964","12.657567","3.922915","0.000336","797591","855288","829477","10.400593","3.113854","-0.011428","832096","863939","887496","8.006357","2.342910","-0.005725","749992","892751","967420","5.016317","1.223440","-0.162605","5747","6624","7056","4232","4244","4250","3846","3559","3437","3521","3412","3366","3104","2050","1709",""
"MA200-0420","26767","60","1","1.10","1.4","2023-05-28T12:38:01","120","2023/05/28","12:38:01","0","0","0.0","13","30","64","82","-54","-1445","-26641","2","150","150.01","113.68","36.33","28.11","39.3","12.96","90444","27.00","DUALSPOT-UV-BLUE-GREEN-RED-IR","665454","670900","910043","20.380148","6.722475","0.010397","802213","877028","839537","12.706520","3.938931","0.002624","797409","855344","829611","10.441151","3.126043","-0.008898","832737","864812","888466","8.037512","2.350662","-0.056645","749663","892486","967163","5.035928","1.228336","-0.080842","4204","4961","5334","3192","3268","3302","2962","2785","2710","2749","2140","1889","2409","1882","1712",""
"MA200-0420","26768","60","1","1.10","1.4","2023-05-28T12:38:31","120","2023/05/28","12:38:31","0","0","0.0","13","30","64","82","-54","-1420","-26562","2","150","149.79","113.83","35.96","28.11","39.3","12.96","90444","27.00","DUALSPOT-UV-BLUE-GREEN-RED-IR","661204","666896","904837","20.441200","6.745735","0.011507","803214","878419","840963","12.745924","3.952276","0.007425","798076","856238","830550","10.472458","3.134900","-0.016719","832508","864722","888436","8.063089","2.358537","-0.004614","749756","892722","967442","5.052290","1.231785","-0.155403","3150","3799","4119","2566","2751","2834","2283","2045","1943","2254","2197","2173","2007","1340","1124",""
"MA200-0420","26769","60","1","1.10","1.4","2023-05-28T12:39:01","120","2023/05/28","12:39:01","0","0","0.0","13","30","64","82","-45","-1579","-26595","2","150","149.81","113.72","36.08","28.13","39.3","12.97","90444","27.00","DUALSPOT-UV-BLUE-GREEN-RED-IR","663944","669936","909195","20.510518","6.771316","0.009549","800673","875802","838617","12.789203","3.966349","0.002719","796428","854675","829113","10.507908","3.146625","0.005428","831638","864023","887785","8.089402","2.366425","-0.010462","749017","891955","966654","5.069790","1.236308","-0.064135","3580","4164","4452","2821","2891","2922","2587","2697","2744","2321","2193","2140","2149","1750","1622",""
"MA200-0420","26770","60","1","1.10","1.4","2023-05-28T12:39:31","120","2023/05/28","12:39:31","0","0","0.0","13","30","64","82","-134","-1417","-26508","2","150","149.94","113.97","35.97","28.13","39.3","12.97","90448","27.00","DUALSPOT-UV-BLUE-GREEN-RED-IR","660501","666659","904890","20.559462","6.790685","0.013369","802967","878545","841318","12.823193","3.979307","0.018062","797641","856148","830634","10.537250","3.157938","0.022813","832678","865186","889047","8.111646","2.374190","0.016076","745183","887447","961807","5.084224","1.239898","-0.076568","2522","3162","3478","2210","2670","2877","2137","2611","2813","1958","2165","2251","1769","1394","1273",""
"MA200-0420","26771","60","1","1.10","1.4","2023-05-28T12:40:01","120","2023/05/28","12:40:01","0","0","0.0","13","30","64","82","-20","-1312","-26547","2","150","150.28","113.78","36.49","28.14","39.2","12.96","90440","27.06","DUALSPOT-UV-BLUE-GREEN-RED-IR","660273","666596","904922","20.599776","6.805155","0.007327","802327","878011","840901","12.851974","3.988355","-0.002305","802075","861057","835485","10.560950","3.164297","-0.028804","833252","865910","889848","8.131617","2.380046","-0.016975","745352","887729","962151","5.096378","1.243040","-0.067775","2081","2328","2450","1875","1837","1821","1729","1446","1325","1760","1609","1547","1492","1202","1109",""
"MA200-0420","26772","60","1","1.10","1.4","2023-05-28T12:40:31","120","2023/05/28","12:40:31","0","0","0.0","13","30","64","82","-50","-1358","-26600","2","150","149.26","113.95","35.31","28.15","39.1","12.94","90444","27.06","DUALSPOT-UV-BLUE-GREEN-RED-IR","658489","664949","902811","20.639576","6.820562","0.013141","800724","876399","839461","12.881250","3.999203","0.017163","796232","854913","829581","10.586817","3.172994","0.010209","831635","864314","888270","8.151288","2.385362","-0.027068","744448","886780","961137","5.110996","1.246023","-0.161105","2051","2562","2815","1904","2277","2445","1884","2044","2113","1731","1510","1418","1792","1180","982",""
"MA200-0420","26773","60","1","1.10","1.4","2023-05-28T12:41:01","120","2023/05/28","12:41:01","0","0","0.0","13","30","64","82","-40","-1520","-26475","2","150","149.56","114.14","35.42","28.15","39.1","12.93","90440","27.06","DUALSPOT-UV-BLUE-GREEN-RED-IR","660489","667128","905938","20.675968","6.833734","0.009623","796986","872475","835769","12.907473","4.006981","-0.005307","797731","856697","831345","10.609561","3.180176","0.002304","832933","865811","889863","8.168580","2.391219","0.013998","745956","888634","963188","5.121883","1.248814","-0.058282","1872","2184","2337","1703","1627","1593","1654","1683","1695","1519","1658","1716","1332","1100","1026",""
"MA200-0420","26774","60","1","1.10","1.4","2023-05-28T12:41:31","120","2023/05/28","12:41:31","0","0","0.0","13","30","64","82","-52","-1380","-26696","2","150","150.08","114.18","35.91","28.16","39.1","12.94","90440","27.06","DUALSPOT-UV-BLUE-GREEN-RED-IR","660526","667307","906264","20.710878","6.846327","0.008693","796895","872540","835882","12.933438","4.015845","0.008524","797669","856728","831450","10.631304","3.187364","0.006422","832947","865901","889975","8.185454","2.397210","0.018840","745891","888654","963217","5.133676","1.251606","-0.094679","1795","2059","2190","1685","1829","1894","1580","1662","1696","1482","1673","1753","1442","1086","970",""
"MA200-0420","26775","60","1","1.10","1.4","2023-05-28T12:42:01","120","2023/05/28","12:42:01","0","0","0.0","13","30","64","81","-68","-1460","-26644","2","150","149.52","113.01","36.52","28.17","39.1","12.94","90436","27.13","DUALSPOT-UV-BLUE-GREEN-RED-IR","659099","665969","904551","20.738456","6.856615","0.009041","794673","870191","833700","12.955159","4.024047","0.015161","796326","855367","830196","10.650440","3.194511","0.017080","832221","865226","889315","8.200905","2.400800","-0.080352","744548","887096","961587","5.144006","1.254162","-0.087147","1433","1654","1764","1424","1664","1773","1405","1624","1718","1371","986","826","1276","978","881",""
"MA200-0420","26776","60","1","1.10","1.4","2023-05-28T12:42:31","120","2023/05/28","12:42:31","0","0","0.0","13","30","64","82","-50","-1370","-26650","2","150","149.34","113.43","35.91","28.18","39.0","12.92","90436","27.13","DUALSPOT-UV-BLUE-GREEN-RED-IR","660432","667472","906670","20.770218","6.869741","0.015091","797089","872970","836435","12.976786","4.032039","0.015066","797024","856233","831103","10.669544","3.200114","-0.010998","833599","866736","890916","8.213721","2.405223","0.013779","745354","888123","962674","5.152717","1.256205","-0.101216","1644","2147","2395","1413","1650","1756","1398","1295","1251","1133","1235","1278","1072","794","705",""
"MA200-0420","26777","60","1","1.10","1.4","2023-05-28T12:43:01","120","2023/05/28","12:43:01","0","0","0.0","13","30","64","82","-44","-1352","-26640","2","150","150.15","113.81","36.34","28.19","39.0","12.94","90432","27.06","DUALSPOT-UV-BLUE-GREEN-RED-IR","660226","667414","906762","20.805948","6.881595","0.002644","797259","873342","836834","12.999866","4.038638","-0.013780","796979","856307","831197","10.686673","3.205228","-0.009585","833408","866643","890875","8.228972","2.409610","-0.019843","745654","888558","963189","5.160957","1.257872","-0.182129","1844","1915","1951","1503","1346","1275","1249","1168","1133","1344","1211","1155","1011","640","521",""
"MA200-0420","26778","60","1","1.10","1.4","2023-05-28T12:43:31","120","2023/05/28","12:43:31","0","0","0.0","13","30","64","81","-107","-1408","-26640","2","150","149.44","113.11","36.33","28.20","39.0","12.94","90432","27.13","DUALSPOT-UV-BLUE-GREEN-RED-IR","658928","666276","905352","20.852368","6.898588","0.008291","795312","871314","834990","13.026008","4.047322","0.003651","796274","855659","830648","10.709801","3.212148","-0.010094","831756","865026","889240","8.244010","2.413237","-0.065885","744117","886781","961270","5.172085","1.259564","-0.442860","2410","2747","2914","1713","1772","1798","1697","1581","1531","1333","1001","864","1374","650","417",""
"MA200-0420","26779","60","1","1.10","1.4","2023-05-28T12:44:01","120","2023/05/28","12:44:01","-15.795634090900421","35.002771499566734","0.5","13","30","64","81","-116","-1608","-26762","2","150","150.15","113.90","36.25","28.21","39.0","12.94","90432","27.13","DUALSPOT-UV-BLUE-GREEN-RED-IR","660200","667697","907324","20.877300","6.907448","0.007111","796723","873004","836643","13.045145","4.052400","-0.024333","798906","858606","833534","10.725819","3.216308","-0.033177","834369","867823","892134","8.257047","2.416534","-0.049541","746192","889308","964039","5.179924","1.261219","-0.154836","1285","1435","1509","1245","1038","945","1167","952","861","1148","912","815","961","637","533",""
"MA200-0420","26780","60","1","1.10","1.4","2023-05-28T12:44:31","120","2023/05/28","12:44:31","0","0","0.0","14","30","64","82","-100","-1484","-26768","2","150","149.52","113.27","36.25","28.21","39.0","12.93","90432","27.13","DUALSPOT-UV-BLUE-GREEN-RED-IR","660352","667895","907695","20.896192","6.915260","0.014542","797209","873599","837266","13.061731","4.059082","0.020893","797048","856680","831718","10.740819","3.222424","0.026178","833721","867234","891560","8.269081","2.420921","0.019871","745558","888623","963312","5.188688","1.263752","-0.028234","979","1265","1407","1085","1366","1492","1099","1400","1529","1065","1214","1275","1080","976","942",""
"MA200-0420","26781","60","1","1.10","1.4","2023-05-28T12:45:01","120","2023/05/28","12:45:01","-15.795520186424255","35.002760666422546","0.5","14","30","64","81","-116","-1476","-26619","2","150","149.69","113.98","35.71","28.23","38.9","12.93","90428","27.13","DUALSPOT-UV-BLUE-GREEN-RED-IR","660481","668150","908145","20.926106","6.926063","0.008882","797279","873809","837508","13.081677","4.065674","0.005643","798660","858530","833534","10.758011","3.226906","-0.029313","834116","867689","892072","8.281039","2.423874","-0.051558","745937","889148","963882","5.196422","1.264604","-1.154639","1541","1776","1893","1297","1368","1400","1252","1042","952","1052","829","737","947","333","135",""
"MA200-0420","26782","60","1","1.10","1.4","2023-05-28T12:45:31","120","2023/05/28","12:45:31","-15.795551896095276","35.00281566614285","0.1","14","30","64","82","-76","-1504","-26463","2","150","150.21","113.78","36.43","28.23","38.8","12.89","90432","27.13","DUALSPOT-UV-BLUE-GREEN-RED-IR","660303","668072","908129","20.945658","6.933504","0.010502","797021","873587","837351","13.097732","4.071540","0.012975","798672","858629","833675","10.772144","3.233629","0.038039","833601","867207","891601","8.290781","2.426804","-0.011328","745894","889111","963889","5.204197","1.267499","0.034112","1009","1199","1293","1046","1193","1260","1031","1532","1747","859","806","785","954","1110","1160",""
"MA200-0420","26783","60","1","1.10","1.4","2023-05-28T12:46:01","120","2023/05/28","12:46:01","-15.795585691928864","35.00277716643177","0.1","14","30","64","81","-96","-1260","-26619","2","150","150.15","114.10","36.05","28.24","38.8","12.87","90432","27.13","DUALSPOT-UV-BLUE-GREEN-RED-IR","659052","666874","906506","20.966106","6.940454","0.004856","795544","872073","835979","13.116157","4.078900","0.021153","797553","857529","832613","10.786579","3.237081","-0.049385","832560","866201","890644","8.302051","2.431486","0.037104","744938","888053","962741","5.212322","1.269567","-0.066442","1052","1132","1171","1197","1513","1656","1050","794","685","991","1303","1432","994","801","738",""
"MA200-0420","26784","60","1","1.10","1.4","2023-05-28T12:46:31","120","2023/05/28","12:46:31","-15.795484840869904","35.00278233294375","0.4","13","30","64","81","-40","-1424","-26372","2","150","149.94","113.97","35.97","28.24","38.7","12.84","90428","27.13","DUALSPOT-UV-BLUE-GREEN-RED-IR","659004","666882","906581","20.983042","6.947675","0.016402","795651","872280","836218","13.132228","4.085368","0.021724","797329","857327","832505","10.800382","3.243077","0.032391","831848","865548","889955","8.313962","2.435665","0.016426","744322","887362","962043","5.219373","1.271998","0.020835","872","1179","1330","1045","1332","1462","1005","1383","1546","1048","1165","1214","864","944","969",""
"MA200-0420","26785","60","1","1.10","1.4","2023-05-28T12:47:01","120","2023/05/28","12:47:01","-15.795478820800781","35.00275466614403","0.4","13","30","64","81","-8","-1454","-26325","2","150","149.87","114.10","35.78","28.25","38.6","12.83","90432","27.13","DUALSPOT-UV-BLUE-GREEN-RED-IR","660287","668276","908568","20.999952","6.953970","0.010402","796852","873706","837609","13.145122","4.089326","-0.002410","798755","858939","834128","10.813850","3.248394","0.024972","828389","861980","886365","8.323209","2.439159","0.026995","746164","889613","964463","5.226591","1.272644","-3.273680","870","1033","1113","837","820","812","980","1233","1342","813","979","1048","883","252","48",""
"MA200-0420","26786","60","1","1.10","1.4","2023-05-28T12:47:31","120","2023/05/28","12:47:31","-15.795476973056793","35.002793833147734","0.0","13","30","64","81","-12","-1368","-26516","2","150","150.02","113.70","36.31","28.25","38.5","12.79","90432","27.13","DUALSPOT-UV-BLUE-GREEN-RED-IR","659916","668036","908366","21.034818","6.967258","0.010665","796798","873726","837718","13.166902","4.097098","0.011063","798784","859057","834293","10.832188","3.254181","-0.001575","828090","861732","886116","8.336333","2.442529","-0.045972","746398","889933","964848","5.234306","1.275771","0.050146","1801","2149","2321","1419","1586","1662","1338","1323","1316","1158","931","837","947","1203","1285",""
"MA200-0420","26787","60","1","1.10","1.4","2023-05-28T12:48:01","120","2023/05/28","12:48:01","-15.795510053634644","35.00276916613802","0.1","13","30","64","81","-132","-1488","-26656","2","150","149.84","113.76","36.07","28.26","38.4","12.76","90436","27.19","DUALSPOT-UV-BLUE-GREEN-RED-IR","658799","667050","907114","21.062632","6.978782","0.014930","795870","872841","836935","13.185627","4.104847","0.023278","797454","857704","833033","10.847229","3.260690","0.031596","832423","866343","890893","8.348529","2.447911","0.042703","745014","888296","963115","5.243211","1.278692","0.008312","1435","1876","2094","1220","1592","1760","1097","1498","1670","1075","1496","1671","1093","1131","1143",""
"MA200-0420","26788","60","1","1.10","1.4","2023-05-28T12:48:31","120","2023/05/28","12:48:31","-15.795455813407898","35.002724666148424","0.2","13","30","64","81","-179","-1416","-26750","2","150","150.07","113.99","36.08","28.26","38.3","12.72","90436","27.19","DUALSPOT-UV-BLUE-GREEN-RED-IR","659910","668634","909716","21.157742","7.015913","0.012241","797101","874516","838670","13.232682","4.122042","0.013866","793940","854131","829679","10.882512","3.272688","0.008851","828302","862193","886722","8.373666","2.456909","0.018691","746530","890232","965262","5.257192","1.282039","-0.090325","4900","6045","6613","3060","3533","3747","2569","2761","2843","2212","2502","2622","1713","1296","1161",""
"MA200-0420","26789","60","1","1.10","1.4","2023-05-28T12:49:01","120","2023/05/28","12:49:01","-15.795519709587097","35.002661999780685","1.3","13","30","64","81","-56","-1528","-26524","2","150","149.44","113.70","35.73","28.27","38.2","12.69","90432","27.13","DUALSPOT-UV-BLUE-GREEN-RED-IR","658987","668250","909685","21.307968","7.074377","0.012342","796898","874625","838996","13.300878","4.145794","0.010222","793546","853988","829673","10.934583","3.290635","0.011118","827423","861466","886063","8.408341","2.467894","0.001341","746351","890163","965215","5.278879","1.288630","-0.008631","7760","9609","10529","4446","4927","5145","3801","4169","4328","3059","3084","3094","2664","2576","2548",""
"MA200-0420","26790","60","1","1.10","1.4","2023-05-28T12:49:31","120","2023/05/28","12:49:31","-15.79546183347702","35.002592666540295","1.2","13","30","64","81","-112","-1500","-26741","2","150","149.44","113.66","35.77","28.27","38.2","12.67","90432","27.13","DUALSPOT-UV-BLUE-GREEN-RED-IR","653802","663313","903239","21.389312","7.107486","0.014269","797110","875105","839569","13.344460","4.161471","0.012883","798318","859355","834955","10.968637","3.302199","0.009248","827712","861906","886588","8.433250","2.475128","-0.014543","746165","890023","965113","5.294250","1.292884","-0.035857","4203","5436","6049","2842","3248","3432","2487","2683","2768","2198","2028","1958","1889","1661","1587",""
"MA200-0420","26791","60","1","1.10","1.4","2023-05-28T12:50:01","120","2023/05/28","12:50:01","-15.795559525489807","35.00275999982841","0.2","13","30","64","81","-56","-1516","-26556","2","150","150.02","113.57","36.45","28.27","38.2","12.66","90428","27.13","DUALSPOT-UV-BLUE-GREEN-RED-IR","651910","661845","901572","21.493354","7.144371","0.006306","795022","873104","837800","13.395094","4.178399","0.004268","796592","857703","833478","11.007806","3.315628","0.008088","825572","859891","884611","8.463566","2.485968","0.016448","744910","888648","963673","5.311554","1.298650","0.009089","5380","5943","6224","3305","3442","3505","2863","3058","3143","2677","2983","3111","2128","2209","2236",""
"MA200-0420","26792","60","1","1.10","1.4","2023-05-28T12:50:31","120","2023/05/28","12:50:31","-15.795615136623383","35.00277899974026","1.3","13","30","64","81","-76","-1428","-26547","2","150","149.89","113.86","36.02","28.28","38.1","12.66","90432","27.19","DUALSPOT-UV-BLUE-GREEN-RED-IR","653244","663470","904085","21.575280","7.176233","0.011851","796450","874932","839637","13.437309","4.192596","0.006245","798296","859762","835545","11.041973","3.324413","-0.033142","828259","862818","887662","8.487824","2.491879","-0.056826","746477","890635","965829","5.327642","1.301764","-0.198379","4226","5195","5677","2748","2921","3000","2491","2024","1823","2137","1646","1441","1973","1207","959",""
"MA200-0420","26793","60","1","1.10","1.4","2023-05-28T12:51:01","120","2023/05/28","12:51:01","-15.795554339885712","35.0025509998668","1.9","13","30","64","81","25","-1383","-26700","2","150","150.40","114.40","35.99","28.28","38.1","12.64","90428","27.19","DUALSPOT-UV-BLUE-GREEN-RED-IR","652508","662921","903437","21.618298","7.193065","0.012377","796162","874733","839565","13.463892","4.202467","0.015424","793197","854346","830363","11.064458","3.333372","0.024952","827467","862073","886975","8.504166","2.498563","0.035074","745857","889942","965148","5.336689","1.304660","0.004283","2208","2746","3015","1722","2033","2173","1631","2066","2253","1433","1863","2042","1104","1124","1130",""
"MA200-0420","26794","60","1","1.10","1.4","2023-05-28T12:51:31","120","2023/05/28","12:51:31","0","0","0.0","13","30","64","81","-64","-1512","-26444","2","150","150.08","113.86","36.22","28.29","38.0","12.63","90432","27.19","DUALSPOT-UV-BLUE-GREEN-RED-IR","657328","667942","910471","21.654480","7.207233","0.011875","796439","875166","840029","13.488280","4.211521","0.014487","800811","862725","838576","11.084601","3.340113","0.006254","827179","861863","886783","8.519500","2.502880","-0.022822","745910","890091","965310","5.348324","1.307441","-0.091698","1866","2297","2512","1587","1853","1973","1468","1545","1578","1351","1195","1131","1427","1072","957",""
"MA200-0420","26795","60","1","1.10","1.4","2023-05-28T12:52:01","120","2023/05/28","12:52:01","0","0","0.0","13","30","64","81","-66","-1408","-26541","2","150","149.47","113.97","35.50","28.30","38.0","12.61","90432","27.19","DUALSPOT-UV-BLUE-GREEN-RED-IR","656276","667610","910633","21.823838","7.273838","0.012951","794937","873995","839161","13.568251","4.239177","0.010192","791472","852976","829241","11.144295","3.360313","0.009885","827555","862531","887570","8.562422","2.517011","0.008723","746135","890504","965836","5.373424","1.314202","-0.040586","8727","11020","12166","5201","5775","6036","4348","4724","4886","3778","3993","4083","3076","2660","2525",""
"MA200-0420","26796","60","1","1.10","1.4","2023-05-28T12:52:31","120","2023/05/28","12:52:31","0","0","0.0","12","30","64","81","-20","-1364","-26591","2","150","149.95","114.38","35.58","28.30","37.9","12.58","90432","27.19","DUALSPOT-UV-BLUE-GREEN-RED-IR","655976","667616","910886","21.905570","7.305742","0.012631","795319","874652","839919","13.613145","4.255610","0.015030","796149","858203","834438","11.180259","3.372693","0.011854","827824","862918","888070","8.588251","2.525537","0.009302","745645","890050","965370","5.388986","1.317927","-0.081451","4197","5267","5802","2909","3424","3658","2610","2889","3009","2265","2404","2462","1900","1462","1320",""
"MA200-0420","26797","60","1","1.10","1.4","2023-05-28T12:53:01","120","2023/05/28","12:53:01","0","0","0.0","12","30","64","81","8","-1279","-26725","2","150","149.65","114.05","35.60","28.31","37.9","12.58","90432","27.25","DUALSPOT-UV-BLUE-GREEN-RED-IR","651094","662881","904632","21.961636","7.329803","0.016398","796113","875719","841035","13.644975","4.265892","0.003539","796118","858349","834636","11.206424","3.381592","0.010153","827091","862304","887501","8.607704","2.531659","0.001342","745990","890521","965943","5.402561","1.322904","0.034776","2887","3970","4512","2068","2141","2173","1904","2075","2149","1711","1725","1731","1662","1953","2047",""
"MA200-0420","26798","60","1","1.10","1.4","2023-05-28T12:53:31","120","2023/05/28","12:53:31","0","0","0.0","12","30","64","81","-83","-1291","-26475","2","150","149.82","113.78","36.04","28.31","37.8","12.56","90432","27.25","DUALSPOT-UV-BLUE-GREEN-RED-IR","650642","662690","904588","22.030044","7.354208","0.007237","795172","874861","840311","13.682319","4.279613","0.013807","796047","858423","834765","11.235022","3.391260","0.007835","827844","863192","888475","8.628823","2.538370","0.000536","741233","884921","959918","5.415270","1.326562","-0.025352","3531","3977","4201","2433","2822","2999","2086","2227","2288","1862","1868","1870","1560","1418","1371",""
"MA200-0420","26799","60","1","1.10","1.4","2023-05-28T12:54:01","120","2023/05/28","12:54:01","0","0","0.0","12","30","64","80","-70","-1416","-26679","2","150","149.82","114.14","35.68","28.31","37.8","12.53","90424","27.25","DUALSPOT-UV-BLUE-GREEN-RED-IR","648992","661215","902733","22.076790","7.373279","0.014229","793352","873064","838661","13.709370","4.289984","0.018078","794451","856835","833337","11.257137","3.399789","0.022277","826281","861650","886928","8.646032","2.545524","0.036823","744809","889233","964641","5.426109","1.330067","0.007998","2405","3139","3507","1756","2154","2335","1608","1984","2147","1512","2011","2219","1326","1372","1386",""
"MA200-0420","26800","60","1","1.10","1.4","2023-05-28T12:54:31","120","2023/05/28","12:54:31","0","0","0.0","12","30","64","81","-84","-1504","-26684","2","150","149.95","113.55","36.41","28.32","37.7","12.52","90428","27.25","DUALSPOT-UV-BLUE-GREEN-RED-IR","649639","662049","904070","22.125556","7.392305","0.011101","794665","874610","840241","13.736403","4.301368","0.022814","791280","853477","830148","11.279322","3.407765","0.013124","828021","863564","888967","8.662335","2.551070","0.009214","746198","890983","966537","5.437765","1.333094","-0.061869","2522","3069","3344","1764","2318","2570","1622","1818","1903","1440","1528","1565","1434","1161","1073",""
"MA200-0420","26801","60","1","1.10","1.4","2023-05-28T12:55:01","120","2023/05/28","12:55:01","0","0","0.0","12","30","64","81","-95","-1412","-26775","2","150","150.34","113.98","36.36","28.32","37.7","12.52","90424","27.25","DUALSPOT-UV-BLUE-GREEN-RED-IR","649682","662273","904477","22.165764","7.408602","0.013035","794459","874564","840269","13.763922","4.309988","-0.001978","795661","858359","834964","11.302173","3.416008","0.013967","827969","863604","889034","8.678692","2.556126","-0.005304","745613","890382","965878","5.448637","1.335796","-0.075987","2071","2632","2913","1789","1757","1742","1664","1882","1976","1439","1395","1376","1332","1037","942",""
"MA200-0420","26802","60","1","1.10","1.4","2023-05-28T12:55:31","120","2023/05/28","12:55:31","0","0","0.0","12","30","64","81","-92","-1408","-26663","2","150","149.63","113.51","36.12","28.32","37.7","12.52","90432","27.25","DUALSPOT-UV-BLUE-GREEN-RED-IR","654214","667066","911206","22.212158","7.425823","0.009008","794593","874856","840678","13.791297","4.320150","0.014156","794874","857626","834299","11.324228","3.424233","0.017463","827877","863631","889122","8.695166","2.561256","-0.003619","745274","890059","965554","5.457603","1.338409","-0.022999","2400","2800","3001","1787","2085","2221","1613","1890","2010","1456","1424","1411","1103","1010","980",""
"MA200-0420","26803","60","1","1.10","1.4","2023-05-28T12:56:01","120","2023/05/28","12:56:01","0","0","0.0","12","30","64","81","-54","-1500","-26608","2","150","150.28","113.82","36.45","28.33","37.7","12.51","90428","27.25","DUALSPOT-UV-BLUE-GREEN-RED-IR","649656","662613","905301","22.262616","7.445400","0.010830","794395","874810","840708","13.821026","4.330259","0.005967","790790","853351","830218","11.348493","3.431583","-0.007435","828228","864076","889649","8.714001","2.568165","0.019617","746098","891075","966725","5.469513","1.342134","-0.005851","2603","3154","3430","1936","2055","2110","1769","1673","1632","1660","1901","2002","1461","1427","1416",""
"MA200-0420","26804","60","1","1.10","1.4","2023-05-28T12:56:31","120","2023/05/28","12:56:31","0","0","0.0","12","30","64","80","-5","-1505","-26554","2","150","150.42","113.72","36.70","28.32","37.6","12.49","90428","27.25","DUALSPOT-UV-BLUE-GREEN-RED-IR","647922","660975","903202","22.298680","7.458097","0.005398","793278","873740","839768","13.848732","4.340643","0.013741","793954","856904","833743","11.372549","3.440082","0.010534","825163","860990","886521","8.732133","2.573799","-0.006365","744397","889124","964649","5.483225","1.345405","-0.096263","1862","2032","2117","1806","2097","2230","1756","1922","1995","1599","1540","1515","1684","1245","1102",""
"MA200-0420","26805","60","1","1.10","1.4","2023-05-28T12:57:01","120","2023/05/28","12:57:01","-15.795626699924469","35.00279033300467","57073.4","12","30","64","80","-4","-1512","-26495","2","150","149.76","113.55","36.21","28.33","37.6","12.49","90424","27.25","DUALSPOT-UV-BLUE-GREEN-RED-IR","648902","662119","904894","22.331536","7.470360","0.009125","794443","875152","841189","13.876332","4.350215","0.008152","794635","857781","834659","11.396598","3.448689","0.013087","826979","862977","888630","8.752151","2.581016","0.017848","745562","890607","966327","5.498140","1.350799","0.027438","1699","1989","2134","1801","1959","2031","1758","1973","2066","1768","1999","2096","1835","2080","2161",""
"MA200-0420","26806","60","1","1.10","1.4","2023-05-28T12:57:31","120","2023/05/28","12:57:31","-15.795475840568542","35.00292883324437","0.3","12","30","64","81","8","-1383","-26579","2","150","149.60","113.72","35.88","28.33","37.5","12.45","90420","27.25","DUALSPOT-UV-BLUE-GREEN-RED-IR","648890","662200","905079","22.356842","7.482172","0.018734","794475","875298","841437","13.899761","4.360962","0.028642","790870","853834","830892","11.416445","3.456956","0.027575","826831","862911","888624","8.768408","2.587633","0.033248","745464","890581","966312","5.509138","1.355157","0.046023","1307","1933","2249","1527","2220","2537","1448","1913","2114","1434","1850","2024","1350","1696","1809",""
"MA200-0420","26807","60","1","1.10","1.4","2023-05-28T12:58:01","120","2023/05/28","12:58:01","-15.795465767383575","35.00282916636206","0.2","12","30","64","81","-48","-1368","-26532","2","150","149.56","113.70","35.86","28.33","37.5","12.43","0","0.00","DUALSPOT-UV-BLUE-GREEN-RED-IR","648285","661719","904550","22.388210","7.496378","0.017688","793797","874704","840932","13.923373","4.369855","0.015851","790886","853946","831087","11.439254","3.465963","0.023223","826716","862893","888662","8.786126","2.593820","0.015044","745684","890906","966719","5.521934","1.359840","0.031773","1620","2327","2682","1539","1838","1975","1665","2085","2267","1563","1731","1801","1572","1824","1906",""
"MA200-0420","26808","60","1","1.10","1.4","2023-05-28T12:58:31","120","2023/05/28","12:58:31","-15.79550701379776","35.0028404998593","0.5","12","30","64","81","-104","-1568","-26524","2","150","150.21","114.01","36.20","28.33","37.4","12.42","0","0.00","DUALSPOT-UV-BLUE-GREEN-RED-IR","648225","661863","904872","22.433236","7.510832","0.000724","793702","874776","841109","13.955895","4.380279","0.000978","790723","853928","831140","11.465988","3.474599","0.002122","826823","863144","888957","8.806937","2.599786","-0.018146","745484","890754","966595","5.535005","1.362855","-0.102991","2319","2345","2357","2114","2134","2143","1946","1980","1995","1831","1653","1578","1601","1163","1020",""
"MA200-0420","26809","60","1","1.10","1.4","2023-05-28T12:59:01","120","2023/05/28","12:59:01","-15.795735478401184","35.00266766641289","1.0","12","30","64","80","-59","-1472","-26588","2","150","149.89","113.74","36.14","28.33","37.4","12.42","90420","27.25","DUALSPOT-UV-BLUE-GREEN-RED-IR","647015","660785","903509","22.473130","7.526041","0.010279","792323","873416","839849","13.983348","4.390287","0.012637","789577","852794","830104","11.489521","3.483677","0.020448","824958","861279","887110","8.824947","2.606453","0.021483","744542","889704","965478","5.548828","1.366024","-0.105582","2060","2471","2678","1789","2052","2173","1717","2085","2245","1588","1850","1960","1697","1224","1070",""
"MA200-0420","26810","60","1","1.10","1.4","2023-05-28T12:59:31","120","2023/05/28","12:59:31","-15.795685172080994","35.002890166360885","0.9","12","30","64","80","-8","-1491","-26566","2","150","149.52","113.72","35.80","28.33","37.4","12.42","90424","27.25","DUALSPOT-UV-BLUE-GREEN-RED-IR","648420","662300","905708","22.498906","7.536585","0.013800","788002","868744","835438","14.004047","4.397821","0.013246","791088","854553","831871","11.508510","3.489989","0.006463","826733","863230","889156","8.839471","2.611242","0.007147","745852","891322","967251","5.557464","1.369178","0.031575","1331","1729","1930","1349","1560","1656","1386","1463","1497","1281","1342","1367","1060","1231","1286",""
"MA200-0420","26811","60","1","1.10","1.4","2023-05-28T13:00:01","120","2023/05/28","13:00:01","-15.795408308506012","35.00290216621943","0.6","12","30","64","81","-56","-1372","-26703","2","150","149.47","113.81","35.66","28.33","37.4","12.39","90420","27.25","DUALSPOT-UV-BLUE-GREEN-RED-IR","648049","661993","905366","22.518918","7.544494","0.012527","793470","874877","841395","14.022387","4.405230","0.021152","790450","853933","831323","11.524481","3.495091","0.002358","825989","862503","888445","8.850523","2.615613","0.030638","745174","890558","966460","5.566326","1.372712","0.047705","1032","1302","1438","1194","1540","1698","1165","1187","1197","974","1229","1336","1087","1384","1481",""
"MA200-0420","26812","60","1","1.10","1.4","2023-05-28T13:00:31","120","2023/05/28","13:00:31","-15.795708239078522","35.0028159993235","0.5","12","30","64","80","-72","-1508","-26647","2","150","149.38","113.70","35.67","28.34","37.4","12.40","90420","27.25","DUALSPOT-UV-BLUE-GREEN-RED-IR","648284","662318","905901","22.538990","7.551876","0.009123","787196","868043","834861","14.038960","4.411882","0.020617","790793","854379","831809","11.539412","3.502262","0.037472","827372","864022","890061","8.863296","2.620598","0.029043","745636","891161","967120","5.574241","1.374975","-0.023942","1036","1215","1305","1080","1382","1520","1090","1668","1920","1126","1402","1517","972","886","857",""
"MA200-0420","26813","60","1","1.10","1.4","2023-05-28T13:01:01","120","2023/05/28","13:01:01","-15.795578002929688","35.0027324995026","0.4","12","30","64","80","-40","-1256","-26647","2","150","149.60","113.85","35.75","28.34","37.3","12.39","90416","27.25","DUALSPOT-UV-BLUE-GREEN-RED-IR","648125","662245","905809","22.555076","7.558447","0.013805","787727","868725","835594","14.054978","4.416937","0.000482","790676","854341","831782","11.552542","3.506327","-0.001792","827212","863886","889958","8.874015","2.624282","0.013307","745703","891306","967289","5.580118","1.376231","-0.131931","829","1079","1205","1043","1048","1050","957","943","938","944","1033","1071","721","490","415",""
"MA200-0420","26814","60","1","1.10","1.4","2023-05-28T13:01:31","120","2023/05/28","13:01:31","-15.795481324195862","35.00274599972181","1.4","12","30","64","80","-64","-1340","-26580","2","150","150.29","114.09","36.20","28.34","37.4","12.40","90420","27.25","DUALSPOT-UV-BLUE-GREEN-RED-IR","647108","661275","904533","22.574272","7.564630","0.000997","792546","874151","840836","14.071190","4.422694","0.010543","790242","853968","831462","11.567065","3.510433","-0.016001","826296","863024","889083","8.885444","2.627377","-0.029567","745323","890866","966862","5.587524","1.378417","-0.018279","988","1003","1010","1053","1179","1236","1056","941","891","1004","857","795","906","843","822",""
