"Serial number","Datum ID","Session ID","Data format version","Firmware version","App version","Date / time local","Timezone offset (mins)","Date local (yyyy/MM/dd)","Time local (hh:mm:ss)","GPS lat (ddmm.mmmmm)","GPS long (dddmm.mmmmm)","GPS speed (km/h)","GPS sat count","Timebase (s)","Status","Battery remaining (%)","Accel X","Accel Y","Accel Z","Tape position","Flow setpoint (mL/min)","Flow total (mL/min)","Flow1 (mL/min)","Flow2 (mL/min)","Sample temp (C)","Sample RH (%)","Sample dewpoint (C)","Internal pressure (Pa)","Internal temp (C)","Optical config","UV Sen1","UV Sen2","UV Ref","UV ATN1","UV ATN2","UV K","Blue Sen1","Blue Sen2","Blue Ref","Blue ATN1","Blue ATN2","Blue K","Green Sen1","Green Sen2","Green Ref","Green ATN1","Green ATN2","Green K","Red Sen1","Red Sen2","Red Ref","Red ATN1","Red ATN2","Red K","IR Sen1","IR Sen2","IR Ref","IR ATN1","IR ATN2","IR K","UV BC1","UV BC2","UV BCc","Blue BC1","Blue BC2","Blue BCc","Green BC1","Green BC2","Green BCc","Red BC1","Red BC2","Red BCc","IR BC1","IR BC2","IR BCc","Readable status"
"MA200-0416","21623","61","1","1.10","1.4","2023-05-09T13:59:59","120","2023/05/09","13:59:59","-15.795838356018066","35.03651299327612","13.0","12","30","66","74","-1384","23884","-5092","6","150","149.42","114.40","35.02","27.78","48.0","15.76","89788","27.38","DUALSPOT-UV-BLUE-GREEN-RED-IR","859608","741065","906583","0.000000","0.000000","0.000000","809241","923576","762188","0.000000","0.000000","0.000000","904005","926237","814283","0.000000","0.000000","0.000000","883734","941036","861460","0.000000","0.000000","0.000000","749924","863405","953875","0.000000","0.000000","0.000000","","","","","","","","","","","","","","","","Start up"
"MA200-0416","21624","61","1","1.10","1.4","2023-05-09T14:00:29","120","2023/05/09","14:00:29","-15.793731808662415","35.03565899282694","5.1","12","30","66","74","1496","24132","-6244","6","150","149.51","114.00","35.50","27.87","47.9","15.82","89724","27.50","DUALSPOT-UV-BLUE-GREEN-RED-IR","855979","739943","906034","0.000000","0.000000","0.000000","807018","922842","762163","0.000000","0.000000","0.000000","904938","928775","817004","0.000000","0.000000","0.000000","887098","945912","866366","0.000000","0.000000","0.000000","746995","860831","951339","0.000000","0.000000","0.000000","","","","","","","","","","","","","","","","Start up"
"MA200-0416","21625","61","1","1.10","1.4","2023-05-09T14:00:59","120","2023/05/09","14:00:59","-15.792414844036102","35.03500882908702","7.2","14","30","66","74","572","24272","-4936","6","150","149.51","113.80","35.70","27.98","47.7","15.84","89604","27.63","DUALSPOT-UV-BLUE-GREEN-RED-IR","852892","738661","905061","0.000000","0.000000","0.000000","808782","926124","765204","0.000000","0.000000","0.000000","901834","926642","815447","0.000000","0.000000","0.000000","883110","942492","863489","0.000000","0.000000","0.000000","748939","863627","954638","0.000000","0.000000","0.000000","","","","","","","","","","","","","","","","Start up"
"MA200-0416","21626","61","1","1.10","1.4","2023-05-09T14:01:29","120","2023/05/09","14:01:29","-15.791501700878143","35.03545365855098","11.2","15","30","66","74","119","24240","-5244","6","150","149.90","114.60","35.30","28.03","47.4","15.79","89568","27.75","DUALSPOT-UV-BLUE-GREEN-RED-IR","853951","740360","907493","0.000000","0.000000","0.000000","804723","922089","762093","0.000000","0.000000","0.000000","902680","928014","816804","0.000000","0.000000","0.000000","886693","946719","867494","0.000000","0.000000","0.000000","750015","865176","956447","0.000000","0.000000","0.000000","","","","","","","","","","","","","","","","Start up"
"MA200-0416","21627","61","1","1.10","1.4","2023-05-09T14:01:59","120","2023/05/09","14:01:59","-15.789965331554413","35.03626765683293","7.4","14","30","64","74","1648","24136","-5120","6","150","149.83","114.76","35.07","28.11","47.0","15.73","89520","27.81","DUALSPOT-UV-BLUE-GREEN-RED-IR","855822","742466","910281","0.000000","0.000000","0.000000","806847","924875","764504","0.000000","0.000000","0.000000","898996","924494","813793","0.000000","0.000000","0.000000","881719","941613","862848","0.000000","0.000000","0.000000","746119","860828","951696","0.000000","0.000000","0.000000","","","","","","","","","","","","","","","",""
"MA200-0416","21628","61","1","1.10","1.4","2023-05-09T14:02:29","120","2023/05/09","14:02:29","-15.787718176841736","35.03602382168174","2.8","14","30","64","74","-36","23820","-5408","6","150","149.33","114.24","35.09","28.17","46.8","15.71","89396","27.94","DUALSPOT-UV-BLUE-GREEN-RED-IR","850036","738385","905683","0.121438","0.031629","0.000000","807434","926381","765964","0.082391","0.019746","0.000000","898974","925143","814580","0.065218","0.015556","0.000000","883456","944071","865253","0.048649","0.009834","0.000000","746933","862118","953227","0.035903","0.008211","0.000000","6243","5295","6243","5346","4172","5346","4739","3681","4739","4272","2812","4272","4390","3269","4390",""
"MA200-0416","21629","61","1","1.10","1.4","2023-05-09T14:02:59","120","2023/05/09","14:02:59","-15.787170052528381","35.03486932441592","5.6","14","30","64","74","-2592","23936","-4908","6","150","149.94","114.88","35.06","28.25","46.6","15.73","89464","28.00","DUALSPOT-UV-BLUE-GREEN-RED-IR","851004","740637","909054","0.385043","0.098976","0.000000","802924","922530","763195","0.280481","0.071125","0.000000","900017","927354","816821","0.229042","0.055098","0.000000","879083","940319","862088","0.181114","0.042181","0.000000","747950","863906","955378","0.127721","0.030013","0.000000","13477","11282","13477","12783","10863","12783","11839","9363","11839","11568","9256","11568","11165","8686","11165",""
"MA200-0416","21630","61","1","1.10","1.4","2023-05-09T14:03:29","120","2023/05/09","14:03:29","-15.786672711372375","35.03344349190593","5.3","15","30","64","73","-2392","24044","-4908","6","150","149.33","114.56","34.77","28.32","46.5","15.77","89564","28.06","DUALSPOT-UV-BLUE-GREEN-RED-IR","847441","739978","909377","0.880498","0.234375","0.000000","800227","922004","763484","0.694012","0.180463","0.000000","896275","925802","816195","0.593822","0.152503","0.000000","875785","938755","861294","0.485271","0.121128","0.000000","745825","862692","954542","0.339544","0.084142","0.000000","25402","22874","25402","26760","23314","26760","26436","23260","26436","26637","22781","26637","25830","21749","25830",""
"MA200-0416","21631","61","1","1.10","1.4","2023-05-09T14:03:59","120","2023/05/09","14:03:59","-15.786496698856354","35.032151997089386","2.3","15","30","64","74","-4536","24144","-3852","6","150","150.21","114.79","35.42","28.39","46.4","15.78","89656","28.13","DUALSPOT-UV-BLUE-GREEN-RED-IR","843398","737019","905979","0.989722","0.260599","0.000000","797128","918913","761090","0.769084","0.198762","0.000000","893795","923613","814361","0.655376","0.166874","0.000000","880366","944001","866159","0.535047","0.130945","0.000000","743354","860121","951768","0.379966","0.092981","0.000000","5588","4348","5588","4848","3829","4848","4451","3368","4451","4350","2780","4350","4919","3485","4919",""
"MA200-0416","21632","61","1","1.10","1.4","2023-05-09T14:04:29","120","2023/05/09","14:04:29","-15.785846412181854","35.03248215839267","3.2","15","30","64","74","1948","24256","-6492","6","150","149.92","114.61","35.31","28.45","46.1","15.76","89612","28.19","DUALSPOT-UV-BLUE-GREEN-RED-IR","845747","739673","909502","1.100344","0.290805","0.000000","799191","921781","763594","0.842499","0.218122","0.000000","894068","924332","815118","0.715076","0.181245","0.000000","875336","938943","861621","0.581967","0.141739","0.000000","744133","861214","953041","0.411443","0.098823","0.000000","5669","5024","5669","4748","4064","4748","4324","3378","4324","4107","3067","4107","3836","2311","3836",""
"MA200-0416","21633","61","1","1.10","1.4","2023-05-09T14:04:59","120","2023/05/09","14:04:59","-15.786043882369995","35.03340516239405","2.8","15","30","64","73","1691","24104","-6016","6","150","149.47","113.90","35.57","28.53","46.1","15.81","89540","28.25","DUALSPOT-UV-BLUE-GREEN-RED-IR","845279","739661","909658","1.167970","0.308322","0.000000","798598","921458","763421","0.886511","0.228248","0.000000","894198","924751","815567","0.750714","0.187945","0.000000","875006","938780","861533","0.606840","0.145107","0.000000","744283","861559","953461","0.430786","0.102597","0.000000","3487","2892","3487","2864","2110","2864","2597","1563","2597","2190","949","2190","2372","1481","2372",""
"MA200-0416","21634","61","1","1.10","1.4","2023-05-09T14:05:29","120","2023/05/09","14:05:29","-15.786280989646912","35.034461829811335","5.0","15","30","64","73","-4","23952","-5252","6","150","149.33","114.48","34.85","28.57","46.0","15.83","89456","28.38","DUALSPOT-UV-BLUE-GREEN-RED-IR","841061","736445","905949","1.264141","0.333835","0.000000","795766","918589","761168","0.949800","0.244867","0.000000","891237","922015","813222","0.801384","0.200587","0.000000","879525","943929","866325","0.648075","0.154644","0.000000","741334","858308","949934","0.460948","0.110328","0.000000","4934","4300","4934","4098","3535","4098","3674","3011","3674","3613","2745","3613","3680","3099","3680",""
"MA200-0416","21635","61","1","1.10","1.4","2023-05-09T14:05:59","120","2023/05/09","14:05:59","-15.786799192428589","35.03569182381034","3.5","16","30","64","73","-1120","23856","-6072","6","150","149.67","114.42","35.25","28.64","46.0","15.90","89392","28.44","DUALSPOT-UV-BLUE-GREEN-RED-IR","840392","738600","909932","1.737805","0.466054","0.000000","796547","921164","763729","1.167404","0.300514","0.000000","891425","923457","814837","0.959092","0.238108","0.000000","873540","938467","861533","0.762498","0.179439","0.000000","741937","859567","951501","0.534479","0.126029","0.000000","24314","22032","24314","14098","11703","14098","11443","8837","11443","10032","7057","10032","8977","6222","8977",""
"MA200-0416","21636","61","1","1.10","1.4","2023-05-09T14:06:29","120","2023/05/09","14:06:29","-15.785988211631775","35.03622832521796","3.5","15","30","64","73","-2288","23180","-9036","6","150","150.03","114.92","35.11","28.71","46.0","15.94","89372","28.50","DUALSPOT-UV-BLUE-GREEN-RED-IR","838692","737712","909044","1.881977","0.505210","0.000000","795402","920345","763218","1.257842","0.321918","0.000000","890206","922617","814242","1.032066","0.254654","0.000000","872700","937928","861113","0.819945","0.190317","0.000000","740785","858437","950300","0.574720","0.135307","0.000000","7368","6550","7368","5834","4519","5834","5272","3912","5272","5015","3108","5015","4891","3691","4891",""
"MA200-0416","21637","61","1","1.10","1.4","2023-05-09T14:06:59","120","2023/05/09","14:06:59","-15.785039365291595","35.035301990807056","5.8","15","30","64","73","-2796","24928","-4456","6","150","150.05","114.88","35.17","28.77","45.8","15.94","89452","28.56","DUALSPOT-UV-BLUE-GREEN-RED-IR","835172","735246","906343","2.010976","0.542175","0.000000","797192","922939","765542","1.342332","0.345098","0.000000","891694","924589","816091","1.098811","0.271368","0.000000","876517","942405","865318","0.871336","0.201779","0.000000","743013","861259","953532","0.610567","0.143976","0.000000","6595","6173","6595","5452","4885","5452","4823","3945","4823","4488","3269","4488","4359","3443","4359",""
"MA200-0416","21638","61","1","1.10","1.4","2023-05-09T14:07:29","120","2023/05/09","14:07:29","-15.784326434135437","35.03519365936518","4.4","15","30","64","73","-1424","24380","-4496","6","150","149.54","114.50","35.05","28.83","45.7","15.93","89496","28.63","DUALSPOT-UV-BLUE-GREEN-RED-IR","837051","737224","908916","2.070794","0.557498","0.000000","793622","919088","762401","1.381331","0.354909","0.000000","892824","925978","817353","1.129668","0.277316","0.000000","871986","937690","861030","0.895512","0.207239","0.000000","743793","862272","954662","0.629262","0.147592","0.000000","3068","2568","3068","2525","2075","2525","2237","1409","2237","2118","1562","2118","2281","1441","2281",""
"MA200-0416","21639","61","1","1.10","1.4","2023-05-09T14:07:59","120","2023/05/09","14:07:59","-15.784004509449005","35.03475599363446","5.2","15","30","64","73","704","24360","-6128","6","150","149.82","114.88","34.95","28.90","45.6","15.97","89532","28.69","DUALSPOT-UV-BLUE-GREEN-RED-IR","837513","738049","910103","2.146190","0.576108","0.000000","794554","920484","763634","1.426708","0.363182","0.000000","888853","922129","814008","1.165085","0.283861","0.000000","873611","939628","862842","0.919723","0.209069","0.000000","740001","858008","950004","0.649524","0.151474","0.000000","3854","3127","3854","2928","1754","2928","2559","1554","2559","2114","525","2114","2463","1551","2463",""
"MA200-0416","21640","61","1","1.10","1.4","2023-05-09T14:08:29","120","2023/05/09","14:08:29","-15.785035073757172","35.033662494271994","5.0","15","30","64","73","-1984","23932","-5408","6","150","149.53","114.84","34.69","28.94","45.4","15.94","89516","28.75","DUALSPOT-UV-BLUE-GREEN-RED-IR","833244","734607","906006","2.205883","0.591913","0.000000","791362","916994","760805","1.462573","0.371747","0.000000","889282","922806","814636","1.194154","0.288956","0.000000","874964","941249","864352","0.940549","0.210785","0.000000","740378","858538","950623","0.664924","0.154773","0.000000","3053","2675","3053","2315","1830","2315","2101","1219","2101","1819","496","1819","1873","1328","1873",""
"MA200-0416","21641","61","1","1.10","1.4","2023-05-09T14:08:59","120","2023/05/09","14:08:59","-15.78543496131897","35.03405398875475","3.9","16","30","64","73","2680","24276","-7132","6","150","149.76","114.84","34.92","29.00","45.2","15.92","89464","28.75","DUALSPOT-UV-BLUE-GREEN-RED-IR","833406","735942","907969","2.400261","0.628952","0.000000","791537","918422","762226","1.618468","0.400894","0.000000","888661","923224","815260","1.332747","0.312763","0.000000","875129","942465","865641","1.066654","0.232577","0.000000","740238","859263","951611","0.782814","0.171538","0.000000","9941","6229","9941","10063","6187","10063","10019","5659","10019","11016","6260","11016","14340","6705","14340",""
"MA200-0416","21642","61","1","1.10","1.4","2023-05-09T14:09:29","120","2023/05/09","14:09:29","-15.78587156534195","35.03545565903187","5.4","15","30","64","73","-504","24472","-5636","6","150","150.09","115.51","34.58","29.06","45.1","15.94","89388","28.88","DUALSPOT-UV-BLUE-GREEN-RED-IR","834757","737539","910102","2.472163","0.646026","0.000000","792395","919818","763431","1.667654","0.409936","0.000000","889780","924737","816614","1.374953","0.320225","0.000000","870196","937427","861036","1.100218","0.236719","0.000000","741404","860851","953396","0.811962","0.177347","0.000000","3656","2900","3656","3156","1938","3156","3033","1791","3033","2915","1201","2915","3525","2346","3525",""
"MA200-0416","21643","61","1","1.10","1.4","2023-05-09T14:09:59","120","2023/05/09","14:09:59","-15.78594833612442","35.036287155002356","1.9","15","30","64","73","-136","23884","-6811","6","150","149.33","114.92","34.41","29.12","45.0","15.96","89364","28.88","DUALSPOT-UV-BLUE-GREEN-RED-IR","829584","733314","905060","2.540177","0.663284","0.000000","793358","921190","764662","1.712018","0.419460","0.000000","885210","920223","812690","1.409833","0.326800","0.000000","871867","939417","862933","1.127797","0.239979","0.000000","741604","861235","953831","0.832338","0.181176","0.000000","3476","2945","3476","2861","2051","2861","2519","1586","2519","2407","950","2407","2476","1554","2476",""
"MA200-0416","21644","61","1","1.10","1.4","2023-05-09T14:10:29","120","2023/05/09","14:10:29","-15.785209059715271","35.037091825157404","2.3","15","30","64","73","-2372","23872","-5652","6","150","150.29","115.00","35.30","29.18","44.9","15.99","89388","29.00","DUALSPOT-UV-BLUE-GREEN-RED-IR","827946","732321","904013","2.625233","0.685665","0.000000","792445","920504","764159","1.760530","0.430696","0.000000","885432","920708","813170","1.446955","0.333368","0.000000","872456","940299","863743","1.155078","0.244593","0.000000","741668","861442","954129","0.854448","0.185321","0.000000","4344","3724","4344","3127","2359","3127","2680","1544","2680","2380","1311","2380","2685","1640","2685",""
"MA200-0416","21645","61","1","1.10","1.4","2023-05-09T14:10:59","120","2023/05/09","14:10:59","-15.784645795822144","35.03658815473318","2.3","15","30","64","73","-1724","23800","-5168","6","150","150.17","115.75","34.42","29.23","44.8","16.00","89460","29.06","DUALSPOT-UV-BLUE-GREEN-RED-IR","832244","736414","909213","2.681721","0.701311","0.000000","790186","918091","762231","1.794540","0.438541","0.000000","887557","923116","815328","1.472603","0.339031","0.000000","869562","937282","861034","1.174265","0.246422","0.000000","739204","858665","951097","0.869781","0.188714","0.000000","2866","2669","2866","2178","1689","2178","1839","1365","1839","1663","533","1663","1850","1377","1850",""
"MA200-0416","21646","61","1","1.10","1.4","2023-05-09T14:11:29","120","2023/05/09","14:11:29","-15.783993303775787","35.0359289906919","3.7","14","30","64","73","-3516","23860","-5700","6","150","149.70","115.04","34.66","29.29","44.7","16.00","89508","29.06","DUALSPOT-UV-BLUE-GREEN-RED-IR","821542","727308","898114","2.744705","0.719104","0.000000","791895","920361","764184","1.833212","0.447349","0.000000","888691","924561","816612","1.502037","0.344014","0.000000","871383","939469","863004","1.196932","0.250118","0.000000","739995","859685","952246","0.887411","0.193388","0.000000","3215","3015","3215","2492","1883","2492","2124","1193","2124","1976","1069","1976","2140","1883","2140",""
"MA200-0416","21647","61","1","1.10","1.4","2023-05-09T14:11:59","120","2023/05/09","14:11:59","-15.783633053302765","35.03554565832019","0.8","14","30","64","72","-3407","23369","-8615","6","150","147.77","114.00","33.77","29.35","44.5","16.01","89548","29.13","DUALSPOT-UV-BLUE-GREEN-RED-IR","826425","731921","903955","2.801221","0.732883","0.000000","791229","919800","763774","1.866931","0.455020","0.000000","887832","923828","816018","1.527034","0.347971","0.000000","869561","937642","861346","1.214867","0.251358","0.000000","739194","858844","951361","0.903242","0.196598","0.000000","2911","2396","2911","2192","1684","2192","1820","973","1820","1578","368","1578","1939","1327","1939",""
"MA200-0416","21648","61","1","1.10","1.4","2023-05-09T14:12:29","120","2023/05/09","14:12:29","-15.783156514167786","35.035623989999294","4.3","14","30","64","73","-3000","23680","-6120","6","150","150.05","114.61","35.44","29.39","44.5","16.05","89592","29.19","DUALSPOT-UV-BLUE-GREEN-RED-IR","828732","734685","907606","2.924715","0.759960","0.000000","788494","917188","761707","1.938671","0.468730","0.000000","884314","920583","813229","1.578848","0.357079","0.000000","872896","941532","864972","1.249468","0.254845","0.000000","740631","860705","953451","0.927715","0.201061","0.000000","6328","4487","6328","4640","2868","4640","3753","2133","3753","3028","987","3028","2982","1759","2982",""
"MA200-0416","21649","61","1","1.10","1.4","2023-05-09T14:12:59","120","2023/05/09","14:12:59","-15.782569706439972","35.03623482957482","5.4","14","30","64","73","-592","24556","-4252","6","150","149.80","114.84","34.96","29.46","44.6","16.13","89592","29.25","DUALSPOT-UV-BLUE-GREEN-RED-IR","815362","732249","909403","4.190734","1.130014","-0.013808","783249","916389","762562","2.487015","0.609647","0.000000","880918","920769","814421","1.944881","0.444280","0.000000","865961","936743","861274","1.498019","0.309907","0.000000","740270","861710","954944","1.065374","0.227713","0.000000","64754","62167","61212","35398","29879","35398","26463","20706","26463","21715","15800","21715","16745","10649","16745",""
"MA200-0416","21650","61","1","1.10","1.4","2023-05-09T14:13:29","120","2023/05/09","14:13:29","-15.781970739364624","35.03690232336521","2.7","15","30","64","73","2272","25156","-2448","6","150","149.34","114.88","34.46","29.51","44.6","16.17","89548","29.31","DUALSPOT-UV-BLUE-GREEN-RED-IR","809937","728165","904693","4.893019","1.326721","-0.020441","784203","918159","764231","2.810275","0.690704","0.000000","881309","921690","815358","2.179569","0.497424","0.000000","867485","938749","863201","1.662641","0.343029","0.000000","736432","857441","950265","1.157791","0.244713","0.000000","35907","33527","32642","20860","17437","20860","16961","12803","16961","14377","9643","14377","11238","6891","11238",""
"MA200-0416","21651","61","1","1.10","1.4","2023-05-09T14:13:59","120","2023/05/09","14:13:59","-15.782548189163208","35.037521321326494","3.0","15","30","64","72","2488","24316","-5184","6","150","150.83","114.93","35.90","29.58","44.4","16.19","89444","29.44","DUALSPOT-UV-BLUE-GREEN-RED-IR","809501","728008","904637","4.948473","1.344362","0.004951","783634","917792","763969","2.854568","0.700420","0.000000","881053","921605","815382","2.213239","0.506049","0.000000","867392","938829","863322","1.688051","0.346904","0.000000","736065","857150","949982","1.177648","0.249854","0.000000","2834","2885","2905","2857","2006","2857","2432","1994","2432","2218","1082","2218","2413","1999","2413",""
"MA200-0416","21652","61","1","1.10","1.4","2023-05-09T14:14:29","120","2023/05/09","14:14:29","-15.782699167728424","35.03830049186945","2.4","15","30","64","72","1264","24540","-3748","6","150","149.63","114.52","35.11","29.63","44.3","16.20","89352","29.44","DUALSPOT-UV-BLUE-GREEN-RED-IR","813828","732136","909885","4.993653","1.357160","-0.023371","782357","916572","763033","2.892828","0.709003","0.000000","883000","923904","817441","2.244973","0.510799","0.000000","870516","942419","866633","1.710486","0.350147","0.000000","737655","859105","952206","1.194282","0.253051","0.000000","2317","2140","2075","2476","1812","2476","2300","1123","2300","1965","926","1965","2029","1272","2029",""
"MA200-0416","21653","61","1","1.10","1.4","2023-05-09T14:14:59","120","2023/05/09","14:14:59","-15.78232741355896","35.038849491626024","6.6","15","30","64","72","-2156","24156","-5080","6","150","150.05","114.84","35.21","29.70","44.2","16.21","89328","29.50","DUALSPOT-UV-BLUE-GREEN-RED-IR","806734","726362","902984","5.076421","1.379472","-0.039156","781744","916384","763016","2.952117","0.723337","0.000000","877456","918502","812757","2.290415","0.520288","0.000000","863725","935401","860229","1.744735","0.355821","0.000000","737090","858703","951790","1.220134","0.258045","0.000000","4233","3722","3531","3827","3017","3827","3285","2237","3285","2992","1616","2992","3144","1981","3144",""
"MA200-0416","21654","61","1","1.10","1.4","2023-05-09T14:15:29","120","2023/05/09","14:15:29","-15.780870735645294","35.03899432346225","4.9","15","30","64","72","-2660","24096","-4864","6","150","149.89","114.77","35.12","29.76","44.1","16.24","89344","29.63","DUALSPOT-UV-BLUE-GREEN-RED-IR","809627","729443","907060","5.191862","1.411663","-0.026715","784172","919683","765877","3.027331","0.741313","-0.134847","879775","921307","815320","2.346873","0.531911","0.000000","867218","939454","864014","1.787471","0.362604","0.000000","739293","861421","954850","1.252218","0.265258","0.000000","5908","5384","5188","4858","3794","3450","4084","2747","4084","3735","1937","3735","3905","2869","3905",""
"MA200-0416","21655","61","1","1.10","1.4","2023-05-09T14:15:59","120","2023/05/09","14:15:59","-15.779528558254242","35.039076663553715","4.1","15","30","64","72","-1546","23296","-4796","6","150","150.35","114.17","36.18","29.80","44.0","16.23","89364","29.69","DUALSPOT-UV-BLUE-GREEN-RED-IR","807962","729838","908401","5.489578","1.491918","-0.047033","778108","914237","761809","3.239417","0.795311","-0.108838","878887","921766","816125","2.519125","0.575744","0.000000","868209","941642","866323","1.919132","0.393730","0.000000","734809","856870","950047","1.340610","0.286787","0.000000","15316","13027","12173","13771","11062","10181","12526","10057","12526","11569","8630","11569","10815","8311","10815",""
"MA200-0416","21656","61","1","1.10","1.4","2023-05-09T14:16:29","120","2023/05/09","14:16:29","-15.77955037355423","35.038309156894684","4.9","15","30","64","72","-3848","23612","-6720","6","150","150.11","114.50","35.61","29.87","43.7","16.20","89480","29.69","DUALSPOT-UV-BLUE-GREEN-RED-IR","802370","725398","903159","5.668392","1.540082","-0.039801","779556","916471","763824","3.356165","0.824653","-0.101741","875474","918604","813433","2.612411","0.597136","0.000000","862602","935913","861139","1.990151","0.408923","0.000000","735501","857876","951273","1.389638","0.298140","0.000000","9173","7943","7484","7559","6107","5634","6764","4986","6764","6223","4279","6223","5981","4453","5981",""
"MA200-0416","21657","61","1","1.10","1.4","2023-05-09T14:16:59","120","2023/05/09","14:16:59","-15.780397355556488","35.03730249032378","6.1","15","30","64","72","-3025","23087","-5791","6","150","150.07","114.84","35.23","29.92","43.5","16.18","89564","29.75","DUALSPOT-UV-BLUE-GREEN-RED-IR","800905","724431","902059","5.728681","1.554952","-0.064214","778427","915450","763047","3.398287","0.834106","-0.162457","874722","918047","812989","2.645337","0.602089","0.000000","862720","936237","861455","2.013689","0.411742","0.000000","735074","857544","950912","1.411645","0.301736","0.000000","3083","2479","2254","2719","1989","1751","2380","1167","2380","2056","802","2056","2676","1426","2676",""
"MA200-0416","21658","61","1","1.10","1.4","2023-05-09T14:17:29","120","2023/05/09","14:17:29","-15.781338572502136","35.03667649254203","4.0","15","30","64","72","400","24620","-5768","6","150","150.49","115.11","35.39","29.96","43.3","16.14","89592","29.81","DUALSPOT-UV-BLUE-GREEN-RED-IR","803633","727142","905616","5.780448","1.570064","-0.012861","780929","918638","765776","3.433978","0.842201","-0.155064","875641","919239","814101","2.672350","0.607793","0.000000","864966","938848","863877","2.034401","0.413876","0.000000","736001","858731","952271","1.426031","0.304829","0.000000","2641","2508","2458","2298","1695","1499","1948","1338","1948","1805","605","1805","1745","1220","1745",""
"MA200-0416","21659","61","1","1.10","1.4","2023-05-09T14:17:59","120","2023/05/09","14:17:59","-15.781931936740875","35.03691382333636","2.7","15","30","64","72","792","24072","-6768","6","150","149.33","114.56","34.77","30.02","43.1","16.12","89536","29.88","DUALSPOT-UV-BLUE-GREEN-RED-IR","802194","726082","904392","5.828628","1.582536","-0.043385","775010","911917","760208","3.467101","0.849687","-0.147334","875065","918851","813746","2.697801","0.611912","0.000000","865242","939318","864301","2.052170","0.414782","0.000000","735909","858745","952272","1.441087","0.307605","0.000000","2470","2107","1971","2143","1596","1418","1844","983","1844","1556","261","1556","1836","1115","1836",""
"MA200-0416","21660","61","1","1.10","1.4","2023-05-09T14:18:29","120","2023/05/09","14:18:29","-15.782511711120605","35.037497486919165","2.3","15","30","64","72","1972","23984","-6024","6","150","149.72","114.21","35.51","30.06","43.1","16.14","89444","29.88","DUALSPOT-UV-BLUE-GREEN-RED-IR","805896","729796","909214","5.897135","1.600103","-0.053744","777712","915410","763189","3.511476","0.857238","-0.425364","876702","920807","815563","2.732020","0.617444","0.000000","867574","942053","866853","2.076923","0.418096","0.000000","737163","860337","954075","1.460092","0.310025","0.000000","3523","2905","2675","2880","1576","1155","2487","1293","2487","2174","936","2174","2324","951","2324",""
"MA200-0416","21661","61","1","1.10","1.4","2023-05-09T14:18:59","120","2023/05/09","14:18:59","-15.78271770477295","35.03826415538788","1.9","15","30","64","71","-928","23876","-4332","6","150","151.49","114.66","36.83","30.11","43.0","16.16","89352","29.94","DUALSPOT-UV-BLUE-GREEN-RED-IR","804321","728691","907978","5.955436","1.617616","-0.016423","776795","914607","762594","3.550130","0.867151","-0.102550","875447","919705","814653","2.763647","0.624668","0.000000","859983","933993","859460","2.097970","0.420599","0.000000","736341","859503","953196","1.478069","0.314703","0.000000","2986","2792","2720","2499","1995","1832","2290","1628","2290","1841","681","1841","2190","1774","2190",""
"MA200-0416","21662","61","1","1.10","1.4","2023-05-09T14:19:29","120","2023/05/09","14:19:29","-15.782246351242065","35.038830157369375","7.9","15","30","64","72","-1776","23996","-4757","6","150","149.60","114.78","34.82","30.17","43.0","16.19","89320","29.94","DUALSPOT-UV-BLUE-GREEN-RED-IR","799466","724768","903306","6.031893","1.639318","-0.016085","778737","917287","764933","3.601086","0.880306","-0.068245","873237","917705","812960","2.802502","0.633042","0.000000","864210","938827","863956","2.127438","0.425505","0.000000","733734","856577","950027","1.499269","0.318894","0.000000","3912","3660","3566","3291","2800","2641","2810","1996","2810","2575","1413","2575","2580","1681","2580",""
"MA200-0416","21663","61","1","1.10","1.4","2023-05-09T14:19:59","120","2023/05/09","14:19:59","-15.7808478474617","35.03902682289481","5.8","15","30","64","72","-1552","24092","-4584","6","150","149.46","114.96","34.50","30.21","42.8","16.17","89336","30.00","DUALSPOT-UV-BLUE-GREEN-RED-IR","799288","725205","904137","6.143092","1.670892","-0.013017","778639","917753","765470","3.676676","0.899070","-0.080709","877254","922429","817235","2.862114","0.645869","0.000000","864605","939599","864790","2.171731","0.435250","0.000000","734018","857139","950740","1.531223","0.326842","0.000000","5681","5375","5260","4874","4031","3759","4305","3086","4305","3865","2833","3865","3882","3218","3882",""
"MA200-0416","21664","61","1","1.10","1.4","2023-05-09T14:20:29","120","2023/05/09","14:20:29","-15.779517233371735","35.039088156074286","3.2","15","30","64","71","-2632","24048","-4420","6","150","149.57","114.48","35.09","30.25","42.6","16.15","89356","30.00","DUALSPOT-UV-BLUE-GREEN-RED-IR","799649","726237","905772","6.280301","1.707309","-0.035912","778761","918479","766269","3.768158","0.922679","-0.070185","873016","918398","813802","2.932792","0.662600","0.000000","865466","940885","866033","2.223879","0.445496","0.000000","734066","857443","951096","1.566968","0.334525","0.000000","7039","6096","5744","5924","4988","4684","5125","3959","5125","4570","2929","4570","4361","3058","4361",""
"MA200-0416","21665","61","1","1.10","1.4","2023-05-09T14:20:59","120","2023/05/09","14:20:59","-15.778495728969574","35.038438990712166","2.9","15","30","64","72","-2052","23940","-4628","6","150","150.03","114.40","35.63","30.30","42.4","16.11","89456","30.06","DUALSPOT-UV-BLUE-GREEN-RED-IR","798928","726394","906415","6.446836","1.757080","-0.009119","774092","913588","762387","3.865981","0.949035","-0.056319","872835","918777","814271","3.008496","0.681030","-0.130675","866198","942121","867292","2.279204","0.458257","0.000000","734473","858161","952000","1.603860","0.343544","0.000000","8550","8205","8075","6339","5483","5205","5494","4294","3943","4852","3593","4852","4504","3536","4504",""
"MA200-0416","21666","61","1","1.10","1.4","2023-05-09T14:21:29","120","2023/05/09","14:21:29","-15.778278589248657","35.03815298900008","1.7","15","30","64","71","-1908","23516","-6543","6","150","149.90","115.04","34.86","30.34","42.2","16.08","89468","30.13","DUALSPOT-UV-BLUE-GREEN-RED-IR","799326","727198","907587","6.529382","1.779468","-0.025827","774404","914358","763147","3.925592","0.964033","-0.073964","872975","919189","814749","3.056472","0.693171","-0.088677","860404","936069","861763","2.316507","0.465804","0.000000","734474","858331","952238","1.630302","0.349123","0.000000","4214","3772","3606","3841","3189","2977","3462","2891","2724","3253","2171","3253","3210","2236","3210",""
"MA200-0416","21667","61","1","1.10","1.4","2023-05-09T14:21:59","120","2023/05/09","14:21:59","-15.778065502643585","35.03778815641999","0.9","15","30","64","71","-892","24188","-4384","6","150","149.45","114.32","35.13","30.38","42.1","16.05","89480","30.13","DUALSPOT-UV-BLUE-GREEN-RED-IR","799113","727970","909058","6.712154","1.833280","-0.009081","773964","914833","763850","4.065585","1.002550","-0.039626","872480","919509","815315","3.172027","0.723624","-0.071250","860699","937045","862884","2.405768","0.488388","0.000000","734666","858949","953095","1.691873","0.365378","0.000000","9390","8998","8851","9078","8129","7818","8391","7197","6844","7833","6450","7833","7523","6464","7523",""
"MA200-0416","21668","61","1","1.10","1.4","2023-05-09T14:22:29","120","2023/05/09","14:22:29","-15.77795422077179","35.0371173247695","3.6","15","30","64","71","-1264","23248","-7968","6","150","149.87","114.13","35.74","30.42","41.9","16.02","89488","30.13","DUALSPOT-UV-BLUE-GREEN-RED-IR","798299","728807","910934","7.017335","1.922184","-0.015149","773565","915862","765161","4.290104","1.062727","-0.055245","870989","919194","815394","3.357940","0.770818","-0.097068","859590","936903","863039","2.552416","0.524091","0.000000","734004","858807","953173","1.788415","0.389164","0.000000","15706","14610","14196","14583","12481","11789","13524","10963","10199","12891","10022","12891","11817","9297","11817",""
"MA200-0416","21669","61","1","1.10","1.4","2023-05-09T14:22:59","120","2023/05/09","14:22:59","-15.778365015983582","35.035872992128134","4.3","15","30","64","71","-2596","23496","-4420","6","150","149.09","113.13","35.96","30.46","41.7","15.99","89504","30.19","DUALSPOT-UV-BLUE-GREEN-RED-IR","788788","721073","901696","7.207296","1.975490","-0.026710","771893","914706","764447","4.426271","1.099258","-0.059161","869856","918727","815190","3.470241","0.798869","-0.111097","858025","935757","862161","2.640223","0.545489","0.000000","733181","858246","952643","1.849062","0.403558","0.000000","9862","8707","8270","8923","7531","7071","8241","6476","5948","7787","5969","7787","7488","5591","7488",""
"MA200-0416","21670","61","1","1.10","1.4","2023-05-09T14:23:29","120","2023/05/09","14:23:29","-15.778718531131744","35.034279491752386","6.8","15","30","64","71","-1988","24020","-4900","6","150","150.24","114.72","35.51","30.50","41.6","15.98","89464","30.19","DUALSPOT-UV-BLUE-GREEN-RED-IR","791463","723996","905589","7.299814","2.000820","-0.025935","769092","911783","762116","4.481870","1.111269","-0.149844","871375","920660","817011","3.513908","0.808244","-0.188074","860796","939024","865235","2.672641","0.550127","0.000000","734595","860041","954683","1.872160","0.407820","0.000000","4736","4189","3982","3592","2507","2149","3160","2191","1902","2834","1310","2834","2812","1676","2812",""
"MA200-0416","21671","61","1","1.10","1.4","2023-05-09T14:23:59","120","2023/05/09","14:23:59","-15.779068171977997","35.03273966535926","6.4","15","30","64","71","-3336","23628","-3064","6","150","149.96","114.72","35.24","30.53","41.5","15.98","89472","30.25","DUALSPOT-UV-BLUE-GREEN-RED-IR","790984","724070","905965","7.395119","2.027586","-0.018145","768778","911877","762291","4.543721","1.127027","-0.064636","871363","921022","817426","3.562754","0.820380","-0.092846","861070","939586","865801","2.706866","0.556695","0.000000","734352","859923","954650","1.897983","0.413842","0.000000","4879","4460","4302","3996","3314","3089","3535","2858","2656","2993","1869","2993","3144","2386","3144",""
"MA200-0416","21672","61","1","1.10","1.4","2023-05-09T14:24:29","120","2023/05/09","14:24:29","-15.779467403888702","35.03107816167176","5.6","15","30","64","71","-3536","23892","-5328","6","150","150.01","114.71","35.30","30.56","41.4","15.98","89668","30.25","DUALSPOT-UV-BLUE-GREEN-RED-IR","788795","722551","904278","7.492376","2.055452","-0.013980","766725","909872","760740","4.609495","1.143287","-0.076777","865665","915326","812449","3.613620","0.831257","-0.181531","859640","938333","864704","2.747027","0.564580","0.000000","733427","859025","953685","1.925464","0.418896","0.000000","4979","4637","4507","4250","3415","3139","3681","2558","2223","3512","2241","3512","3346","2000","3346",""
"MA200-0416","21673","61","1","1.10","1.4","2023-05-09T14:24:59","120","2023/05/09","14:24:59","-15.780017793178558","35.02963166311383","5.9","15","30","64","71","-1916","23940","-3636","6","150","149.33","114.20","35.12","30.59","41.3","15.96","89740","30.25","DUALSPOT-UV-BLUE-GREEN-RED-IR","789145","723545","906013","7.633066","2.107397","0.028406","768235","912140","762959","4.699588","1.181549","0.071744","865484","915541","812866","3.686076","0.862830","0.095597","860858","939943","866442","2.801839","0.590640","0.000000","733842","859698","954601","1.962484","0.433865","0.000000","7235","8686","9239","5848","8075","8823","5267","7462","8133","4815","7443","4815","4528","5953","4528",""
"MA200-0416","21674","61","1","1.10","1.4","2023-05-09T14:25:29","120","2023/05/09","14:25:29","-15.780837416648865","35.02863732725382","5.4","15","30","64","71","-2926","23896","-5950","6","150","150.56","114.96","35.60","30.61","41.2","15.92","89820","30.25","DUALSPOT-UV-BLUE-GREEN-RED-IR","788644","723470","906150","7.721076","2.134370","-0.001877","767447","911559","762551","4.755115","1.198440","-0.005103","870122","920689","817571","3.729367","0.874691","-0.047516","855270","934043","861034","2.832233","0.596063","0.000000","734203","860273","955240","1.985561","0.439437","0.000000","4496","4450","4432","3580","3517","3496","3126","2766","2655","2652","1528","2652","2804","2186","2804",""
"MA200-0416","21675","61","1","1.10","1.4","2023-05-09T14:25:59","120","2023/05/09","14:25:59","-15.781743049621582","35.027653492987156","5.9","15","30","64","71","-2188","24260","-5756","6","150","150.36","114.92","35.44","30.63","41.0","15.88","89872","30.25","DUALSPOT-UV-BLUE-GREEN-RED-IR","788248","723455","906278","7.788699","2.154260","-0.008784","767752","912220","763210","4.801935","1.210361","-0.063341","864805","915297","812840","3.766452","0.883977","-0.086547","860709","940203","866755","2.860967","0.601893","0.000000","733613","859706","954691","2.005260","0.443476","0.000000","3456","3296","3235","3020","2493","2315","2679","2175","2020","2508","1650","2508","2394","1591","2394",""
"MA200-0416","21676","61","1","1.10","1.4","2023-05-09T14:26:29","120","2023/05/09","14:26:29","-15.782734334468842","35.02657932974398","5.5","15","30","64","71","-2112","24124","-4676","6","150","149.66","115.00","34.66","30.65","40.9","15.85","89916","30.25","DUALSPOT-UV-BLUE-GREEN-RED-IR","787014","723179","906413","7.953387","2.201925","-0.007290","766396","911515","762923","4.936266","1.248054","-0.020583","864317","915615","813391","3.881227","0.915634","-0.032162","854252","933821","861109","2.954308","0.628381","0.000000","733529","860067","955236","2.071220","0.459376","0.000000","8411","8077","7950","8659","8062","7860","8285","7583","7366","8143","7667","8143","8012","6408","8012",""
"MA200-0416","21677","61","1","1.10","1.4","2023-05-09T14:26:59","120","2023/05/09","14:26:59","-15.783856928348541","35.02556749805808","5.4","15","30","64","71","-1816","23848","-6815","6","150","149.98","113.85","36.13","30.66","40.8","15.82","89996","30.25","DUALSPOT-UV-BLUE-GREEN-RED-IR","783869","721572","905015","8.192365","2.270689","-0.018093","763791","909732","761867","5.130976","1.301109","-0.045547","865805","918294","816174","4.047328","0.960170","-0.063065","850338","930470","858333","3.088167","0.662320","-0.111409","731110","857842","953009","2.163375","0.484215","0.000000","12329","11178","10737","12678","10886","10276","12112","10234","9649","11796","9424","8776","11307","9604","11307",""
"MA200-0416","21678","61","1","1.10","1.4","2023-05-09T14:27:29","120","2023/05/09","14:27:29","-15.784783959388733","35.024882996454835","3.4","15","30","64","71","-2804","23992","-5204","6","150","150.24","115.07","35.17","30.67","40.7","15.81","89992","30.25","DUALSPOT-UV-BLUE-GREEN-RED-IR","782453","722360","907095","8.594265","2.388118","-0.007561","762446","910183","762922","5.435723","1.386755","-0.022301","861197","915108","813896","4.296803","1.028382","-0.037459","851614","933247","861341","3.283847","0.715487","-0.050405","732133","859824","955579","2.292852","0.521129","0.000000","20514","19611","19263","19633","18052","17510","18000","16101","15504","17061","15166","14638","15718","14661","15718",""
"MA200-0416","21679","61","1","1.10","1.4","2023-05-09T14:27:59","120","2023/05/09","14:27:59","-15.785317242145538","35.02575583010912","6.5","15","30","64","70","-980","23920","-5168","6","150","150.16","114.72","35.44","30.69","40.7","15.80","89956","30.25","DUALSPOT-UV-BLUE-GREEN-RED-IR","782065","722752","907975","8.756318","2.436239","-0.006501","761809","910208","763160","5.565982","1.422004","-0.035936","860390","914945","813963","4.409658","1.057821","-0.058408","851124","933302","861566","3.374652","0.736218","-0.148532","731472","859453","955296","2.357916","0.538710","0.000000","8297","7974","7850","8417","7372","7014","8167","6896","6494","7941","5868","5289","7922","6929","7922",""
"MA200-0416","21680","61","1","1.10","1.4","2023-05-09T14:28:29","120","2023/05/09","14:28:29","-15.785928547382355","35.02731082774699","6.1","15","30","64","70","-2050","24111","-5373","6","150","149.49","114.65","34.84","30.72","40.6","15.82","89888","30.31","DUALSPOT-UV-BLUE-GREEN-RED-IR","779213","720691","905709","8.872154","2.470388","-0.004861","760316","909029","762349","5.656544","1.445537","-0.042711","862487","917723","816592","4.484582","1.076293","-0.073630","847951","930222","858849","3.434832","0.752181","-0.056602","729698","857570","953309","2.397371","0.548994","0.000000","5934","5757","5689","5855","5007","4716","5425","4401","4078","5266","4596","4409","4807","4123","4807",""
"MA200-0416","21681","61","1","1.10","1.4","2023-05-09T14:28:59","120","2023/05/09","14:28:59","-15.786516904830933","35.02884433045983","6.4","15","30","64","71","-1969","24023","-5492","6","150","149.83","114.40","35.43","30.72","40.6","15.82","89828","30.31","DUALSPOT-UV-BLUE-GREEN-RED-IR","780943","722714","908528","8.957129","2.496456","-0.001486","761420","910763","763986","5.720911","1.465076","-0.004794","859090","914449","813819","4.538786","1.091992","-0.020556","850168","932937","861477","3.476748","0.763201","-0.069017","731147","859526","955520","2.426483","0.556123","0.000000","4362","4321","4305","4171","4088","4059","3933","3678","3598","3675","3120","2964","3554","2811","3554",""
"MA200-0416","21682","61","1","1.10","1.4","2023-05-09T14:29:29","120","2023/05/09","14:29:29","-15.786349952220917","35.03008699603379","5.0","15","30","64","70","-2019","24076","-4676","6","150","149.34","114.67","34.67","30.72","40.7","15.83","89760","30.31","DUALSPOT-UV-BLUE-GREEN-RED-IR","779887","722079","907869","9.029397","2.517965","-0.002442","761061","910645","763960","5.774981","1.479023","-0.042594","858401","913995","813470","4.583424","1.103758","-0.044302","850020","933023","861603","3.510887","0.770747","-0.149735","730563","858935","954973","2.449451","0.562325","0.000000","3701","3644","3621","3495","2982","2805","3231","2817","2686","2987","2183","1957","2798","2498","2798",""
"MA200-0416","21683","61","1","1.10","1.4","2023-05-09T14:29:59","120","2023/05/09","14:29:59","-15.78641152381897","35.03118782863021","3.4","15","30","64","70","336","24744","-5564","6","150","149.96","114.72","35.24","30.72","40.7","15.83","89704","30.31","DUALSPOT-UV-BLUE-GREEN-RED-IR","778602","721232","906989","9.092801","2.537584","0.001084","759766","909446","763014","5.819862","1.491254","-0.030749","857193","912955","812598","4.619139","1.112013","-0.104805","848047","931070","859851","3.539781","0.776547","-0.225641","729460","857750","953676","2.469101","0.566473","0.000000","3246","3269","3278","2900","2572","2460","2584","1944","1741","2526","1650","1404","2392","1644","2392",""
"MA200-0416","21684","61","1","1.10","1.4","2023-05-09T14:30:29","120","2023/05/09","14:30:29","-15.786422491073608","35.032126665115356","2.9","15","30","64","70","-1492","24584","-3892","6","150","150.05","114.53","35.51","30.74","40.7","15.86","89644","30.31","DUALSPOT-UV-BLUE-GREEN-RED-IR","780434","723202","909635","9.156426","2.555770","-0.013278","761376","911645","764991","5.863769","1.503086","-0.036452","858244","914307","813907","4.654633","1.120424","-0.096777","850555","933994","862601","3.567583","0.783205","-0.115465","730662","859307","955452","2.488397","0.571854","0.000000","3262","3007","2909","2841","2469","2341","2572","1966","1773","2435","1880","1724","2353","2116","2353",""
"MA200-0416","21685","61","1","1.10","1.4","2023-05-09T14:30:59","120","2023/05/09","14:30:59","-15.78643000125885","35.03089649416506","8.1","15","30","64","70","-730","24238","-5938","6","150","150.13","115.31","34.81","30.78","40.9","15.95","0","0.00","DUALSPOT-UV-BLUE-GREEN-RED-IR","780402","723519","910219","9.219549","2.576492","0.011730","761126","911628","765057","5.907552","1.515161","-0.022263","858573","914926","814535","4.691725","1.130324","-0.038408","851394","935114","863714","3.594304","0.789803","-0.084665","726689","854753","950419","2.507631","0.576851","0.000000","3215","3496","3605","2814","2571","2487","2670","2361","2262","2324","1901","1782","2330","2005","2330",""
"MA200-0416","21686","61","1","1.10","1.4","2023-05-09T14:31:29","120","2023/05/09","14:31:29","-15.786624908447266","35.02933966368437","1.9","15","30","64","70","-6084","23412","-6048","6","150","149.32","114.76","34.55","30.81","40.7","15.94","0","0.00","DUALSPOT-UV-BLUE-GREEN-RED-IR","780158","723645","910575","9.292356","2.597910","-0.003541","761131","911907","765401","5.959133","1.530473","-0.003228","858457","915039","814713","4.731965","1.141988","-0.010895","851230","935167","863834","3.626706","0.798076","-0.066710","726560","854757","950464","2.529634","0.581969","0.000000","3726","3640","3607","3331","3285","3269","2911","2802","2768","2832","2402","2280","2678","2068","2678",""
"MA200-0416","21687","61","1","1.10","1.4","2023-05-09T14:31:59","120","2023/05/09","14:31:59","-15.78669822216034","35.029279828071594","3.7","15","30","64","70","848","24804","-2260","6","150","150.09","115.27","34.82","30.82","40.6","15.91","89800","30.38","DUALSPOT-UV-BLUE-GREEN-RED-IR","779520","723729","911081","9.407854","2.634861","0.008072","756004","906493","761079","6.047090","1.556467","-0.004959","857770","914919","814799","4.805773","1.163130","-0.015229","850810","935171","863982","3.683334","0.812774","-0.059806","726523","855016","950896","2.571764","0.593156","0.000000","5884","6233","6368","5656","5534","5491","5315","5041","4953","4928","4235","4038","5105","4488","5105",""
"MA200-0416","21688","61","1","1.10","1.4","2023-05-09T14:32:29","120","2023/05/09","14:32:29","-15.78546416759491","35.02606966346502","14.1","15","30","64","70","-4055","23912","-5072","6","150","150.13","115.21","34.92","30.84","40.5","15.86","89908","30.38","DUALSPOT-UV-BLUE-GREEN-RED-IR","777175","721819","908827","9.487165","2.659847","0.005457","758592","909826","763965","6.103821","1.573371","-0.003839","856277","913513","813633","4.852711","1.176016","-0.029311","848962","933312","862341","3.723235","0.824725","-0.004192","729409","858536","954854","2.598098","0.599189","0.000000","4043","4202","4264","3650","3588","3567","3382","3063","2961","3474","3433","3421","3193","2413","3193",""
"MA200-0416","21689","61","1","1.10","1.4","2023-05-09T14:32:59","120","2023/05/09","14:32:59","-15.785053253173828","35.02501833066344","4.0","16","30","64","70","-2608","24050","-5625","6","150","149.59","114.79","34.80","30.85","40.3","15.82","89992","30.38","DUALSPOT-UV-BLUE-GREEN-RED-IR","767487","715499","902260","9.781469","2.746275","-0.004635","756104","909706","764849","6.346929","1.641708","-0.017124","853978","913557","814553","5.055302","1.231837","-0.027063","848002","934361","864022","3.885411","0.866901","-0.057592","728682","859108","956040","2.715559","0.629953","0.000000","15058","14588","14405","15699","14558","14160","14652","13318","12888","14173","12160","11582","14294","12350","14294",""
"MA200-0416","21690","61","1","1.10","1.4","2023-05-09T14:33:29","120","2023/05/09","14:33:29","-15.784244120121002","35.023105995729566","4.6","15","30","64","70","-4752","23604","-5676","6","150","149.99","114.61","35.37","30.87","40.3","15.83","89960","30.38","DUALSPOT-UV-BLUE-GREEN-RED-IR","769857","720591","910258","10.569101","2.981067","-0.004729","748444","903606","760779","7.015083","1.834541","-0.013742","850395","912523","814615","5.644816","1.399111","-0.021282","844078","932495","863172","4.379802","1.004487","-0.033399","726589","858227","955716","3.065672","0.723295","-0.070769","40364","38985","38443","43217","40411","39417","42703","39259","38123","43277","39021","37755","42674","36861","35066",""
"MA200-0416","21691","61","1","1.10","1.4","2023-05-09T14:33:59","120","2023/05/09","14:33:59","-15.782318711280823","35.02337716333568","14.0","15","30","64","70","-568","24236","-5660","6","150","149.96","114.72","35.24","30.87","40.3","15.81","89812","30.31","DUALSPOT-UV-BLUE-GREEN-RED-IR","753198","711104","901755","11.740458","3.345020","0.001331","745016","906172","765352","8.006105","2.130931","-0.004684","842545","909952","814498","6.503874","1.651888","-0.009226","837204","929884","862645","5.091735","1.211685","-0.014589","722372","856544","955303","3.567884","0.865659","-0.031859","59973","60654","60925","64041","62343","61727","62171","59545","58651","62262","58981","57957","61155","56428","54913",""
"MA200-0416","21692","61","1","1.10","1.4","2023-05-09T14:34:29","120","2023/05/09","14:34:29","-15.778723120689392","35.02376699633896","8.2","15","30","64","70","-3507","24256","-5764","6","150","150.21","114.38","35.84","30.89","40.2","15.80","89656","30.31","DUALSPOT-UV-BLUE-GREEN-RED-IR","754471","715730","909562","12.470415","3.569971","-0.001891","739968","903707","764594","8.616845","2.314548","-0.006795","838039","908314","814237","7.035434","1.807420","-0.013890","834287","929396","863226","5.532238","1.337194","-0.024540","720511","856173","955666","3.883468","0.953462","-0.044899","37485","36869","36621","39584","37983","37395","38584","36031","35149","38639","35137","34020","38544","34226","32821",""
"MA200-0416","21693","61","1","1.10","1.4","2023-05-09T14:34:59","120","2023/05/09","14:34:59","-15.777602016925812","35.02317382954061","4.3","15","30","64","70","-2544","24236","-4468","6","150","150.49","115.52","34.97","30.89","40.2","15.78","89644","30.31","DUALSPOT-UV-BLUE-GREEN-RED-IR","753061","715436","909832","12.737423","3.654962","0.005300","738342","902628","764060","8.814168","2.372169","-0.005750","836777","907784","814056","7.205576","1.856618","-0.008888","833355","929038","863142","5.671953","1.375722","-0.023455","719776","855747","955353","3.979612","0.978252","-0.061429","13575","14276","14558","12662","12216","12051","12227","11681","11491","12133","11054","10708","11626","9903","9342",""
"MA200-0416","21694","61","1","1.10","1.4","2023-05-09T14:35:29","120","2023/05/09","14:35:29","-15.777021646499634","35.02167649753392","7.0","15","30","64","70","-2208","24400","-5848","6","150","150.29","114.68","35.61","30.89","40.1","15.76","89656","30.31","DUALSPOT-UV-BLUE-GREEN-RED-IR","752254","715101","909634","12.836950","3.685981","0.000387","738294","902973","764452","8.878034","2.390575","-0.012311","836142","907422","813821","7.254547","1.868897","-0.048307","832473","928352","862527","5.708419","1.384698","-0.066043","719356","855392","955014","4.003399","0.983975","-0.106385","5097","5115","5123","4128","3831","3721","3545","2862","2625","3190","2528","2316","2897","2244","2032",""
"MA200-0416","21695","61","1","1.10","1.4","2023-05-09T14:35:59","120","2023/05/09","14:35:59","-15.776109158992767","35.02021832950413","5.5","15","30","64","70","-1204","24244","-3480","6","150","150.23","115.16","35.07","30.89","40.0","15.72","89648","30.25","DUALSPOT-UV-BLUE-GREEN-RED-IR","750517","713669","907975","12.882593","3.701480","0.010784","737296","901944","763650","8.910660","2.400165","-0.005625","835170","906527","813063","7.280606","1.876866","0.000753","831192","927047","861388","5.728924","1.389551","-0.072870","718521","854458","954034","4.017376","0.986996","-0.155687","2328","2595","2703","2100","2027","2000","1878","1886","1889","1786","1387","1260","1695","1203","1043",""
"MA200-0416","21696","61","1","1.10","1.4","2023-05-09T14:36:29","120","2023/05/09","14:36:29","-15.77533358335495","35.01898266002536","5.6","15","30","64","69","-2288","24112","-4364","6","150","149.76","114.40","35.36","30.89","40.0","15.71","89568","30.25","DUALSPOT-UV-BLUE-GREEN-RED-IR","750533","713905","908386","12.925552","3.715280","0.004029","736787","901538","763388","8.942014","2.408546","-0.025413","835558","907123","813660","7.305938","1.883435","-0.037958","831344","927339","861703","5.749075","1.394998","-0.034527","718905","854993","954609","4.028045","0.989404","-0.138317","2205","2291","2326","2031","1756","1655","1838","1542","1439","1767","1545","1474","1302","951","836",""
"MA200-0416","21697","61","1","1.10","1.4","2023-05-09T14:36:59","120","2023/05/09","14:36:59","-15.774001061916351","35.0184494946152","5.9","16","30","64","69","-568","24468","-3868","6","150","149.55","114.47","35.09","30.89","40.0","15.71","89584","30.25","DUALSPOT-UV-BLUE-GREEN-RED-IR","750311","713947","908575","12.974718","3.730604","0.001777","737061","902089","763903","8.974575","2.417141","-0.026153","838945","910957","817185","7.332724","1.890212","-0.041955","830876","926965","861385","5.769007","1.399290","-0.112167","718245","854338","953911","4.041246","0.991655","-0.353259","2522","2565","2582","2108","1815","1707","1942","1603","1485","1747","1227","1060","1611","896","663",""
"MA200-0416","21698","61","1","1.10","1.4","2023-05-09T14:37:29","120","2023/05/09","14:37:29","-15.77334076166153","35.01751583069563","4.4","15","30","64","69","-2428","23760","-5400","6","150","149.96","115.08","34.89","30.90","40.0","15.72","89528","30.25","DUALSPOT-UV-BLUE-GREEN-RED-IR","747891","711866","906102","13.020063","3.745699","0.009294","735091","899877","762109","9.006839","2.427606","0.009710","837830","909997","816368","7.360733","1.898431","-0.006110","829182","925258","859853","5.788659","1.404320","-0.044661","717440","853429","952935","4.056350","0.996233","-0.000096","2314","2541","2633","2078","2223","2277","2020","1956","1933","1713","1446","1361","1833","1833","1832",""
"MA200-0416","21699","61","1","1.10","1.4","2023-05-09T14:37:59","120","2023/05/09","14:37:59","-15.77380883693695","35.01620749756694","6.9","15","30","64","69","-5195","24025","-3908","6","150","149.83","114.80","35.03","30.90","40.0","15.72","89692","30.25","DUALSPOT-UV-BLUE-GREEN-RED-IR","749183","713518","908438","13.105663","3.771253","-0.002401","736366","901886","763969","9.071655","2.444915","-0.022738","834006","906138","813012","7.412320","1.912015","-0.030598","830361","926848","861408","5.832216","1.415210","-0.053736","717892","854179","953842","4.084901","1.002636","-0.132516","4379","4284","4246","4185","3662","3469","3730","3219","3041","3806","3118","2898","3474","2553","2254",""
"MA200-0416","21700","61","1","1.10","1.4","2023-05-09T14:38:29","120","2023/05/09","14:38:29","-15.774661600589752","35.0148299979046","5.8","15","30","64","69","-4264","23720","-5548","6","150","149.99","114.50","35.49","30.90","39.9","15.70","89748","30.25","DUALSPOT-UV-BLUE-GREEN-RED-IR","749370","713892","908999","13.150997","3.786630","0.008897","735979","901593","763781","9.105805","2.456146","0.008466","834447","906777","813670","7.440508","1.919752","-0.024499","831001","927721","862266","5.853192","1.420593","-0.050271","718317","854749","954529","4.098846","1.006403","-0.050056","2325","2545","2633","2211","2345","2395","2043","1810","1728","1837","1521","1420","1701","1482","1411",""
"MA200-0416","21701","61","1","1.10","1.4","2023-05-09T14:38:59","120","2023/05/09","14:38:59","-15.773787498474121","35.013892164453864","5.3","15","30","64","69","-4068","23852","-5700","6","150","150.31","114.99","35.32","30.90","39.9","15.67","89884","30.25","DUALSPOT-UV-BLUE-GREEN-RED-IR","748375","713130","908218","13.194948","3.801387","0.008758","735259","900891","763247","9.133447","2.464025","-0.011985","833620","906033","813065","7.464206","1.926922","-0.002769","829951","926626","861317","5.870732","1.425832","-0.006447","717682","854073","953785","4.110660","1.009039","-0.138458","2245","2453","2538","1782","1653","1606","1711","1685","1676","1530","1488","1474","1435","1042","914",""
"MA200-0416","21702","61","1","1.10","1.4","2023-05-09T14:39:29","120","2023/05/09","14:39:29","-15.772350907325745","35.01348183117807","6.0","15","30","64","69","528","24056","-6236","6","150","149.87","115.13","34.74","30.90","39.9","15.67","89840","30.19","DUALSPOT-UV-BLUE-GREEN-RED-IR","746918","712036","906943","13.245493","3.816734","0.000650","734578","900333","762855","9.170032","2.474605","-0.006596","837275","910239","816910","7.493323","1.933860","-0.052812","828910","925648","860447","5.893449","1.431387","-0.056690","717114","853526","953216","4.127107","1.012674","-0.133207","2578","2594","2601","2355","2257","2221","2099","1658","1504","1979","1604","1483","1995","1461","1287",""
"MA200-0416","21703","61","1","1.10","1.4","2023-05-09T14:39:59","120","2023/05/09","14:39:59","-15.771098792552948","35.013971665874124","5.0","15","30","64","69","1492","23876","-6728","6","150","149.59","114.63","34.96","30.90","39.9","15.69","89644","30.25","DUALSPOT-UV-BLUE-GREEN-RED-IR","747358","712715","907976","13.303316","3.835485","0.006127","734513","900473","763064","9.209639","2.485578","-0.015599","832892","905692","812868","7.527941","1.943700","-0.013431","829580","926563","861361","5.918460","1.437479","-0.061275","717365","853945","953706","4.143648","1.016840","-0.072401","2962","3150","3225","2561","2326","2239","2507","2336","2277","2189","1747","1606","2015","1664","1550",""
"MA200-0416","21704","61","1","1.10","1.4","2023-05-09T14:40:29","120","2023/05/09","14:40:29","-15.77147102355957","35.015481664799154","6.0","15","30","64","69","-896","23980","-6084","6","150","150.09","114.52","35.58","30.89","39.9","15.68","89484","30.25","DUALSPOT-UV-BLUE-GREEN-RED-IR","745271","711001","905902","13.356840","3.851572","-0.003584","733347","899317","762155","9.248742","2.496397","-0.019057","836132","909385","816276","7.557940","1.951497","-0.037382","833081","930662","865237","5.943080","1.443993","-0.040975","716286","852738","952398","4.157756","1.018732","-0.733294","2745","2655","2619","2531","2254","2152","2174","1819","1695","2156","1837","1734","1721","742","425",""
"MA200-0416","21705","61","1","1.10","1.4","2023-05-09T14:40:59","120","2023/05/09","14:40:59","-15.771592140197754","35.01672516204417","4.0","15","30","64","69","-2016","24140","-6543","6","150","149.96","115.00","34.97","30.89","40.0","15.71","89380","30.25","DUALSPOT-UV-BLUE-GREEN-RED-IR","746740","712607","908110","13.401045","3.865318","0.002309","734562","900997","763668","9.281415","2.506464","0.001930","836616","910112","816959","7.585424","1.959841","-0.000256","834890","932765","867240","5.962507","1.449358","-0.023153","716819","853484","953216","4.171388","1.022114","-0.077193","2257","2309","2329","2106","2134","2144","1984","1981","1980","1694","1539","1489","1655","1351","1252",""
"MA200-0416","21706","61","1","1.10","1.4","2023-05-09T14:41:29","120","2023/05/09","14:41:29","-15.77161830663681","35.01764583028853","4.8","15","30","64","69","-112","24252","-6140","6","150","150.17","115.07","35.11","30.90","40.0","15.72","89324","30.25","DUALSPOT-UV-BLUE-GREEN-RED-IR","746344","712576","908287","13.461670","3.884809","0.005218","734110","900757","763561","9.320745","2.517723","-0.009910","833048","906448","813778","7.618010","1.969122","-0.012927","829311","926740","861697","5.986482","1.455527","-0.043583","717556","854468","954373","4.185463","1.024829","-0.226766","3094","3260","3328","2533","2377","2319","2351","2194","2140","2090","1763","1657","1708","1080","876",""
"MA200-0416","21707","61","1","1.10","1.4","2023-05-09T14:41:59","120","2023/05/09","14:41:59","-15.771579623222351","35.01885616220534","3.2","16","30","64","69","-4712","23236","-7852","6","150","149.96","114.76","35.20","30.90","40.0","15.74","89316","30.25","DUALSPOT-UV-BLUE-GREEN-RED-IR","744011","710589","905900","13.519632","3.904016","0.007494","732288","898738","761892","9.358453","2.526741","-0.046218","831811","905256","812756","7.646709","1.976382","-0.040537","827502","924832","859955","6.009880","1.461350","-0.055286","716499","853264","953083","4.200763","1.029292","-0.016645","2966","3204","3301","2435","1898","1700","2076","1711","1585","2045","1659","1535","1862","1770","1740",""
"MA200-0416","21708","61","1","1.10","1.4","2023-05-09T14:42:29","120","2023/05/09","14:42:29","-15.771685063838959","35.01968666166067","3.1","15","30","64","69","-3396","23884","-6120","6","150","150.28","114.88","35.41","30.90","40.1","15.77","89364","30.31","DUALSPOT-UV-BLUE-GREEN-RED-IR","746119","712806","908847","13.566639","3.917739","-0.005907","733864","900844","763762","9.391199","2.537124","0.004043","832469","906150","813600","7.670850","1.982379","-0.046189","829634","927334","862329","6.026940","1.465612","-0.055394","717488","854533","954519","4.212116","1.031966","-0.107784","2403","2276","2225","2113","2174","2196","1744","1406","1288","1489","1207","1116","1380","1055","949",""
"MA200-0416","21709","61","1","1.10","1.4","2023-05-09T14:42:59","120","2023/05/09","14:42:59","-15.772676885128021","35.019718658179045","3.4","15","30","64","69","-4061","24188","-4896","6","150","149.89","114.44","35.45","30.91","40.2","15.80","89376","30.31","DUALSPOT-UV-BLUE-GREEN-RED-IR","739369","706562","900993","13.606634","3.930555","0.003404","734265","901493","764388","9.419936","2.545713","-0.005355","832698","906567","814036","7.694602","1.988965","-0.021383","830497","928418","863356","6.043917","1.469689","-0.069849","717879","855047","955108","4.222204","1.034510","-0.077242","2052","2123","2152","1861","1796","1772","1723","1542","1479","1488","1153","1046","1231","1002","928",""
"MA200-0416","21710","61","1","1.10","1.4","2023-05-09T14:43:29","120","2023/05/09","14:43:29","-15.772928893566132","35.02068849466741","5.4","15","30","64","68","-4345","22850","-5975","6","150","149.76","114.64","35.13","30.91","40.1","15.78","89376","30.31","DUALSPOT-UV-BLUE-GREEN-RED-IR","744794","711924","907959","13.646761","3.945146","0.015246","733630","900898","763942","9.445951","2.554464","0.012520","831177","905026","812692","7.713824","1.994960","0.003072","828015","925757","860921","6.060078","1.474582","-0.002614","716349","853328","953191","4.234052","1.037733","-0.041299","2055","2439","2596","1682","1846","1907","1392","1417","1425","1414","1397","1392","1443","1281","1228",""
"MA200-0416","21711","61","1","1.10","1.4","2023-05-09T14:43:59","120","2023/05/09","14:43:59","-15.77377325296402","35.02190666459501","5.5","15","30","64","68","-4432","23604","-5020","6","150","149.89","114.52","35.38","30.92","40.1","15.77","89452","30.31","DUALSPOT-UV-BLUE-GREEN-RED-IR","740464","707973","903079","13.688055","3.959711","0.012149","734477","902089","764998","9.470656","2.562843","0.012499","833170","907325","814818","7.734793","2.001643","0.005292","830704","928859","863873","6.075710","1.479398","-0.000568","718238","855636","955811","4.244058","1.039797","-0.184945","2117","2418","2540","1599","1755","1814","1520","1568","1585","1369","1365","1364","1220","815","683",""
"MA200-0416","21712","61","1","1.10","1.4","2023-05-09T14:44:29","120","2023/05/09","14:44:29","-15.774930953979492","35.02250833064318","5.9","15","30","64","69","-3596","23200","-6760","6","150","149.53","114.00","35.52","30.92","40.0","15.74","89508","30.31","DUALSPOT-UV-BLUE-GREEN-RED-IR","746272","713763","910581","13.735865","3.975376","0.004922","733976","901694","764767","9.504285","2.573412","0.001222","832327","906581","814220","7.760775","2.009707","-0.000683","830370","928613","863655","6.094194","1.484960","-0.007833","717926","855345","955544","4.257009","1.043499","-0.028956","2463","2590","2641","2186","2205","2212","1892","1884","1882","1626","1570","1552","1586","1455","1412",""
"MA200-0416","21713","61","1","1.10","1.4","2023-05-09T14:44:59","120","2023/05/09","14:44:59","-15.776203095912933","35.02189149521291","5.6","15","30","64","68","-3252","23956","-5480","6","150","150.49","115.50","34.99","30.93","39.9","15.71","89584","30.31","DUALSPOT-UV-BLUE-GREEN-RED-IR","739008","707039","902128","13.779100","3.989732","0.008650","733501","901260","764488","9.533601","2.583175","0.012591","832249","906615","814324","7.784682","2.017569","0.013303","830020","928346","863503","6.113575","1.490801","-0.001110","717729","855173","955357","4.268356","1.046467","-0.051627","2198","2410","2496","1881","2068","2138","1718","1865","1916","1683","1674","1672","1372","1185","1124",""
"MA200-0416","21714","61","1","1.10","1.4","2023-05-09T14:45:29","120","2023/05/09","14:45:29","-15.777065992355347","35.02198732830584","5.8","15","30","64","68","-1748","23904","-5052","6","150","150.09","114.92","35.18","30.93","39.8","15.67","0","0.00","DUALSPOT-UV-BLUE-GREEN-RED-IR","744856","712903","909801","13.832895","4.006328","0.000786","733415","901403","764671","9.569338","2.594625","0.006283","831481","905976","813795","7.813268","2.025961","-0.007490","829386","927779","863025","6.134858","1.497697","0.011707","717322","854802","954975","4.283361","1.049771","-0.138259","2749","2771","2779","2305","2412","2452","2065","1980","1951","1858","1966","2001","1824","1311","1145",""
"MA200-0416","21715","61","1","1.10","1.4","2023-05-09T14:45:59","120","2023/05/09","14:45:59","-15.777569055557251","35.02320566214621","1.8","15","30","64","68","-3180","23940","-6100","6","150","149.62","114.48","35.13","30.92","39.8","15.66","0","0.00","DUALSPOT-UV-BLUE-GREEN-RED-IR","743543","712160","909170","13.933998","4.041185","0.010626","732551","900758","764282","9.629671","2.611719","-0.012237","830848","905628","813608","7.860225","2.039104","-0.017159","828191","926687","862097","6.169966","1.506739","-0.043800","716800","854296","954462","4.303188","1.054845","-0.065531","5187","5827","6088","3906","3606","3494","3405","3105","3000","3076","2582","2422","2419","2017","1887",""
"MA200-0416","21716","61","1","1.10","1.4","2023-05-09T14:46:29","120","2023/05/09","14:46:29","-15.777608573436737","35.023276994004846","0.3","14","30","64","68","-2525","23850","-5925","6","150","149.76","114.44","35.32","30.92","39.8","15.65","89652","30.31","DUALSPOT-UV-BLUE-GREEN-RED-IR","742879","711914","909120","14.021299","4.069908","0.006058","731895","900271","763971","9.685013","2.628099","-0.006172","831034","906091","814133","7.902158","2.051240","-0.011646","828365","927078","862508","6.200099","1.516169","0.002897","717157","854854","955126","4.321953","1.058719","-0.180787","4480","4775","4896","3584","3437","3382","3042","2852","2785","2641","2678","2689","2290","1531","1285",""
"MA200-0416","21717","61","1","1.10","1.4","2023-05-09T14:46:59","120","2023/05/09","14:46:59","-15.777656018733978","35.02344116382301","0.5","14","30","64","68","-2300","23584","-7500","6","150","149.96","114.72","35.24","30.91","39.7","15.62","89648","30.25","DUALSPOT-UV-BLUE-GREEN-RED-IR","740751","710268","907283","14.108257","4.097507","0.003157","730794","899246","763241","9.737860","2.644777","0.003701","829242","904375","812706","7.944548","2.064919","0.008021","825339","923930","859645","6.230214","1.523465","-0.062397","715346","852782","952875","4.339559","1.063197","-0.068111","4452","4599","4659","3415","3508","3542","3067","3222","3276","2633","2076","1896","2144","1774","1654",""
"MA200-0416","21718","61","1","1.10","1.4","2023-05-09T14:47:29","120","2023/05/09","14:47:29","-15.776347756385803","35.023393331095576","6.6","14","30","64","68","-871","24140","-6672","6","150","150.69","114.92","35.77","30.91","39.7","15.62","89564","30.25","DUALSPOT-UV-BLUE-GREEN-RED-IR","735740","705982","902053","14.202244","4.128164","0.004449","731688","900814","764709","9.800773","2.662830","-0.012271","829985","905562","813872","7.992911","2.078192","-0.023820","827334","926439","862081","6.268722","1.534915","-0.010068","716394","854218","954549","4.364250","1.069391","-0.079298","4803","5033","5127","4058","3741","3622","3494","3080","2935","3361","3211","3162","3001","2418","2229",""
"MA200-0416","21719","61","1","1.10","1.4","2023-05-09T14:47:59","120","2023/05/09","14:47:59","-15.774674355983734","35.023675663396716","6.5","14","30","64","68","-2136","23976","-6148","6","150","149.92","114.61","35.31","30.91","39.6","15.59","89492","30.25","DUALSPOT-UV-BLUE-GREEN-RED-IR","739983","710892","908831","14.344761","4.173986","0.004036","730062","899614","764033","9.907337","2.696531","0.003541","828995","905182","813810","8.081353","2.105491","0.000310","827110","926763","862624","6.339171","1.555788","-0.008436","716076","854247","954734","4.412235","1.082712","-0.034209","7303","7622","7752","6892","7075","7143","6406","6418","6422","6166","5930","5853","5848","5269","5081",""
"MA200-0416","21720","61","1","1.10","1.4","2023-05-09T14:48:29","120","2023/05/09","14:48:29","-15.773081839084625","35.02442916482687","5.8","14","30","64","68","-3337","24029","-5054","6","150","149.90","114.48","35.42","30.89","39.5","15.53","89560","30.25","DUALSPOT-UV-BLUE-GREEN-RED-IR","738995","710391","908521","14.480358","4.218292","0.005071","729323","899179","763813","10.009823","2.727281","-0.004318","831750","908578","817014","8.169067","2.130615","-0.013652","825430","925204","861281","6.408911","1.575213","-0.023755","714847","852972","953373","4.458971","1.094876","-0.059740","6957","7347","7508","6636","6436","6361","6361","5889","5722","6111","5502","5304","5703","4797","4503",""
"MA200-0416","21721","61","1","1.10","1.4","2023-05-09T14:48:59","120","2023/05/09","14:48:59","-15.771701216697693","35.025146164000034","5.8","14","30","64","68","-2537","24120","-5000","6","150","150.35","115.09","35.27","30.87","39.4","15.48","89612","30.19","DUALSPOT-UV-BLUE-GREEN-RED-IR","735186","707479","905196","14.617239","4.261934","0.003693","725902","895663","761094","10.115124","2.760290","0.003022","829672","906959","815818","8.257532","2.158128","0.002395","828638","929335","865332","6.480454","1.596152","-0.009782","713213","851372","951732","4.507471","1.109479","-0.005247","6985","7268","7384","6783","6938","6996","6381","6477","6510","6236","5956","5865","5887","5784","5751",""
"MA200-0416","21722","61","1","1.10","1.4","2023-05-09T14:49:29","120","2023/05/09","14:49:29","-15.770316302776337","35.025867665186524","6.5","14","30","64","68","-3428","23756","-5580","6","150","150.01","114.79","35.21","30.86","39.4","15.45","89696","30.19","DUALSPOT-UV-BLUE-GREEN-RED-IR","735172","708155","906485","14.776953","4.313877","0.005306","726202","896714","762263","10.241917","2.799326","0.000490","829467","907347","816391","8.366513","2.190643","-0.004602","828592","929792","865986","6.570224","1.622390","-0.010167","713529","852076","952703","4.571768","1.128845","-0.005393","8171","8664","8867","8188","8218","8229","7881","7666","7589","7845","7475","7354","7824","7682","7636",""
"MA200-0416","21723","61","1","1.10","1.4","2023-05-09T14:49:59","120","2023/05/09","14:49:59","-15.768971562385559","35.02665933035314","5.8","15","30","64","68","-3307","23736","-5568","6","150","150.36","114.48","35.88","30.84","39.3","15.42","89764","30.19","DUALSPOT-UV-BLUE-GREEN-RED-IR","732733","706171","904201","14.858540","4.340492","0.003672","723729","894064","760175","10.304285","2.818733","-0.000965","828289","906384","815649","8.418089","2.206373","-0.004493","826218","927423","863887","6.613276","1.635712","-0.002592","712159","850624","951137","4.600166","1.134723","-0.178373","4185","4356","4427","4038","4009","3998","3740","3639","3604","3772","3725","3709","3465","2288","1903",""
"MA200-0416","21724","61","1","1.10","1.4","2023-05-09T14:50:29","120","2023/05/09","14:50:29","-15.767678916454315","35.02744182758033","6.1","15","30","64","68","-3680","23948","-4760","6","150","149.76","114.68","35.09","30.83","39.3","15.39","89820","30.13","DUALSPOT-UV-BLUE-GREEN-RED-IR","734078","707977","906863","14.967161","4.375238","0.004040","725279","896520","762454","10.390020","2.843605","-0.007392","828314","906898","816279","8.492327","2.227317","-0.013892","826829","928490","865031","6.672592","1.651758","-0.027269","712642","851456","952174","4.642803","1.146812","-0.023220","5563","5816","5921","5542","5255","5147","5374","4956","4807","5189","4588","4390","5193","4813","4688",""
"MA200-0416","21725","61","1","1.10","1.4","2023-05-09T14:50:59","120","2023/05/09","14:50:59","-15.766209244728088","35.027936328202486","5.4","15","30","64","68","-3787","23908","-4620","6","150","150.36","114.69","35.68","30.82","39.3","15.38","89904","30.13","DUALSPOT-UV-BLUE-GREEN-RED-IR","733061","707512","906590","15.069891","4.410698","0.008900","724478","896021","762248","10.469810","2.871166","0.012607","827763","906708","816311","8.559102","2.249472","0.009671","826406","928361","865059","6.726706","1.670164","0.016426","712242","851225","952029","4.679670","1.156611","-0.051238","5261","5837","6076","5157","5726","5941","4833","5155","5270","4733","5175","5321","4490","3836","3622",""
"MA200-0416","21726","61","1","1.10","1.4","2023-05-09T14:51:29","120","2023/05/09","14:51:29","-15.764674186706543","35.027941493317485","6.1","15","30","64","68","-4012","23984","-4760","6","150","150.43","114.50","35.93","30.82","39.3","15.38","89992","30.13","DUALSPOT-UV-BLUE-GREEN-RED-IR","732097","706973","906155","15.167458","4.442627","0.003764","723757","895518","761994","10.545711","2.894180","-0.004632","827441","906707","816433","8.624381","2.270137","0.001362","825591","927758","864600","6.778825","1.685399","-0.014807","711974","851084","951931","4.713203","1.165516","-0.054460","5005","5219","5308","4914","4748","4685","4733","4774","4789","4566","4253","4150","4091","3462","3255",""
"MA200-0416","21727","61","1","1.10","1.4","2023-05-09T14:51:59","120","2023/05/09","14:51:59","-15.763203799724579","35.02737766318023","6.0","15","30","64","68","-3512","24004","-5112","6","150","150.42","115.04","35.38","30.80","39.3","15.35","90076","30.13","DUALSPOT-UV-BLUE-GREEN-RED-IR","730710","705950","905053","15.226446","4.462507","0.007847","722975","894857","761516","10.586534","2.907096","0.003620","826072","905438","815400","8.656091","2.279132","-0.013612","824987","927287","864236","6.804894","1.692867","-0.014726","711261","850342","951179","4.729444","1.169851","-0.045029","3011","3300","3420","2630","2706","2735","2288","2110","2047","2273","2117","2066","1972","1711","1625",""
"MA200-0416","21728","61","1","1.10","1.4","2023-05-09T14:52:29","120","2023/05/09","14:52:29","-15.762765645980835","35.02678199484944","3.0","15","30","64","68","-4600","23484","-4616","6","150","149.54","114.57","34.97","30.80","39.3","15.35","90156","30.13","DUALSPOT-UV-BLUE-GREEN-RED-IR","728507","704552","903717","15.351624","4.503437","0.005964","725628","898937","765279","10.683897","2.936374","-0.001956","825509","905504","815733","8.740664","2.304148","-0.005012","824325","927126","864318","6.873349","1.713710","-0.000473","711148","850581","951559","4.774769","1.182665","-0.022757","6417","6874","7064","6299","6206","6170","6128","5939","5871","5994","5979","5974","5526","5118","4984",""
"MA200-0416","21729","61","1","1.10","1.4","2023-05-09T14:52:59","120","2023/05/09","14:52:59","-15.76309859752655","35.02561683021486","4.7","15","30","64","68","-2776","23448","-6336","6","150","150.25","115.13","35.12","30.79","39.2","15.33","90272","30.06","DUALSPOT-UV-BLUE-GREEN-RED-IR","726388","704037","904138","15.596325","4.589655","0.011557","723832","898409","765529","10.882738","3.002416","0.010051","823202","904427","815345","8.908749","2.357905","0.006953","821736","925427","863239","7.011297","1.755654","-0.000598","709525","849408","950616","4.868812","1.209580","-0.018366","12483","14420","15228","12803","13941","14375","12120","12709","12921","12020","11983","11970","11410","10706","10474",""
"MA200-0416","21730","61","1","1.10","1.4","2023-05-09T14:53:29","120","2023/05/09","14:53:29","-15.763306617736816","35.024620328098536","4.2","15","30","64","68","-876","24400","-5216","6","150","149.83","114.28","35.55","30.77","39.2","15.31","90256","30.06","DUALSPOT-UV-BLUE-GREEN-RED-IR","724323","703042","903459","15.935333","4.703073","0.006072","721753","896800","764569","11.159202","3.089922","0.002119","821491","903505","814896","9.153140","2.432530","-0.002806","820852","925264","863418","7.215480","1.815647","-0.011095","709135","849482","950923","5.003889","1.246269","-0.040615","17423","18739","19290","17933","18247","18368","17754","17428","17309","17925","16931","16596","16511","14417","13722",""
"MA200-0416","21731","61","1","1.10","1.4","2023-05-09T14:53:59","120","2023/05/09","14:53:59","-15.763323962688446","35.02351066470146","6.1","15","30","64","68","-4888","23764","-5788","6","150","150.49","114.84","35.65","30.75","39.3","15.32","90328","30.06","DUALSPOT-UV-BLUE-GREEN-RED-IR","729866","708617","910788","15.982340","4.719249","0.008341","721139","896258","764161","11.191786","3.099352","-0.009255","821140","903274","814757","9.180254","2.440374","-0.011157","820482","924993","863207","7.234929","1.821923","0.006908","713043","854263","956279","5.016325","1.249527","-0.052272","2404","2664","2774","2103","1960","1906","1960","1826","1778","1699","1766","1788","1512","1276","1198",""
"MA200-0416","21732","61","1","1.10","1.4","2023-05-09T14:54:29","120","2023/05/09","14:54:29","-15.763707160949707","35.0224913302809","2.2","15","30","64","68","20","23688","-7460","6","150","150.13","114.92","35.21","30.74","39.3","15.31","90320","30.00","DUALSPOT-UV-BLUE-GREEN-RED-IR","728737","707778","909836","16.028240","4.733820","0.003045","720523","895698","763757","11.221196","3.108013","-0.005057","820616","902859","814423","9.204883","2.447807","-0.002246","819387","923874","862200","7.254182","1.827036","-0.029783","712696","853878","955874","5.028251","1.252114","-0.126623","2345","2430","2466","1897","1823","1795","1779","1752","1743","1680","1457","1382","1449","1026","885",""
"MA200-0416","21733","61","1","1.10","1.4","2023-05-09T14:54:59","120","2023/05/09","14:54:59","-15.763615667819977","35.022711995989084","3.2","15","30","64","67","-5580","23512","-4960","6","150","149.87","114.13","35.74","30.72","39.3","15.31","90344","30.00","DUALSPOT-UV-BLUE-GREEN-RED-IR","727970","707312","909392","16.087992","4.752105","-0.002077","719996","895281","763496","11.262826","3.119289","-0.020378","820038","902454","814129","9.238696","2.456241","-0.041511","818994","923596","862022","7.279410","1.833683","-0.037009","708215","848613","950034","5.042434","1.255038","-0.165510","3075","3005","2975","2704","2339","2199","2459","1959","1777","2217","1865","1747","1736","1142","946",""
"MA200-0416","21734","61","1","1.10","1.4","2023-05-09T14:55:29","120","2023/05/09","14:55:29","-15.763264060020447","35.02368599548936","2.9","15","30","64","67","-1388","24253","-4946","6","150","150.03","115.43","34.59","30.72","39.4","15.34","0","0.00","DUALSPOT-UV-BLUE-GREEN-RED-IR","725529","705163","906749","16.131439","4.765917","0.004917","718423","893504","762021","11.292320","3.128528","0.005204","818556","900940","812827","9.261203","2.463394","0.008212","816114","920461","859127","7.298206","1.840066","0.020714","710979","852000","953846","5.053585","1.257827","-0.055808","2210","2344","2401","1894","1979","2012","1618","1716","1751","1633","1851","1924","1349","1126","1052",""
"MA200-0416","21735","61","1","1.10","1.4","2023-05-09T14:55:59","120","2023/05/09","14:55:59","-15.763274550437927","35.024685161188245","4.9","14","30","64","67","-2636","24116","-5480","6","150","149.67","114.61","35.06","30.72","39.4","15.35","0","0.00","DUALSPOT-UV-BLUE-GREEN-RED-IR","727075","706826","909027","16.172489","4.780386","0.010993","719541","895081","763449","11.322456","3.139608","0.019296","819283","901902","813759","9.284676","2.470957","0.007311","817877","922549","861149","7.316203","1.845747","0.005587","712139","853449","955496","5.064584","1.261243","0.003936","2103","2424","2558","1949","2343","2494","1700","1791","1824","1575","1625","1642","1340","1361","1367",""
"MA200-0416","21736","61","1","1.10","1.4","2023-05-09T14:56:29","120","2023/05/09","14:56:29","-15.763009905815125","35.02581516094506","4.4","14","30","64","67","-1496","24184","-4904","6","150","149.64","114.77","34.87","30.72","39.4","15.35","90272","30.00","DUALSPOT-UV-BLUE-GREEN-RED-IR","724397","704706","906625","16.240829","4.805101","0.013092","717437","892952","761868","11.374568","3.156286","0.006030","817935","900835","812992","9.326643","2.485692","0.018742","815987","920775","859639","7.348340","1.856267","0.012751","710846","852118","954144","5.084083","1.267224","0.002416","3497","4162","4441","3366","3545","3613","3035","3507","3679","2809","3026","3099","2373","2395","2402",""
"MA200-0416","21737","61","1","1.10","1.4","2023-05-09T14:56:59","120","2023/05/09","14:56:59","-15.762664496898651","35.02696332894266","1.2","14","30","64","67","600","23392","-5776","6","150","149.66","114.54","35.12","30.72","39.4","15.34","90116","30.00","DUALSPOT-UV-BLUE-GREEN-RED-IR","724912","705775","908416","16.401739","4.862512","0.011515","717771","893963","762990","11.505605","3.200065","0.009615","818141","901595","813928","9.443349","2.524583","0.011240","817129","922550","861491","7.447349","1.887649","0.005830","711590","853319","955602","5.151422","1.286698","-0.015867","8251","9602","10172","8480","9242","9535","8459","9194","9463","8672","8965","9065","8212","7746","7591",""
"MA200-0416","21738","61","1","1.10","1.4","2023-05-09T14:57:29","120","2023/05/09","14:57:29","-15.762650549411774","35.026973159983754","0.0","14","30","64","67","1480","24268","-4756","6","150","150.01","114.18","35.83","30.72","39.4","15.33","90120","30.00","DUALSPOT-UV-BLUE-GREEN-RED-IR","722826","704138","906529","16.478428","4.884655","-0.007774","715994","892077","761481","11.556366","3.214716","-0.010827","816573","900145","812684","9.483796","2.534025","-0.056664","814672","919964","859149","7.477969","1.895690","-0.037418","710170","851733","953871","5.168970","1.290717","-0.108864","3945","3629","3497","3295","3031","2929","2941","2187","1913","2690","2251","2102","2146","1566","1373",""
"MA200-0416","21739","61","1","1.10","1.4","2023-05-09T14:57:59","120","2023/05/09","14:57:59","-15.763314425945282","35.027548994868994","5.4","14","30","64","67","-1344","23868","-6296","6","150","150.43","114.76","35.66","30.72","39.3","15.31","90068","30.00","DUALSPOT-UV-BLUE-GREEN-RED-IR","723365","704973","907819","16.545229","4.907495","0.007538","716848","893468","762793","11.608143","3.231651","0.005836","817364","901274","813822","9.527243","2.548086","0.005618","816071","921756","860925","7.512106","1.905918","-0.006724","711005","852888","955196","5.192138","1.298299","0.012743","3418","3761","3906","3344","3519","3587","3143","3273","3320","2984","2877","2840","2820","2970","3020",""
"MA200-0416","21740","61","1","1.10","1.4","2023-05-09T14:58:29","120","2023/05/09","14:58:29","-15.76462996006012","35.028130827471614","4.7","14","30","64","67","-708","24232","-6500","6","150","149.37","114.19","35.18","30.68","39.3","15.25","89988","29.94","DUALSPOT-UV-BLUE-GREEN-RED-IR","723418","705342","908507","16.611801","4.930107","0.007658","716456","893279","762786","11.655759","3.246540","0.001741","817284","901476","814104","9.567249","2.560155","-0.003045","820909","927445","866310","7.542494","1.915204","-0.001449","710925","852936","955317","5.212869","1.303480","-0.064586","3424","3775","3923","3091","3137","3155","2908","2848","2826","2669","2648","2640","2536","2057","1897",""
"MA200-0416","21741","61","1","1.10","1.4","2023-05-09T14:58:59","120","2023/05/09","14:58:59","-15.76608294248581","35.028102492913604","6.5","14","30","64","67","-788","24092","-7275","6","150","149.67","113.89","35.78","30.65","39.2","15.21","89908","29.88","DUALSPOT-UV-BLUE-GREEN-RED-IR","718995","702618","905927","16.940580","5.036209","0.002198","713092","890798","761300","11.935070","3.332370","-0.002626","818203","904079","817057","9.812212","2.634757","-0.004460","817542","925055","864586","7.747539","1.975602","-0.011808","708702","851186","953776","5.359680","1.343997","-0.036138","16956","17417","17612","18181","17782","17628","17857","17309","17108","18063","16935","16549","18007","15818","15085",""
"MA200-0416","21742","61","1","1.10","1.4","2023-05-09T14:59:29","120","2023/05/09","14:59:29","-15.767681062221527","35.027581160888076","6.8","14","30","64","67","-1643","24048","-6220","6","150","150.01","114.63","35.38","30.61","39.2","15.16","89804","29.81","DUALSPOT-UV-BLUE-GREEN-RED-IR","716040","700338","903335","17.064992","5.074646","0.000081","714955","893747","764053","12.032024","3.361351","-0.003806","816344","902531","815875","9.895330","2.658765","-0.009715","815066","922636","862529","7.817373","1.996022","-0.009719","707337","849889","952399","5.411096","1.355485","-0.107781","6375","6381","6383","6270","6072","5995","6020","5634","5492","6112","5790","5680","6266","4536","3957",""
"MA200-0416","21743","61","1","1.10","1.4","2023-05-09T14:59:59","120","2023/05/09","14:59:59","-15.769031524658203","35.02677499689162","5.7","14","30","64","67","-1600","24212","-5576","6","150","150.43","114.53","35.89","30.57","39.1","15.10","89744","29.75","DUALSPOT-UV-BLUE-GREEN-RED-IR","717134","702477","906768","17.281728","5.145782","0.003654","710664","889528","760858","12.206091","3.415578","-0.000676","812304","899032","813078","10.042297","2.703910","-0.002774","816049","924616","864696","7.937671","2.031636","-0.010121","704183","846602","948949","5.490942","1.377276","-0.037922","11114","11640","11863","11266","11200","11174","10653","10442","10364","10537","9954","9754","9738","8481","8060",""
"MA200-0416","21744","61","1","1.10","1.4","2023-05-09T15:00:29","120","2023/05/09","15:00:29","-15.770412147045135","35.025968162342906","6.4","13","30","64","67","-926","24061","-6242","6","150","149.67","114.53","35.13","30.52","39.1","15.03","89680","29.69","DUALSPOT-UV-BLUE-GREEN-RED-IR","716143","701800","906084","17.355402","5.168924","0.001904","714473","894597","765310","12.262698","3.432726","-0.001437","812057","898946","813099","10.090233","2.718758","0.001306","815658","924340","864512","7.975832","2.042829","-0.007839","708669","852115","955163","5.516226","1.383835","-0.047017","3778","3868","3907","3663","3618","3600","3474","3508","3521","3342","3196","3146","3083","2608","2448",""
"MA200-0416","21745","61","1","1.10","1.4","2023-05-09T15:00:59","120","2023/05/09","15:00:59","-15.771902024745941","35.025204664096236","6.5","13","30","64","66","-1727","24028","-5884","6","150","149.84","114.97","34.87","30.48","39.1","14.98","89608","29.56","DUALSPOT-UV-BLUE-GREEN-RED-IR","712780","698859","902484","17.427362","5.190412","-0.001288","712042","891851","763084","12.314587","3.449619","0.007515","813733","901090","815185","10.135396","2.733445","0.008877","811103","919409","860004","8.010178","2.053594","0.005365","705932","848957","951699","5.537824","1.390371","-0.000558","3676","3619","3595","3345","3591","3686","3261","3496","3583","2997","3097","3131","2624","2618","2616",""
"MA200-0416","21746","61","1","1.10","1.4","2023-05-09T15:01:29","120","2023/05/09","15:01:29","-15.773250818252563","35.024478828534484","4.4","13","30","64","67","-2300","24088","-5420","6","150","150.36","114.64","35.72","30.42","39.1","14.93","89560","29.50","DUALSPOT-UV-BLUE-GREEN-RED-IR","711569","698058","901728","17.511636","5.219621","0.007879","710997","890917","762438","12.379616","3.470760","0.004594","813194","900811","815083","10.188812","2.750289","0.001589","816802","926128","866411","8.053285","2.068388","0.014910","706002","849184","952019","5.563570","1.397160","-0.046410","4317","4802","5008","4205","4387","4458","3868","3914","3932","3772","4155","4287","3137","2655","2493",""
"MA200-0416","21747","61","1","1.10","1.4","2023-05-09T15:01:59","120","2023/05/09","15:01:59","-15.773305177688599","35.02429682761431","1.6","13","30","64","67","-3904","23460","-6440","6","150","149.86","114.88","34.98","30.37","39.1","14.89","0","0.00","DUALSPOT-UV-BLUE-GREEN-RED-IR","715381","702730","908331","17.711714","5.285526","0.005890","712928","894364","765802","12.544455","3.523285","0.004830","810959","899188","813992","10.331665","2.796745","0.008249","813825","923509","864298","8.171565","2.105980","0.006810","704545","847935","950860","5.645775","1.420481","-0.017805","10229","11065","11421","10637","11130","11323","10324","11025","11286","10329","10781","10938","9996","9313","9083",""
"MA200-0416","21748","61","1","1.10","1.4","2023-05-09T15:02:29","120","2023/05/09","15:02:29","-15.772799670696259","35.0236049965024","4.1","13","30","64","67","-2003","24360","-5760","6","150","149.86","114.99","34.87","30.33","39.1","14.88","0","0.00","DUALSPOT-UV-BLUE-GREEN-RED-IR","714185","701779","907293","17.766044","5.304128","0.008754","712051","893453","765115","12.583668","3.535961","0.006699","810121","898451","813400","10.362814","2.806258","0.000942","813055","922766","863658","8.197685","2.114582","0.012660","703979","847321","950186","5.659641","1.424840","0.008281","2775","3133","3286","2528","2695","2760","2248","2265","2271","2278","2474","2542","1684","1746","1767",""
"MA200-0416","21749","61","1","1.10","1.4","2023-05-09T15:02:59","120","2023/05/09","15:02:59","-15.771918058395386","35.02267166413367","5.3","13","30","64","66","-3719","23705","-5938","6","150","150.14","114.96","35.18","30.30","39.2","14.86","89556","29.38","DUALSPOT-UV-BLUE-GREEN-RED-IR","711715","699649","904725","17.830364","5.327482","0.011775","710227","891415","763484","12.626790","3.551525","0.015806","812722","901545","816269","10.399085","2.819538","0.020402","809826","919269","860458","8.225584","2.124905","0.026731","706586","850546","953847","5.673288","1.429039","0.001194","3286","3898","4159","2780","3279","3474","2619","3133","3324","2434","2943","3121","1658","1666","1669",""
"MA200-0416","21750","61","1","1.10","1.4","2023-05-09T15:03:29","120","2023/05/09","15:03:29","-15.77112865447998","35.022624496370554","3.4","13","30","64","67","-3444","23476","-7896","6","150","150.33","114.44","35.89","30.25","39.2","14.82","89644","29.38","DUALSPOT-UV-BLUE-GREEN-RED-IR","711723","699846","905126","17.874812","5.343620","0.010276","709996","891302","763449","12.657229","3.562175","0.010966","813224","902242","816995","10.424411","2.828675","0.016414","810247","919813","861054","8.244102","2.132558","0.036393","707236","851369","954797","5.681898","1.432168","0.030828","2281","2641","2794","1971","2200","2289","1837","2113","2216","1623","2139","2319","1050","1217","1274",""
"MA200-0416","21751","61","1","1.10","1.4","2023-05-09T15:03:59","120","2023/05/09","15:03:59","-15.770407438278198","35.023066664114594","2.9","13","30","64","66","-1716","24552","-6488","6","150","150.07","114.80","35.26","30.22","39.2","14.81","89660","29.31","DUALSPOT-UV-BLUE-GREEN-RED-IR","708656","697168","901883","17.932994","5.364031","0.009399","707780","888769","761418","12.694318","3.575157","0.012812","811510","900552","815562","10.454067","2.839827","0.022522","808319","917786","859226","8.267453","2.141255","0.026962","706195","850205","953515","5.695001","1.436525","0.017472","2976","3399","3580","2394","2729","2860","2144","2625","2805","2040","2474","2625","1594","1726","1770",""
"MA200-0416","21752","61","1","1.10","1.4","2023-05-09T15:04:29","120","2023/05/09","15:04:29","-15.769686043262482","35.023346830159426","2.7","13","30","64","66","-3428","23616","-5060","6","150","150.49","115.26","35.23","30.19","39.2","14.79","89692","29.31","DUALSPOT-UV-BLUE-GREEN-RED-IR","710100","698965","904429","18.025302","5.390901","-0.004048","708854","890434","762950","12.752436","3.592132","-0.005170","812374","901788","816764","10.497718","2.852189","-0.010697","809808","919665","861076","8.298033","2.151381","0.012189","707213","851517","955031","5.711483","1.439573","-0.195933","4703","4479","4384","3738","3571","3506","3144","2913","2826","2661","2883","2961","1997","1208","942",""
"MA200-0416","21753","61","1","1.10","1.4","2023-05-09T15:04:59","120","2023/05/09","15:04:59","-15.76902985572815","35.023136826232076","2.2","13","30","64","66","-4988","23208","-4624","6","150","149.55","114.67","34.88","30.17","39.3","14.80","89764","29.38","DUALSPOT-UV-BLUE-GREEN-RED-IR","713325","702376","908967","18.072046","5.406770","0.007865","707005","888273","761184","12.783991","3.602153","0.004511","810884","900259","815457","10.522254","2.860772","0.016241","807537","917181","858795","8.315881","2.157259","0.012063","705893","850010","953386","5.720978","1.442287","-0.015306","2394","2672","2790","2040","2129","2164","1776","2042","2142","1561","1690","1735","1156","1087","1063",""
"MA200-0416","21754","61","1","1.10","1.4","2023-05-09T15:05:29","120","2023/05/09","15:05:29","-15.768431961536407","35.023143995553255","3.1","13","30","64","66","-4284","23452","-5472","6","150","150.56","115.83","34.73","30.13","39.4","14.79","89820","29.31","DUALSPOT-UV-BLUE-GREEN-RED-IR","713980","703234","910256","18.121026","5.426769","0.018798","707984","889762","762534","12.818561","3.615123","0.020237","811769","901420","816573","10.550249","2.872055","0.030444","815117","925910","867053","8.338423","2.167248","0.047071","706992","851406","954943","5.731882","1.445471","-0.006264","2483","3382","3766","2212","2768","2987","2006","2697","2956","1952","2886","3214","1315","1280","1269",""
"MA200-0416","21755","61","1","1.10","1.4","2023-05-09T15:05:59","120","2023/05/09","15:05:59","-15.767939388751984","35.0231674965471","1.0","13","30","64","66","176","23940","-5212","6","150","150.24","114.50","35.74","30.11","39.4","14.79","89868","29.31","DUALSPOT-UV-BLUE-GREEN-RED-IR","714102","703536","910793","18.165062","5.442198","0.008189","708034","889966","762838","12.849878","3.628433","0.026066","811520","901225","816477","10.572950","2.880066","0.014378","814056","924809","866084","8.357751","2.173787","0.012178","706346","850659","954173","5.742458","1.450069","0.059968","2258","2535","2653","2027","2760","3048","1646","1860","1941","1693","1835","1885","1290","1796","1968",""
"MA200-0416","21756","61","1","1.10","1.4","2023-05-09T15:06:29","120","2023/05/09","15:06:29","-15.768446862697601","35.02317232824862","4.6","13","30","64","66","444","23968","-6152","6","150","149.94","114.04","35.89","30.09","39.4","14.78","89808","29.31","DUALSPOT-UV-BLUE-GREEN-RED-IR","713268","702926","910182","18.215854","5.459434","0.005517","707270","889198","762251","12.882979","3.638136","-0.008202","811028","900846","816245","10.600756","2.890110","0.015926","814130","924995","866323","8.375280","2.180677","0.030064","706547","850982","954544","5.752603","1.451861","-0.246985","2615","2820","2908","2151","2004","1946","2024","2323","2435","1542","1925","2061","1242","697","513",""
"MA200-0416","21757","61","1","1.10","1.4","2023-05-09T15:06:59","120","2023/05/09","15:06:59","-15.769266128540039","35.02319766022265","3.1","13","30","64","66","-1564","23480","-5708","6","150","150.23","115.31","34.91","30.07","39.4","14.76","89744","29.31","DUALSPOT-UV-BLUE-GREEN-RED-IR","712486","702428","909684","18.265542","5.477144","0.011060","707153","889300","762395","12.918033","3.650743","0.016068","810505","900445","815942","10.628688","2.899438","0.011673","813088","923961","865390","8.396440","2.187872","0.016984","706199","850673","954231","5.764927","1.456568","0.044988","2530","2979","3171","2253","2676","2843","2011","2218","2295","1840","2067","2147","1492","1883","2015",""
"MA200-0416","21758","61","1","1.10","1.4","2023-05-09T15:07:29","120","2023/05/09","15:07:29","-15.769926011562347","35.023318162187934","4.5","13","30","64","66","172","23820","-7372","6","150","149.86","114.19","35.67","30.05","39.4","14.75","89664","29.25","DUALSPOT-UV-BLUE-GREEN-RED-IR","711122","701299","908375","18.317452","5.494943","0.006696","710215","893305","765940","12.951541","3.660261","-0.011149","810202","900292","815848","10.655477","2.908331","0.007470","812663","923573","865099","8.417021","2.195096","0.017044","705942","850361","953918","5.774383","1.458534","-0.140323","2669","2931","3043","2175","1978","1900","1947","2070","2116","1808","2032","2111","1156","769","639",""
"MA200-0416","21759","61","1","1.10","1.4","2023-05-09T15:07:59","120","2023/05/09","15:07:59","-15.771171569824219","35.02257666364312","5.8","13","30","64","66","-788","24172","-5220","6","150","150.13","115.37","34.76","30.03","39.5","14.74","89632","29.25","DUALSPOT-UV-BLUE-GREEN-RED-IR","709646","700094","907031","18.369524","5.513908","0.012512","709248","892332","765168","12.986992","3.672439","0.012588","809517","899706","815404","10.681179","2.915781","-0.005152","811733","922680","864337","8.438496","2.202260","0.015032","705618","850056","953599","5.786497","1.462693","0.027202","2651","3204","3442","2277","2597","2723","1849","1779","1753","1867","2067","2138","1466","1671","1740",""
"MA200-0416","21760","61","1","1.10","1.4","2023-05-09T15:08:29","120","2023/05/09","15:08:29","-15.772955775260925","35.02145132981241","7.0","13","30","64","66","-859","24112","-6032","6","150","150.35","114.92","35.42","30.00","39.5","14.71","89404","29.19","DUALSPOT-UV-BLUE-GREEN-RED-IR","707239","697916","904317","18.422280","5.532751","0.010036","707369","890157","763398","13.020833","3.683895","0.009245","807491","897563","813538","10.709435","2.925717","0.015154","807599","918103","860100","8.458818","2.209830","0.026007","703614","847716","951008","5.797754","1.464659","-0.237959","2696","3124","3307","2183","2397","2481","2041","2328","2436","1774","2143","2274","1368","775","575",""
"MA200-0416","21761","61","1","1.10","1.4","2023-05-09T15:08:59","120","2023/05/09","15:08:59","-15.774627268314362","35.02259566448629","10.9","13","30","64","66","-2620","24144","-3128","6","150","149.45","114.68","34.77","29.96","39.5","14.70","89484","29.13","DUALSPOT-UV-BLUE-GREEN-RED-IR","707209","698083","904717","18.468078","5.549213","0.011355","706840","889630","763058","13.050504","3.695743","0.023511","807302","897496","813548","10.734863","2.935659","0.026552","808743","919493","861489","8.477458","2.216792","0.028198","703992","848262","951662","5.809004","1.467989","-0.005671","2345","2781","2968","1918","2526","2767","1840","2374","2574","1630","2008","2142","1370","1337","1326",""
"MA200-0416","21762","61","1","1.10","1.4","2023-05-09T15:09:29","120","2023/05/09","15:09:29","-15.776866137981415","35.02162999473512","3.4","13","30","64","65","-7075","23100","-6779","6","150","150.01","115.50","34.50","29.92","39.5","14.67","89688","29.06","DUALSPOT-UV-BLUE-GREEN-RED-IR","708663","699769","907020","18.513960","5.564773","0.008753","704173","886471","760413","13.081264","3.704595","-0.004139","808872","899424","815352","10.759530","2.943747","0.011014","809828","920822","862792","8.495858","2.222890","0.015183","705630","850285","953935","5.820156","1.471292","-0.001956","2333","2648","2784","1974","1901","1872","1772","1946","2011","1598","1773","1834","1348","1337","1333",""
"MA200-0416","21763","61","1","1.10","1.4","2023-05-09T15:09:59","120","2023/05/09","15:09:59","-15.77746319770813","35.02294016070664","3.1","13","30","64","66","-1484","23780","-5576","6","150","150.43","114.99","35.44","29.88","39.6","14.66","89672","29.00","DUALSPOT-UV-BLUE-GREEN-RED-IR","709083","700632","908485","18.601966","5.596365","0.010256","704393","887116","761097","13.135678","3.721922","0.003382","809469","900377","816361","10.802833","2.957856","0.006765","810459","921788","863761","8.528961","2.233063","-0.000422","706611","851618","955499","5.839754","1.476214","-0.056366","4495","5236","5555","3507","3624","3671","3126","3305","3372","2888","2880","2877","2380","1940","1791",""
"MA200-0416","21764","61","1","1.10","1.4","2023-05-09T15:10:29","120","2023/05/09","15:10:29","-15.777667880058289","35.02343082986772","0.0","13","30","64","66","-2004","23787","-7141","6","150","149.51","114.64","34.87","29.85","39.7","14.65","89668","29.00","DUALSPOT-UV-BLUE-GREEN-RED-IR","706305","698768","906684","18.795374","5.661113","0.006702","706864","891106","764867","13.274979","3.767252","0.006698","807404","898767","815218","10.917618","2.994137","0.004699","808266","919929","862293","8.623551","2.263700","0.009381","705054","850138","954012","5.901102","1.492399","-0.036564","9909","10907","11337","9008","9637","9887","8312","8639","8762","8278","8815","9006","7475","6484","6148",""
"MA200-0416","21765","61","1","1.10","1.4","2023-05-09T15:10:59","120","2023/05/09","15:10:59","-15.779997646808624","35.024120995774865","15.9","13","30","64","65","-4065","23738","-5100","6","150","149.83","115.16","34.67","29.80","39.7","14.64","89708","29.00","DUALSPOT-UV-BLUE-GREEN-RED-IR","703420","697278","905690","18.996768","5.730579","0.009077","703929","888880","763600","13.433316","3.818458","0.006977","805684","898180","815208","11.048429","3.035270","0.005210","807031","919585","862454","8.728058","2.295666","0.002409","704183","849784","953921","5.970142","1.512990","-0.002163","10272","11766","12412","10193","10947","11247","9430","9848","10006","9105","9249","9300","8375","8295","8268",""
"MA200-0416","21766","61","1","1.10","1.4","2023-05-09T15:11:29","120","2023/05/09","15:11:29","-15.783424198627472","35.02294799499214","8.8","13","30","64","65","-8184","23204","-7115","6","150","150.43","114.68","35.75","29.78","39.9","14.69","89888","28.94","DUALSPOT-UV-BLUE-GREEN-RED-IR","699929","695875","905122","19.491210","5.895082","0.004517","701726","888361","764049","13.853878","3.954404","0.003554","802762","896960","814926","11.420695","3.151989","0.000701","803590","917478","861202","9.044139","2.393150","-0.001616","702386","848854","953451","6.198440","1.577807","-0.021922","25324","27029","27769","27186","28193","28594","26950","27108","27168","27652","27359","27254","27810","25330","24483",""
"MA200-0416","21767","61","1","1.10","1.4","2023-05-09T15:11:59","120","2023/05/09","15:11:59","-15.784315764904022","35.022559996694326","8.2","13","30","64","66","-871","23612","-8596","6","150","149.90","114.56","35.34","29.74","40.0","14.69","89916","28.94","DUALSPOT-UV-BLUE-GREEN-RED-IR","703170","699612","910376","19.637886","5.945322","0.006961","700035","886727","762855","13.972412","3.991968","0.002640","801767","896308","814562","11.525003","3.185456","0.004563","803077","917236","861167","9.131755","2.420902","0.003861","701998","848669","953346","6.258215","1.593743","-0.035571","7520","8350","8711","7670","7880","7964","7559","7863","7978","7673","7879","7953","7288","6299","5961",""
"MA200-0416","21768","61","1","1.10","1.4","2023-05-09T15:12:29","120","2023/05/09","15:12:29","-15.7857546210289","35.01921449415386","18.5","13","30","64","66","-3180","23476","-4940","6","150","149.65","114.88","34.77","29.71","40.1","14.71","89860","28.94","DUALSPOT-UV-BLUE-GREEN-RED-IR","700179","698420","910071","19.973162","6.060629","0.008189","697335","885304","762499","14.257836","4.085577","0.007349","798913","894882","814060","11.774820","3.266221","0.007313","805675","921864","866171","9.341008","2.485728","0.003320","700301","847661","952734","6.409546","1.639616","0.000305","17142","19477","20494","18419","19957","20575","18054","19283","19755","18275","18704","18859","18402","18429","18438",""
"MA200-0416","21769","61","1","1.10","1.4","2023-05-09T15:12:59","120","2023/05/09","15:12:59","-15.786334753036499","35.01529899798334","12.7","13","30","64","66","-2296","23888","-5716","6","150","149.80","114.71","35.09","29.67","40.2","14.70","90048","28.88","DUALSPOT-UV-BLUE-GREEN-RED-IR","698084","696792","908315","20.146410","6.123800","0.010734","700006","889199","766069","14.402374","4.135597","0.010805","797465","893659","813167","11.902565","3.310048","0.012114","804059","920320","864905","9.449027","2.522516","0.014179","699414","846796","951902","6.483330","1.663223","0.008986","8870","10574","11318","9340","10568","11062","9245","10370","10803","9447","10518","10909","8985","9398","9541",""
"MA200-0416","21770","61","1","1.10","1.4","2023-05-09T15:13:29","120","2023/05/09","15:13:29","-15.787901043891907","35.013686331920326","0.1","13","30","64","65","-3230","24069","-5130","6","150","150.43","114.65","35.78","29.63","40.3","14.71","90244","28.81","DUALSPOT-UV-BLUE-GREEN-RED-IR","695384","695742","908037","20.506120","6.246206","0.005611","697237","887507","765362","14.706834","4.234606","0.003791","799455","897577","817418","12.169694","3.394919","0.002010","802427","919908","865134","9.674894","2.592617","-0.000780","698429","846588","952090","6.644289","1.708846","-0.021209","18428","20094","20824","19686","20514","20849","19344","19693","19829","19765","19657","19617","19612","17812","17189",""
"MA200-0416","21771","61","1","1.10","1.4","2023-05-09T15:13:59","120","2023/05/09","15:13:59","-15.787791550159454","35.01307966466993","8.1","13","30","64","65","-8","24544","-5196","6","150","149.99","114.50","35.49","29.61","40.4","14.72","90220","28.81","DUALSPOT-UV-BLUE-GREEN-RED-IR","693230","694245","906523","20.638402","6.292562","0.007665","696164","886832","765091","14.812370","4.269474","0.005724","798517","897101","817227","12.259880","3.423786","0.003538","800852","918598","864097","9.746434","2.615636","0.005082","697451","845748","951267","6.693361","1.722401","-0.025638","6785","7672","8061","6833","7283","7466","6539","6753","6836","6268","6507","6595","5987","5335","5110",""
"MA200-0416","21772","61","1","1.10","1.4","2023-05-09T15:14:29","120","2023/05/09","15:14:29","-15.787459194660187","35.010998162440956","8.8","13","30","64","65","-3657","23738","-5661","6","150","150.36","114.80","35.56","29.59","40.5","14.74","90144","28.81","DUALSPOT-UV-BLUE-GREEN-RED-IR","690964","693675","906948","21.028480","6.427599","0.006883","694096","886042","765174","15.135741","4.374206","0.003975","791881","891280","812602","12.542926","3.512978","0.001865","798060","916856","863088","9.988326","2.690315","-0.000466","696259","845275","951205","6.865261","1.772196","-0.013960","19958","22303","23336","20882","21832","22219","20470","20823","20960","21140","21068","21042","20918","19561","19088",""
"MA200-0416","21773","61","1","1.10","1.4","2023-05-09T15:14:59","120","2023/05/09","15:14:59","-15.787561535835266","35.009447497315705","2.2","13","30","64","65","-3075","24047","-4975","6","150","150.24","114.46","35.78","29.57","40.5","14.74","90240","28.81","DUALSPOT-UV-BLUE-GREEN-RED-IR","689333","692933","906611","21.172220","6.478725","0.007827","692886","885452","765088","15.252030","4.413711","0.007135","794487","895118","816489","12.644248","3.546357","0.005507","797133","916528","863135","10.069445","2.715587","-0.000457","695501","844834","950933","6.919361","1.788066","-0.013088","7376","8392","8841","7531","8185","8451","7349","7745","7899","7110","7086","7077","6602","6196","6054",""
"MA200-0416","21774","61","1","1.10","1.4","2023-05-09T15:15:29","120","2023/05/09","15:15:29","-15.78733915090561","35.00855116546154","3.8","13","30","64","65","-3248","24156","-5232","6","150","149.35","113.78","35.57","29.56","40.6","14.76","90268","28.81","DUALSPOT-UV-BLUE-GREEN-RED-IR","688196","692448","906479","21.377748","6.552011","0.007892","691649","884615","764690","15.426566","4.472292","0.006098","793953","895159","816824","12.796381","3.595805","0.004102","796759","916673","863500","10.200701","2.757107","0.001586","695367","845068","951382","7.011871","1.815158","-0.013274","10609","12102","12762","11371","12210","12552","11100","11542","11715","11573","11712","11763","11357","10640","10390",""
"MA200-0416","21775","61","1","1.10","1.4","2023-05-09T15:15:59","120","2023/05/09","15:15:59","-15.787331640720367","35.007496498990804","2.8","14","30","64","65","-1632","24376","-5036","6","150","149.59","114.25","35.34","29.52","40.6","14.74","90256","28.81","DUALSPOT-UV-BLUE-GREEN-RED-IR","687716","692334","906599","21.461232","6.580663","0.006362","691507","884808","764999","15.491250","4.492843","0.002385","793646","895134","816927","12.851066","3.614198","0.008442","795681","915704","862680","10.244220","2.771205","0.005940","694852","844606","950932","7.039449","1.822299","-0.040033","4291","4762","4970","4197","4311","4358","3973","4321","4457","3821","4002","4069","3371","2822","2630",""
"MA200-0416","21776","61","1","1.10","1.4","2023-05-09T15:16:29","120","2023/05/09","15:16:29","-15.787767171859741","35.006345498841256","5.3","14","30","64","65","-4464","23904","-5540","6","150","150.01","114.96","35.05","29.51","40.7","14.75","90236","28.81","DUALSPOT-UV-BLUE-GREEN-RED-IR","686141","691185","905396","21.555820","6.615011","0.010028","690055","883425","763995","15.565981","4.517334","0.006142","792780","894550","816604","12.915701","3.634655","0.003906","795883","916289","863385","10.296640","2.787553","0.002979","694878","844844","951286","7.073213","1.832352","-0.004580","4832","5756","6165","4819","5180","5328","4667","4846","4915","4574","4680","4719","4102","4007","3974",""
"MA200-0416","21777","61","1","1.10","1.4","2023-05-09T15:16:59","120","2023/05/09","15:16:59","-15.788492441177368","35.00567766558379","7.1","14","30","64","65","-2904","24160","-6000","6","150","150.09","114.56","35.54","29.49","40.8","14.77","90204","28.81","DUALSPOT-UV-BLUE-GREEN-RED-IR","685285","691025","905675","21.707622","6.668554","0.007610","689104","882946","763888","15.686007","4.556352","0.004038","791709","894050","816406","13.019897","3.666871","-0.000348","794756","915567","862960","10.382993","2.814089","-0.001249","694352","844575","951115","7.128412","1.846687","-0.039504","7783","8850","9323","7767","8139","8292","7551","7526","7517","7562","7491","7465","6731","5635","5252",""
"MA200-0416","21778","61","1","1.10","1.4","2023-05-09T15:17:29","120","2023/05/09","15:17:29","-15.788656055927277","35.00516533199698","3.7","14","30","64","65","-2100","24096","-5120","6","150","149.59","114.34","35.26","29.48","40.8","14.76","90208","28.75","DUALSPOT-UV-BLUE-GREEN-RED-IR","683986","690273","905097","21.821778","6.708679","0.007703","688134","882232","763535","15.775681","4.585415","0.004259","791028","893730","816333","13.095969","3.691840","0.006291","793574","914600","862209","10.443813","2.832037","-0.006006","693833","844191","950824","7.170797","1.858757","-0.016057","5864","6684","7049","5814","6111","6233","5523","5880","6019","5336","5107","5021","5178","4782","4643",""
"MA200-0416","21779","61","1","1.10","1.4","2023-05-09T15:17:59","120","2023/05/09","15:17:59","-15.788399934768677","35.00342599977739","10.3","14","30","64","65","-5145","23745","-4785","6","150","150.08","114.88","35.20","29.46","40.9","14.78","90288","28.75","DUALSPOT-UV-BLUE-GREEN-RED-IR","686857","694071","910745","22.028334","6.782774","0.008983","686731","881405","763220","15.942961","4.645019","0.011724","789179","892505","815602","13.237877","3.739338","0.008619","792447","914004","862018","10.562038","2.872800","0.013904","697504","849135","956636","7.252027","1.884577","0.006639","10561","12364","13166","10794","12553","13276","10255","11203","11576","10325","11618","12102","9877","10247","10377",""
"MA200-0416","21780","61","1","1.10","1.4","2023-05-09T15:18:29","120","2023/05/09","15:18:29","-15.787988662719727","35.001483666477725","6.8","14","30","64","65","-524","24236","-4960","6","150","150.35","114.96","35.39","29.45","41.0","14.81","90320","28.75","DUALSPOT-UV-BLUE-GREEN-RED-IR","685918","693734","910693","22.164920","6.829344","0.006066","686344","881553","763618","16.052023","4.679334","0.001875","788584","892348","815666","13.331855","3.768998","0.002538","791071","912876","861124","10.638147","2.896577","0.001866","696680","848450","955983","7.303680","1.898479","-0.028038","6978","7728","8062","7032","7187","7251","6786","6957","7024","6642","6740","6776","6276","5487","5209",""
"MA200-0416","21781","61","1","1.10","1.4","2023-05-09T15:18:59","120","2023/05/09","15:18:59","-15.787142992019653","35.00089716661023","5.6","14","30","64","65","-408","24092","-5188","6","150","150.23","114.72","35.51","29.44","41.0","14.81","90260","28.75","DUALSPOT-UV-BLUE-GREEN-RED-IR","680418","688652","904382","22.291782","6.875158","0.008712","685852","881419","763742","16.152508","4.712635","0.005613","788315","892531","816052","13.418567","3.797006","0.004262","790360","912476","860910","10.709523","2.918130","-0.003252","696632","848632","956310","7.350361","1.912139","-0.010844","6495","7577","8060","6493","6951","7140","6275","6548","6655","6241","6089","6031","5684","5373","5264",""
"MA200-0416","21782","61","1","1.10","1.4","2023-05-09T15:19:29","120","2023/05/09","15:19:29","-15.786601960659027","35.00006049999865","4.9","14","30","64","65","-4148","23696","-4600","6","150","149.92","114.12","35.81","29.44","41.1","14.84","90272","28.75","DUALSPOT-UV-BLUE-GREEN-RED-IR","685099","693571","911023","22.338266","6.891874","0.007809","685404","881035","763474","16.185635","4.723554","0.004120","787456","891713","815404","13.446199","3.805791","0.001350","789677","911803","860359","10.731898","2.925795","0.010445","691873","842917","949898","7.363899","1.915984","-0.020009","2392","2742","2898","2151","2260","2305","2010","2037","2047","1967","2147","2215","1657","1499","1444",""
"MA200-0416","21783","61","1","1.10","1.4","2023-05-09T15:19:59","120","2023/05/09","15:19:59","-15.78638082742691","34.99852019548416","6.0","14","30","64","65","-164","24300","-4712","6","150","149.94","114.63","35.31","29.43","41.2","14.87","90280","28.75","DUALSPOT-UV-BLUE-GREEN-RED-IR","679764","688475","904548","22.402862","6.917293","0.012785","685262","881109","763671","16.230167","4.738521","0.007016","787883","892438","816150","13.482940","3.817051","-0.000538","790306","912717","861273","10.760955","2.934491","-0.003781","696482","848677","956414","7.381866","1.919032","-0.209347","3309","4228","4638","2880","3142","3250","2661","2647","2641","2543","2470","2443","2189","1205","860",""
"MA200-0416","21784","61","1","1.10","1.4","2023-05-09T15:20:29","120","2023/05/09","15:20:29","-15.786349356174469","34.997257471084595","4.1","14","30","64","65","-2164","24044","-6328","6","150","150.05","114.53","35.51","29.42","41.2","14.86","90196","28.75","DUALSPOT-UV-BLUE-GREEN-RED-IR","684364","693352","911192","22.465030","6.940304","0.009745","684756","880704","763415","16.274149","4.753755","0.008725","787085","891754","815608","13.519706","3.828924","0.004050","795809","919272","867538","10.789632","2.942382","-0.016957","691845","843130","950231","7.400564","1.925334","0.014215","3188","3805","4081","2846","3180","3317","2665","2775","2819","2511","2229","2123","2280","2478","2548",""
"MA200-0416","21785","61","1","1.10","1.4","2023-05-09T15:20:59","120","2023/05/09","15:20:59","-15.787234902381897","34.99730306863785","5.9","14","30","64","65","-1984","24140","-5064","6","150","149.84","114.13","35.70","29.41","41.2","14.85","90232","28.75","DUALSPOT-UV-BLUE-GREEN-RED-IR","677812","687169","903347","22.544220","6.969120","0.008479","683859","880031","763035","16.336552","4.774915","0.006493","786992","892031","816043","13.571686","3.846955","0.009721","789955","912837","861619","10.832653","2.957492","0.013337","692045","843557","950808","7.428728","1.933946","-0.004209","4075","4740","5038","4053","4393","4534","3781","4192","4355","3781","4245","4420","3447","3369","3342",""
"MA200-0416","21786","61","1","1.10","1.4","2023-05-09T15:21:29","120","2023/05/09","15:21:29","-15.78672856092453","34.99641019105911","4.9","14","30","64","65","-688","24308","-3207","6","150","150.35","114.17","36.18","29.41","41.2","14.85","90260","28.75","DUALSPOT-UV-BLUE-GREEN-RED-IR","677179","687349","904198","22.665966","7.012186","0.006351","683303","880218","763573","16.434967","4.807823","0.004391","785953","891649","816033","13.655130","3.874230","0.003070","788385","911658","860811","10.899446","2.978563","-0.000592","691597","843468","950935","7.474052","1.947665","-0.008666","6263","6990","7316","6390","6742","6887","6068","6258","6333","5869","5842","5831","5545","5296","5208",""
"MA200-0416","21787","61","1","1.10","1.4","2023-05-09T15:21:59","120","2023/05/09","15:21:59","-15.785528242588043","34.99603468179703","4.8","14","30","64","65","-1700","24580","-3976","6","150","150.43","115.16","35.27","29.39","41.3","14.86","90212","28.75","DUALSPOT-UV-BLUE-GREEN-RED-IR","680936","691578","910022","22.830764","7.070343","0.007913","682405","879425","763055","16.566961","4.850160","0.003782","785038","890980","815577","13.769932","3.909707","0.000899","788518","912153","861368","10.993820","3.007149","-0.001400","695364","848280","956399","7.540630","1.967071","-0.009272","8405","9685","10259","8497","8898","9065","8276","8351","8380","8222","8131","8097","8076","7686","7548",""
"MA200-0416","21788","61","1","1.10","1.4","2023-05-09T15:22:29","120","2023/05/09","15:22:29","-15.78420639038086","34.995686650276184","5.2","15","30","64","64","-1876","24444","-2548","6","150","150.30","114.31","35.99","29.39","41.4","14.90","90212","28.75","DUALSPOT-UV-BLUE-GREEN-RED-IR","680901","691756","910452","22.887040","7.089720","0.005210","682143","879347","763086","16.608742","4.863161","-0.001036","785107","891247","815885","13.803992","3.920221","-0.002050","788687","912466","861748","11.021910","3.015911","-0.001194","691235","843304","950890","7.558105","1.971532","-0.045545","2891","3161","3283","2709","2677","2663","2473","2425","2405","2465","2442","2433","2135","1731","1588",""
"MA200-0416","21789","61","1","1.10","1.4","2023-05-09T15:22:59","120","2023/05/09","15:22:59","-15.782713174819946","34.99555951356888","5.7","15","30","64","64","-1456","24076","-4844","6","150","150.43","114.44","35.99","29.38","41.5","14.93","90156","28.75","DUALSPOT-UV-BLUE-GREEN-RED-IR","680660","691751","910592","22.935136","7.106802","0.006879","682000","879370","763203","16.644165","4.874342","0.000314","785157","891470","816169","13.833726","3.928768","-0.009872","788587","912557","861850","11.045125","3.022379","-0.016890","691437","843653","951272","7.572160","1.975579","-0.017066","2468","2787","2931","2294","2303","2306","2157","1971","1897","2035","1802","1715","1715","1570","1519",""
"MA200-0416","21790","61","1","1.10","1.4","2023-05-09T15:23:29","120","2023/05/09","15:23:29","-15.78195971250534","34.99526685476303","5.9","15","30","64","65","-2672","24008","-5492","6","150","149.57","114.04","35.52","29.38","41.6","14.98","90180","28.81","DUALSPOT-UV-BLUE-GREEN-RED-IR","681028","692375","911601","22.988338","7.125808","0.007636","682520","880305","764119","16.685312","4.885833","-0.010264","784707","891178","815984","13.867238","3.938722","-0.004996","788006","912038","861454","11.072083","3.029775","-0.017720","690962","843172","950800","7.589363","1.980176","-0.031330","2740","3142","3323","2674","2398","2283","2439","2326","2281","2371","2089","1982","2107","1808","1702",""
