"Serial number","Datum ID","Session ID","Data format version","Firmware version","App version","Date / time local","Timezone offset (mins)","Date local (yyyy/MM/dd)","Time local (hh:mm:ss)","GPS lat (ddmm.mmmmm)","GPS long (dddmm.mmmmm)","GPS speed (km/h)","GPS sat count","Timebase (s)","Status","Battery remaining (%)","Accel X","Accel Y","Accel Z","Tape position","Flow setpoint (mL/min)","Flow total (mL/min)","Flow1 (mL/min)","Flow2 (mL/min)","Sample temp (C)","Sample RH (%)","Sample dewpoint (C)","Internal pressure (Pa)","Internal temp (C)","Optical config","UV Sen1","UV Sen2","UV Ref","UV ATN1","UV ATN2","UV K","Blue Sen1","Blue Sen2","Blue Ref","Blue ATN1","Blue ATN2","Blue K","Green Sen1","Green Sen2","Green Ref","Green ATN1","Green ATN2","Green K","Red Sen1","Red Sen2","Red Ref","Red ATN1","Red ATN2","Red K","IR Sen1","IR Sen2","IR Ref","IR ATN1","IR ATN2","IR K","UV BC1","UV BC2","UV BCc","Blue BC1","Blue BC2","Blue BCc","Green BC1","Green BC2","Green BCc","Red BC1","Red BC2","Red BCc","IR BC1","IR BC2","IR BCc","Readable status"
"MA200-0420","25611","59","1","1.10","1.4","2023-05-19T09:11:00","120","2023/05/19","09:11:00","0","0","0.0","0","30","194","92","-23066","629","8645","14","150","171.23","133.74","37.49","25.03","59.2","16.51","89584","24.44","DUALSPOT-UV-BLUE-GREEN-RED-IR","858482","753783","965426","0.000000","0.000000","0.000000","897204","899651","833372","0.000000","0.000000","0.000000","876509","875504","828637","0.000000","0.000000","0.000000","832140","818682","827175","0.000000","0.000000","0.000000","765782","881822","948692","0.000000","0.000000","0.000000","","","","","","","","","","","","","","","","Start up-Flow unstable"
"MA200-0420","25612","59","1","1.10","1.4","2023-05-19T09:11:30","120","2023/05/19","09:11:30","0","0","0.0","0","30","66","91","-22860","5600","3900","14","150","149.67","115.46","34.21","25.13","59.7","16.74","89572","24.81","DUALSPOT-UV-BLUE-GREEN-RED-IR","814206","715632","916519","0.000000","0.000000","0.000000","898347","901227","834870","0.000000","0.000000","0.000000","876639","876028","829116","0.000000","0.000000","0.000000","899235","884992","894223","0.000000","0.000000","0.000000","781104","899948","967944","0.000000","0.000000","0.000000","","","","","","","","","","","","","","","","Start up"
"MA200-0420","25613","59","1","1.10","1.4","2023-05-19T09:12:00","120","2023/05/19","09:12:00","0","0","0.0","0","30","66","91","-22004","1440","9976","14","150","149.69","116.03","33.66","25.20","60.1","16.91","89576","25.06","DUALSPOT-UV-BLUE-GREEN-RED-IR","806069","709054","908354","0.000000","0.000000","0.000000","904012","907281","840649","0.000000","0.000000","0.000000","880937","880602","833586","0.000000","0.000000","0.000000","896557","882602","891952","0.000000","0.000000","0.000000","779386","898195","966126","0.000000","0.000000","0.000000","","","","","","","","","","","","","","","","Start up"
"MA200-0420","25614","59","1","1.10","1.4","2023-05-19T09:12:30","120","2023/05/19","09:12:30","0","0","0.0","0","30","66","91","-22695","-1575","9366","14","150","149.96","115.84","34.12","25.28","60.1","16.97","89576","25.25","DUALSPOT-UV-BLUE-GREEN-RED-IR","804204","707861","907108","0.000000","0.000000","0.000000","901308","904868","838612","0.000000","0.000000","0.000000","878732","878644","831897","0.000000","0.000000","0.000000","894671","880920","890389","0.000000","0.000000","0.000000","777692","896392","964237","0.000000","0.000000","0.000000","","","","","","","","","","","","","","","","Start up"
"MA200-0420","25615","59","1","1.10","1.4","2023-05-19T09:13:00","120","2023/05/19","09:13:00","0","0","0.0","1","30","66","91","-21956","388","11152","14","150","149.65","116.13","33.51","25.36","60.0","17.04","89572","25.38","DUALSPOT-UV-BLUE-GREEN-RED-IR","801528","706031","905045","0.000000","0.000000","0.000000","897930","901812","835965","0.000000","0.000000","0.000000","881602","881779","835026","0.000000","0.000000","0.000000","891556","878020","887616","0.000000","0.000000","0.000000","780517","899799","968014","0.000000","0.000000","0.000000","","","","","","","","","","","","","","","","Start up"
"MA200-0420","25616","59","1","1.10","1.4","2023-05-19T09:13:30","120","2023/05/19","09:13:30","0","0","0.0","3","30","64","90","-23087","-3541","8241","14","150","150.08","115.50","34.58","25.44","59.7","17.04","89584","25.50","DUALSPOT-UV-BLUE-GREEN-RED-IR","803336","708089","907983","0.000000","0.000000","0.000000","901058","905234","839275","0.000000","0.000000","0.000000","876188","876565","830215","0.000000","0.000000","0.000000","891735","878364","888087","0.000000","0.000000","0.000000","774952","893524","961346","0.000000","0.000000","0.000000","","","","","","","","","","","","","","","",""
"MA200-0420","25617","59","1","1.10","1.4","2023-05-19T09:14:00","120","2023/05/19","09:14:00","0","0","0.0","5","30","64","90","-23228","352","4060","14","150","149.93","115.79","34.15","25.52","59.6","17.09","89572","25.63","DUALSPOT-UV-BLUE-GREEN-RED-IR","798035","706351","907030","0.401016","0.103380","0.000000","896195","903154","838267","0.296771","0.076812","0.000000","877635","880403","834591","0.254946","0.066358","0.000000","888525","877124","887512","0.208944","0.055070","0.000000","777630","898034","966690","0.147033","0.036919","0.000000","20342","17782","20342","19001","16676","19001","18280","16134","18280","18104","16180","18104","17739","15103","17739",""
"MA200-0420","25618","59","1","1.10","1.4","2023-05-19T09:14:30","120","2023/05/19","09:14:30","0","0","0.0","5","30","64","90","-24162","683","7275","14","150","149.89","116.15","33.73","25.61","59.5","17.13","89556","25.69","DUALSPOT-UV-BLUE-GREEN-RED-IR","792636","703248","903855","0.878122","0.226522","0.000000","897747","906278","841724","0.647991","0.168454","0.000000","873342","877379","832237","0.564444","0.147944","0.000000","892060","881714","892593","0.466609","0.123154","0.000000","774188","894877","963555","0.326538","0.080986","0.000000","24126","21441","24126","22416","20139","22416","22122","20079","22122","22256","20248","22256","21588","18249","21588",""
"MA200-0420","25619","59","1","1.10","1.4","2023-05-19T09:15:00","120","2023/05/19","09:15:00","0","0","0.0","6","30","64","90","-23670","41","7900","14","150","149.93","115.87","34.06","25.69","59.2","17.13","89552","25.81","DUALSPOT-UV-BLUE-GREEN-RED-IR","794584","705377","906814","0.967426","0.253692","0.000000","892443","901192","837118","0.702083","0.188237","0.000000","874860","879135","833982","0.608265","0.162297","0.000000","886916","876806","887685","0.501143","0.135101","0.000000","775402","896423","965301","0.353693","0.089407","0.000000","4526","4685","4526","3460","4305","3460","3139","3498","3139","2990","3519","2990","3273","3453","3273",""
"MA200-0420","25620","59","1","1.10","1.4","2023-05-19T09:15:30","120","2023/05/19","09:15:30","0","0","0.0","10","30","64","90","-22816","-364","9144","14","150","149.65","116.78","32.86","25.77","58.9","17.12","89548","25.88","DUALSPOT-UV-BLUE-GREEN-RED-IR","795914","706939","909018","1.042866","0.279102","0.000000","893932","902942","838916","0.747060","0.205194","0.000000","870493","874996","830195","0.645601","0.176155","0.000000","888925","878943","889986","0.530414","0.147496","0.000000","772506","893229","961895","0.376342","0.096417","0.000000","3794","4541","3794","2855","3825","2855","2654","3501","2654","2514","3784","2514","2709","2979","2709",""
"MA200-0420","25621","59","1","1.10","1.4","2023-05-19T09:16:00","120","2023/05/19","09:16:00","0","0","0.0","10","30","64","90","-17170","-1600","-18275","14","150","149.41","115.46","33.95","25.86","58.6","17.13","89544","25.94","DUALSPOT-UV-BLUE-GREEN-RED-IR","797243","708472","911185","1.115633","0.298694","0.000000","896457","905771","841584","0.788455","0.216895","0.000000","871558","876258","831441","0.679016","0.186920","0.000000","890002","880197","891309","0.558046","0.156079","0.000000","772019","892817","961521","0.397468","0.101616","0.000000","3701","3390","3701","2657","2555","2657","2402","2632","2402","2401","2536","2401","2555","2139","2555",""
"MA200-0420","25622","59","1","1.10","1.4","2023-05-19T09:16:30","120","2023/05/19","09:16:30","0","0","0.0","3","30","64","90","-25472","-348","-6152","14","150","149.44","115.70","33.74","25.95","58.4","17.15","89528","26.00","DUALSPOT-UV-BLUE-GREEN-RED-IR","792916","705051","906962","1.195233","0.320348","0.000000","891482","901045","837338","0.833797","0.229960","0.000000","873422","878366","833520","0.715351","0.196802","0.000000","891865","882219","893419","0.585327","0.163986","0.000000","773718","894893","963834","0.417970","0.106405","0.000000","4041","3769","4041","2905","2870","2905","2607","2431","2607","2365","2351","2365","2475","1983","2475",""
"MA200-0420","25623","59","1","1.10","1.4","2023-05-19T09:17:00","120","2023/05/19","09:17:00","0","0","0.0","3","30","64","90","-24160","204","-9924","14","150","150.34","115.84","34.51","25.96","58.3","17.13","89524","26.19","DUALSPOT-UV-BLUE-GREEN-RED-IR","791015","703770","905488","1.268541","0.336278","0.000000","889788","899648","836113","0.874978","0.238013","0.000000","871363","876527","831854","0.749254","0.202805","0.000000","888684","879219","890444","0.610120","0.169611","0.000000","776533","898292","967520","0.435762","0.108947","0.000000","3717","2711","3717","2635","1729","2635","2429","1444","2429","2147","1635","2147","2145","1029","2145",""
"MA200-0420","25624","59","1","1.10","1.4","2023-05-19T09:17:30","120","2023/05/19","09:17:30","0","0","0.0","3","30","64","90","-24572","4360","-2852","14","150","149.34","115.46","33.88","26.06","58.3","17.22","89476","26.31","DUALSPOT-UV-BLUE-GREEN-RED-IR","794165","707218","910104","1.376155","0.357112","0.000000","894043","904412","840598","0.932276","0.246364","0.000000","869312","874822","830247","0.793212","0.207704","0.000000","886477","877293","888529","0.642660","0.173426","0.000000","774486","896150","965221","0.461551","0.111811","0.000000","5474","3611","5474","3678","1827","3678","3160","1200","3160","2827","1129","2827","3120","1180","3120",""
"MA200-0420","25625","59","1","1.10","1.4","2023-05-19T09:18:00","120","2023/05/19","09:18:00","0","0","0.0","3","30","64","89","-24920","1870","650","14","150","150.08","115.92","34.17","26.16","58.2","17.30","89420","26.44","DUALSPOT-UV-BLUE-GREEN-RED-IR","788629","704597","907775","1.758547","0.454767","0.000000","888036","900536","837699","1.210349","0.315177","0.000000","870483","877866","833715","1.031559","0.267738","0.000000","882367","874733","886440","0.835445","0.221937","0.000000","771523","893759","962995","0.590465","0.141681","0.000000","19376","16786","19376","17784","14929","17784","17071","14586","17071","16685","14243","16685","15536","12211","15536",""
"MA200-0420","25626","59","1","1.10","1.4","2023-05-19T09:18:30","120","2023/05/19","09:18:30","0","0","0.0","3","30","64","89","-25428","-628","-200","14","150","149.87","116.29","33.59","26.24","58.1","17.36","89472","26.56","DUALSPOT-UV-BLUE-GREEN-RED-IR","783643","701277","903964","2.036693","0.526315","0.000000","883215","896631","834363","1.408767","0.365936","0.000000","866554","874761","831028","1.202178","0.309235","0.000000","882901","875955","887888","0.974212","0.257310","0.000000","772453","895378","964901","0.687767","0.163864","0.000000","14048","12512","14048","12649","11203","12649","12181","10257","12181","11972","10566","11972","11688","9226","11688",""
"MA200-0420","25627","59","1","1.10","1.4","2023-05-19T09:19:00","120","2023/05/19","09:19:00","0","0","0.0","3","30","64","89","-24233","137","3966","14","150","149.84","115.88","33.96","26.33","58.2","17.44","89532","26.69","DUALSPOT-UV-BLUE-GREEN-RED-IR","787149","705102","909233","2.146951","0.552961","0.000000","887749","901880","839406","1.479125","0.380987","0.000000","869253","877961","834221","1.259672","0.320250","0.000000","880808","874265","886324","1.019943","0.266144","0.000000","774902","898509","968379","0.720544","0.168246","0.000000","5588","4608","5588","4501","3285","4501","4119","2693","4119","3959","2609","3959","3951","1802","3951",""
"MA200-0420","25628","59","1","1.10","1.4","2023-05-19T09:19:30","120","2023/05/19","09:19:30","0","0","0.0","3","30","64","89","-25462","-891","-1895","14","150","149.84","115.61","34.22","26.42","58.0","17.49","89544","26.81","DUALSPOT-UV-BLUE-GREEN-RED-IR","781038","701377","905125","2.467691","0.631860","0.000000","881638","897032","835314","1.682615","0.429362","0.000000","864325","874123","830882","1.429247","0.359970","0.000000","882899","877216","889585","1.151569","0.296638","0.000000","770889","894460","964187","0.810293","0.188083","0.000000","16294","13541","16294","13048","10479","13048","12177","9636","12177","11422","8939","11422","10844","8097","10844",""
"MA200-0420","25629","59","1","1.10","1.4","2023-05-19T09:20:00","120","2023/05/19","09:20:00","0","0","0.0","3","30","64","89","-25516","-1291","1266","14","150","149.82","115.84","33.98","26.52","57.9","17.55","89608","26.94","DUALSPOT-UV-BLUE-GREEN-RED-IR","782307","704319","909664","2.790947","0.708929","0.000000","884469","901350","839737","1.879912","0.474083","0.000000","866048","877025","833978","1.589697","0.394374","0.000000","878466","873661","886259","1.274771","0.324214","0.000000","772562","897002","967053","0.891143","0.204454","0.000000","16390","13319","16390","12626","9755","12626","11499","8404","11499","10670","8141","10670","9750","6729","9750",""
"MA200-0420","25630","59","1","1.10","1.4","2023-05-19T09:20:30","120","2023/05/19","09:20:30","0","0","0.0","3","30","64","89","-25666","-533","2437","14","150","149.91","116.01","33.90","26.61","57.8","17.60","89648","27.06","DUALSPOT-UV-BLUE-GREEN-RED-IR","771381","698477","903992","3.462628","0.883123","-0.051306","880915","901502","841063","2.352976","0.593054","0.000000","858307","872245","830406","1.987099","0.494825","0.000000","877586","875276","888742","1.589430","0.402283","0.000000","767250","892527","962834","1.096624","0.252943","0.000000","34006","30185","28876","30229","26019","30229","28439","24604","28439","27211","23107","27211","24742","19983","24742",""
"MA200-0420","25631","59","1","1.10","1.4","2023-05-19T09:21:00","120","2023/05/19","09:21:00","0","0","0.0","3","30","64","89","-25200","-1300","2088","14","150","150.52","116.14","34.38","26.71","57.9","17.73","89664","27.13","DUALSPOT-UV-BLUE-GREEN-RED-IR","771896","702521","910720","4.217737","1.072225","-0.061678","875935","899695","840300","2.892011","0.722551","0.000000","859042","875743","834521","2.449751","0.604015","0.000000","872509","872400","886510","1.962415","0.491895","0.000000","768613","895603","966624","1.344965","0.311528","0.000000","38187","32308","30304","34406","27924","34406","33072","26369","33072","32219","26151","32219","29870","23805","29870",""
"MA200-0420","25632","59","1","1.10","1.4","2023-05-19T09:21:30","120","2023/05/19","09:21:30","0","0","0.0","5","30","64","88","-22279","562","8095","14","150","149.37","115.61","33.76","26.81","57.9","17.82","89668","27.25","DUALSPOT-UV-BLUE-GREEN-RED-IR","762900","697286","905377","4.828176","1.234544","-0.028266","867202","893110","835003","3.286034","0.823509","-0.059486","852230","870783","830475","2.779907","0.687146","0.000000","872661","874119","888770","2.218712","0.555490","0.000000","763611","890835","961761","1.506279","0.345602","0.000000","31013","28241","27288","25265","22169","21134","23709","20444","23709","22241","18899","22241","19491","14099","19491",""
"MA200-0420","25633","59","1","1.10","1.4","2023-05-19T09:22:00","120","2023/05/19","09:22:00","0","0","0.0","6","30","64","89","-23836","119","8372","14","150","149.59","115.46","34.12","26.91","57.6","17.84","89676","27.44","DUALSPOT-UV-BLUE-GREEN-RED-IR","764994","700829","910808","5.174638","1.333896","-0.008058","870291","897567","839570","3.494644","0.881248","-0.026543","854640","874292","834149","2.952778","0.734818","0.000000","869840","872053","886963","2.353020","0.591952","0.000000","766149","894312","965715","1.591611","0.366647","0.000000","17624","17101","16919","13393","12543","12256","12430","11598","12430","11670","10720","11670","10324","8615","10324",""
"MA200-0420","25634","59","1","1.10","1.4","2023-05-19T09:22:30","120","2023/05/19","09:22:30","0","0","0.0","5","30","64","89","-22952","516","8320","14","150","150.08","115.54","34.55","27.01","57.5","17.91","89688","27.56","DUALSPOT-UV-BLUE-GREEN-RED-IR","757164","696664","906774","5.731783","1.482065","-0.030582","864159","893651","836611","3.830623","0.963854","-0.081304","849047","870495","831094","3.230166","0.800842","-0.115200","870148","873868","889256","2.566550","0.643880","0.000000","765965","895065","966851","1.728567","0.397584","0.000000","28323","25191","24099","21557","17726","16438","19932","15867","14526","18541","15080","18541","16559","12509","16559",""
"MA200-0420","25635","59","1","1.10","1.4","2023-05-19T09:23:00","120","2023/05/19","09:23:00","0","0","0.0","7","30","64","88","-23136","16","8928","14","150","149.74","115.67","34.07","27.13","57.4","18.00","0","0.00","DUALSPOT-UV-BLUE-GREEN-RED-IR","745751","694275","907974","7.290127","1.930664","-0.004368","857181","892248","837312","4.673969","1.190632","-0.028306","843766","869479","831640","3.872198","0.966984","-0.049884","867176","874059","890560","3.022569","0.760446","-0.070966","759835","889675","961603","1.968591","0.453330","0.000000","79132","77337","76690","54051","49344","47735","46083","40486","38623","39554","34325","32568","28988","22856","28988",""
"MA200-0420","25636","59","1","1.10","1.4","2023-05-19T09:23:30","120","2023/05/19","09:23:30","0","0","0.0","7","30","64","88","-23204","516","9016","14","150","149.47","115.35","34.12","27.27","57.4","18.13","0","0.00","DUALSPOT-UV-BLUE-GREEN-RED-IR","741632","692536","906729","7.720369","2.048496","-0.014519","852663","889736","835672","4.975962","1.264619","-0.060091","840644","868137","830976","4.129881","1.030552","-0.068746","863851","872275","889319","3.228167","0.810506","-0.095730","762005","893404","965984","2.105219","0.483250","0.000000","21908","20285","19699","19408","16076","14941","18546","15469","14445","17882","14720","13660","16546","12250","16546",""
"MA200-0420","25637","59","1","1.10","1.4","2023-05-19T09:24:00","120","2023/05/19","09:24:00","0","0","0.0","8","30","64","88","-22224","104","9740","14","150","149.69","115.72","33.97","27.41","57.5","18.27","89744","28.06","DUALSPOT-UV-BLUE-GREEN-RED-IR","737958","690500","904809","8.073324","2.147068","-0.008808","855833","894513","840614","5.252003","1.334059","-0.045215","842201","871047","834122","4.377395","1.090347","-0.070517","859624","869080","886371","3.436338","0.861380","-0.083819","759015","890690","963302","2.252710","0.516055","0.000000","17915","17042","16725","17684","15152","14290","17758","14612","13569","18048","15024","14012","17805","13489","17805",""
"MA200-0420","25638","59","1","1.10","1.4","2023-05-19T09:24:30","120","2023/05/19","09:24:30","0","0","0.0","9","30","64","88","-21837","520","10104","14","150","149.50","115.64","33.86","27.55","57.4","18.39","89772","28.19","DUALSPOT-UV-BLUE-GREEN-RED-IR","736061","691166","907006","8.492172","2.268165","-0.002053","848347","888918","836094","5.553550","1.413369","-0.028454","835913","866349","830225","4.634780","1.156920","-0.039704","861124","872066","889952","3.646003","0.915930","-0.047945","758667","891322","964335","2.397876","0.550545","0.000000","21274","21007","20909","19331","17364","16693","18478","16323","15606","18190","16163","15483","17536","14229","17536",""
"MA200-0420","25639","59","1","1.10","1.4","2023-05-19T09:25:00","120","2023/05/19","09:25:00","0","0","0.0","9","30","64","88","-22366","-437","9595","14","150","149.81","115.09","34.72","27.70","57.4","18.50","89784","28.31","DUALSPOT-UV-BLUE-GREEN-RED-IR","730464","689419","906514","9.322256","2.506651","-0.007469","849839","893801","841828","6.129896","1.568228","-0.028083","836321","869625","834295","5.128628","1.285523","-0.043524","854802","867966","886602","4.042957","1.018726","-0.057726","755274","888954","962320","2.658493","0.613009","0.000000","42363","40347","39606","37124","33067","31672","35625","30754","29124","34604","29706","28056","31633","25134","31633",""
"MA200-0420","25640","59","1","1.10","1.4","2023-05-19T09:25:30","120","2023/05/19","09:25:30","-15.776592016220093","35.035689659416676","1.0","11","30","64","88","-22576","632","10736","14","150","149.94","115.75","34.19","27.84","57.2","18.59","89792","28.44","DUALSPOT-UV-BLUE-GREEN-RED-IR","726182","686397","903144","9.555861","2.575964","0.000635","844546","889143","837747","6.285375","1.608842","-0.029291","834628","868616","833633","5.260920","1.319521","-0.039907","859582","873435","892385","4.149566","1.046186","-0.049777","758532","893227","967126","2.734525","0.630651","0.000000","11853","11906","11926","9957","8805","8409","9488","8255","7842","9240","8057","7658","9176","7207","9176",""
"MA200-0420","25641","59","1","1.10","1.4","2023-05-19T09:26:00","120","2023/05/19","09:26:00","-15.776449143886566","35.03542799130082","1.1","8","30","64","88","-23108","404","7843","14","150","149.72","115.61","34.11","28.00","57.0","18.69","89804","28.63","DUALSPOT-UV-BLUE-GREEN-RED-IR","728085","688917","906899","9.714960","2.626670","0.010214","841196","886258","835309","6.391960","1.639819","-0.003184","831066","865432","830785","5.350703","1.345104","-0.008923","855874","870082","889139","4.223455","1.067014","-0.014973","755066","889497","963197","2.788086","0.643067","0.000000","8083","8732","8973","6834","6733","6698","6447","6227","6153","6412","6127","6030","6471","5085","6471",""
"MA200-0420","25642","59","1","1.10","1.4","2023-05-19T09:26:30","120","2023/05/19","09:26:30","-15.776303112506866","35.03513466194272","1.2","8","30","72","88","-24595","516","6225","14","150","149.77","115.20","34.58","28.15","56.6","18.70","89808","28.75","DUALSPOT-UV-BLUE-GREEN-RED-IR","725763","687123","904921","9.819160","2.667398","0.029869","844872","890448","839486","6.459087","1.667833","0.053392","778763","811262","778921","5.408347","1.367074","0.049060","852997","867384","886594","4.270610","1.086640","0.079977","757622","892799","966838","2.827871","0.653086","0.000000","5312","6918","7517","4319","6006","6593","4154","5275","5654","4106","5695","6237","4824","4047","4824",""
"MA200-0420","25643","59","1","1.10","1.4","2023-05-19T09:27:00","120","2023/05/19","09:27:00","-15.776137888431549","35.03489015623927","0.9","10","30","64","88","-23758","262","6391","14","150","149.59","115.35","34.24","28.29","56.2","18.74","89796","28.88","DUALSPOT-UV-BLUE-GREEN-RED-IR","725921","688542","907437","10.034309","2.728677","-0.005855","839190","885545","835229","6.596547","1.703185","-0.033281","829316","864790","830597","5.520803","1.394945","-0.051321","853119","868236","887657","4.356269","1.108087","-0.060965","752805","887593","961348","2.889024","0.667958","0.000000","10955","10512","10347","8834","7654","7244","8094","6758","6307","7450","6284","5886","7406","6068","7406",""
"MA200-0420","25644","59","1","1.10","1.4","2023-05-19T09:27:30","120","2023/05/19","09:27:30","-15.77599948644638","35.03464715927839","1.1","10","30","64","88","-24380","-656","4216","14","150","149.36","115.34","34.03","28.43","56.0","18.81","89776","29.06","DUALSPOT-UV-BLUE-GREEN-RED-IR","723441","687624","906955","10.341536","2.814716","-0.007248","843459","891306","841053","6.800944","1.755971","-0.029693","831691","868301","834316","5.693376","1.437652","-0.048285","850989","866876","886536","4.493071","1.141471","-0.067114","755526","891404","965691","2.982633","0.687070","0.000000","15645","14851","14554","13137","11500","10930","12422","10420","9743","11900","9843","9142","11337","7846","11337",""
"MA200-0420","25645","59","1","1.10","1.4","2023-05-19T09:28:00","120","2023/05/19","09:28:00","-15.77580738067627","35.03436965867877","1.4","10","30","64","88","-22296","176","7092","14","150","149.56","114.85","34.71","28.59","55.9","18.93","89764","29.19","DUALSPOT-UV-BLUE-GREEN-RED-IR","717612","684291","903684","10.750452","2.929256","-0.010408","837932","887159","837662","7.030553","1.811975","-0.049967","828266","866119","832592","5.877950","1.480204","-0.078981","854445","871476","891543","4.634922","1.172904","-0.119904","752593","888771","963013","3.081165","0.705862","-0.297964","20912","19381","18808","14820","11960","10967","13342","10177","9112","12391","9085","7965","11984","7562","6248",""
"MA200-0420","25646","59","1","1.10","1.4","2023-05-19T09:28:30","120","2023/05/19","09:28:30","-15.77564412355423","35.03409232571721","1.0","9","30","64","88","-22696","-12","8764","14","150","149.77","115.31","34.46","28.72","55.8","19.00","89756","29.38","DUALSPOT-UV-BLUE-GREEN-RED-IR","707812","683802","908190","12.293991","3.392431","0.000454","828604","887529","841986","8.367917","2.196288","-0.006574","814163","860516","830767","7.097037","1.823080","-0.012130","840888","865693","888905","5.696760","1.467996","-0.018308","747877","889503","966277","3.869983","0.911545","-0.051733","78623","78942","79064","85978","82672","81495","87773","82603","80816","92386","85909","83660","95562","83376","79621",""
"MA200-0420","25647","59","1","1.10","1.4","2023-05-19T09:29:00","120","2023/05/19","09:29:00","-15.77545028924942","35.03380199149251","0.9","9","30","64","88","-23450","283","9820","14","150","149.95","115.48","34.47","28.87","55.5","19.07","89760","29.50","DUALSPOT-UV-BLUE-GREEN-RED-IR","700142","680528","906132","13.484350","3.747497","-0.000071","821000","883623","839847","9.326792","2.471274","-0.006046","812418","862393","833913","7.968972","2.068490","-0.010481","839509","867542","892010","6.447776","1.673938","-0.019136","742351","885376","962668","4.413599","1.048654","-0.057832","60544","60502","60485","61554","59139","58269","62686","59108","57853","65246","59940","58080","65760","55565","52388",""
"MA200-0420","25648","59","1","1.10","1.4","2023-05-19T09:29:30","120","2023/05/19","09:29:30","-15.77523410320282","35.0335038267076","1.2","8","30","64","87","-21788","652","10352","14","150","149.90","115.31","34.59","29.01","55.1","19.09","89776","29.63","DUALSPOT-UV-BLUE-GREEN-RED-IR","698577","680833","907587","13.866798","3.865554","0.002803","813951","877474","834527","9.563039","2.537608","-0.009958","811577","862785","834757","8.170839","2.122450","-0.021088","833075","861898","886568","6.613975","1.717567","-0.030657","741648","885384","962893","4.538725","1.075771","-0.125916","19480","20048","20268","15188","14218","13867","14534","12952","12397","14460","12655","12022","15158","10952","9645",""
"MA200-0420","25649","59","1","1.10","1.4","2023-05-19T09:30:00","120","2023/05/19","09:30:00","-15.775063872337341","35.03321132808924","1.2","9","30","64","87","-21916","1268","10292","14","150","150.62","115.83","34.79","29.14","54.7","19.09","89800","29.69","DUALSPOT-UV-BLUE-GREEN-RED-IR","692191","677980","905686","14.528454","4.059049","-0.002614","815565","881580","839209","9.906238","2.622723","-0.031367","808100","860997","833546","8.450479","2.187467","-0.051889","836317","866826","892107","6.835883","1.766991","-0.078276","743758","889109","967232","4.693990","1.103168","-0.249347","33550","32666","32323","21964","18136","16757","20043","15514","13933","19220","14252","12520","18725","11000","8627",""
"MA200-0420","25650","59","1","1.10","1.4","2023-05-19T09:30:30","120","2023/05/19","09:30:30","-15.774888157844543","35.03293399885297","1.1","8","30","64","87","-22760","576","9644","14","150","150.09","115.41","34.68","29.26","54.4","19.09","89828","29.81","DUALSPOT-UV-BLUE-GREEN-RED-IR","692915","680158","909448","14.938591","4.181848","-0.000333","811119","877858","835995","10.111829","2.674710","-0.027159","804605","858172","831083","8.619175","2.225178","-0.061146","831520","862563","887928","6.970330","1.795983","-0.088068","740288","885571","963520","4.794204","1.119950","-0.285265","20873","20798","20770","13206","11113","10360","12135","9028","7947","11687","8387","7242","12130","6760","5123",""
"MA200-0420","25651","59","1","1.10","1.4","2023-05-19T09:31:00","120","2023/05/19","09:31:00","-15.774614870548248","35.03298065811396","1.2","8","30","64","86","-22104","-56","8548","14","150","149.65","115.39","34.26","29.38","53.9","19.08","89828","29.88","DUALSPOT-UV-BLUE-GREEN-RED-IR","686811","674847","902732","15.076370","4.225288","0.005247","810939","878215","836586","10.201276","2.700358","-0.004798","804626","858634","831730","8.693378","2.244896","-0.018992","832285","863771","889318","7.032972","1.810488","-0.059934","740061","885644","963664","4.842359","1.128017","-0.271701","7013","7447","7615","5746","5549","5478","5339","4777","4582","5446","4247","3831","5829","3289","2517",""
"MA200-0420","25652","59","1","1.10","1.4","2023-05-19T09:31:30","120","2023/05/19","09:31:30","-15.774252355098724","35.03310699388385","1.5","8","30","64","87","-22179","-50","8400","14","150","149.77","115.92","33.86","29.49","53.4","19.01","89824","29.88","DUALSPOT-UV-BLUE-GREEN-RED-IR","689265","677970","907397","15.214817","4.271791","0.011340","814093","882252","840729","10.295233","2.733993","0.022824","806217","860931","834120","8.773519","2.269614","0.008000","829131","860926","886576","7.095896","1.831341","0.021643","741692","887940","966302","4.891836","1.140458","-0.045312","7015","8067","8478","6008","7364","7854","5739","6061","6173","5446","6179","6434","5962","5133","4880",""
"MA200-0420","25653","59","1","1.10","1.4","2023-05-19T09:32:00","120","2023/05/19","09:32:00","-15.773959755897522","35.033169995993376","0.8","9","30","64","87","-21756","136","10692","14","150","149.87","115.29","34.58","29.61","52.8","18.96","89832","29.94","DUALSPOT-UV-BLUE-GREEN-RED-IR","684194","674458","903463","15.554647","4.370096","-0.003337","808047","876697","835760","10.467927","2.778935","-0.020986","802011","857161","830760","8.909887","2.304268","-0.029111","829624","862036","887887","7.196308","1.855452","-0.051041","742335","889150","967725","4.959118","1.151536","-0.287100","17312","16698","16458","11104","9635","9104","9819","8320","7797","8737","6995","6390","8152","4475","3363",""
"MA200-0420","25654","59","1","1.10","1.4","2023-05-19T09:32:30","120","2023/05/19","09:32:30","-15.773612976074219","35.03318715840578","1.2","7","30","64","87","-22928","-140","7524","14","150","149.95","115.76","34.19","29.68","52.3","18.88","89832","29.94","DUALSPOT-UV-BLUE-GREEN-RED-IR","683566","674212","903366","15.637211","4.393825","-0.002498","808347","877393","836605","10.532056","2.798855","0.006232","802388","857889","831585","8.963192","2.319866","-0.001426","830455","863165","889162","7.238709","1.866306","-0.030267","742562","889685","968336","4.991800","1.157336","-0.216744","4189","4076","4031","4106","4318","4395","3823","3787","3774","3674","3184","3014","3944","2369","1894",""
"MA200-0420","25655","59","1","1.10","1.4","2023-05-19T09:33:00","120","2023/05/19","09:33:00","-15.773327827453613","35.03315766528249","0.9","7","30","64","86","-22229","1350","9950","14","150","150.21","115.66","34.54","29.76","51.9","18.83","0","0.00","DUALSPOT-UV-BLUE-GREEN-RED-IR","683932","675019","904657","15.721382","4.415806","-0.013467","809205","878710","837958","10.588102","2.812945","-0.025941","802265","858058","831847","9.008443","2.329135","-0.081631","830602","863539","889646","7.273058","1.874792","-0.041745","737789","884163","962367","5.017713","1.159386","-4.325037","4274","3737","3527","3592","3023","2818","3248","2227","1871","2979","2464","2285","3129","829","137",""
"MA200-0420","25656","59","1","1.10","1.4","2023-05-19T09:33:30","120","2023/05/19","09:33:30","-15.773022711277008","35.03305399417877","1.1","7","30","64","86","-22795","687","10062","14","150","149.89","115.95","33.93","29.82","51.5","18.75","0","0.00","DUALSPOT-UV-BLUE-GREEN-RED-IR","682586","675249","905855","15.970852","4.490391","0.001835","808626","879195","838849","10.729506","2.854883","0.001686","801747","858382","832479","9.117451","2.359897","-0.005537","830776","864324","890651","7.348731","1.893350","-0.037965","737758","884516","962841","5.063755","1.166613","-0.299162","12636","12910","13018","9040","9162","9206","7804","7526","7429","6547","5487","5119","5546","2975","2205",""
"MA200-0420","25657","59","1","1.10","1.4","2023-05-19T09:34:00","120","2023/05/19","09:34:00","-15.772726058959961","35.03319499641657","1.1","7","30","64","86","-22804","640","6872","14","150","149.76","115.40","34.35","29.88","51.0","18.64","89840","29.94","DUALSPOT-UV-BLUE-GREEN-RED-IR","682033","675575","906750","16.239323","4.569048","-0.001385","808926","880211","840063","10.876496","2.896964","-0.005065","801254","858384","832622","9.232672","2.389419","-0.025065","830605","864560","891008","7.431403","1.913679","-0.041170","737469","884469","962830","5.109760","1.174712","-0.221263","13664","13448","13363","9442","9080","8949","8289","7134","6731","7187","5937","5503","5568","3293","2613",""
"MA200-0420","25658","59","1","1.10","1.4","2023-05-19T09:34:30","120","2023/05/19","09:34:30","-15.772493243217468","35.03343032673001","1.2","7","30","64","86","-23392","1372","8192","14","150","149.74","115.79","33.95","29.92","50.6","18.55","89828","29.94","DUALSPOT-UV-BLUE-GREEN-RED-IR","681985","675803","907160","16.288586","4.580585","-0.023852","808987","880489","840461","10.915509","2.908772","0.003878","801350","858698","832990","9.263792","2.397955","-0.010284","830819","864885","891427","7.451839","1.919638","-0.000983","737352","884481","962836","5.127937","1.176321","-1.877248","2498","1996","1799","2497","2578","2608","2231","2087","2037","1770","1761","1757","2192","662","206",""
"MA200-0420","25659","59","1","1.10","1.4","2023-05-19T09:35:00","120","2023/05/19","09:35:00","-15.772275865077972","35.033656161278486","1.3","9","30","64","86","-24858","833","5791","14","150","149.89","115.24","34.64","29.96","50.1","18.45","89804","29.94","DUALSPOT-UV-BLUE-GREEN-RED-IR","682950","676985","908901","16.344494","4.594848","-0.016309","808820","880574","840650","10.958701","2.922046","0.002702","802213","859798","834168","9.299361","2.407855","-0.011935","824929","858948","885344","7.480095","1.926125","-0.062377","737967","885358","963836","5.147413","1.177786","-6.753452","2849","2418","2249","2778","2840","2863","2562","2372","2306","2459","1878","1677","2360","591","66",""
"MA200-0420","25660","59","1","1.10","1.4","2023-05-19T09:35:30","120","2023/05/19","09:35:30","-15.77216923236847","35.03394182398915","1.2","9","30","64","86","-24652","1172","1788","14","150","149.63","115.44","34.18","30.00","49.8","18.36","89780","29.94","DUALSPOT-UV-BLUE-GREEN-RED-IR","683254","677546","909741","16.393129","4.606241","-0.024988","809242","881285","841399","10.997313","2.931833","-0.022217","802192","860006","834423","9.330813","2.415150","-0.044269","831736","866220","892853","7.503690","1.932490","-0.018169","737718","885188","963672","5.164680","1.179629","-0.938656","2474","1957","1755","2479","2122","1992","2261","1771","1600","2050","1867","1804","2089","752","357",""
"MA200-0420","25661","59","1","1.10","1.4","2023-05-19T09:36:00","120","2023/05/19","09:36:00","-15.772104024887085","35.034154657274485","0.1","9","30","64","86","-22437","-854","10170","14","150","149.84","115.73","34.11","30.03","49.5","18.29","89768","29.94","DUALSPOT-UV-BLUE-GREEN-RED-IR","681624","676112","907872","16.427208","4.613796","-0.032008","807884","879973","840170","11.022141","2.937525","-0.039396","800875","858712","833212","9.351213","2.419698","-0.052340","829315","863775","890400","7.519315","1.935009","-0.207964","736579","883921","962269","5.175552","1.179526","0.766888","1729","1300","1133","1590","1237","1108","1463","1106","982","1354","740","528","1312","-42","-442",""
"MA200-0420","25662","59","1","1.10","1.4","2023-05-19T09:36:30","120","2023/05/19","09:36:30","-15.772044062614441","35.034347493201494","1.4","10","30","64","86","-22729","-16","8145","14","150","150.22","115.65","34.56","30.06","49.3","18.26","89768","30.00","DUALSPOT-UV-BLUE-GREEN-RED-IR","683184","677852","910331","16.463655","4.619734","-0.104455","802754","874558","835092","11.051761","2.943581","-0.068414","802074","860196","834642","9.373191","2.422064","-0.670048","825460","859915","886408","7.535673","1.936631","-1.186460","737996","885720","964214","5.187914","1.178565","0.498396","1851","1009","680","1898","1298","1081","1577","568","216","1419","470","142","1493","-388","-941",""
"MA200-0420","25663","59","1","1.10","1.4","2023-05-19T09:37:00","120","2023/05/19","09:37:00","-15.77199637889862","35.03463765606284","1.2","10","30","64","85","-24437","1987","6620","14","150","150.28","115.67","34.62","30.08","49.1","18.23","89756","29.94","DUALSPOT-UV-BLUE-GREEN-RED-IR","682360","677265","909570","16.504053","4.628519","-0.037116","801880","873822","834405","11.080236","2.949089","-0.083988","800514","858637","833171","9.395423","2.425974","-0.133195","823432","857917","884375","7.552520","1.939936","-0.114351","736356","883858","962196","5.200878","1.178799","1.087026","2051","1490","1272","1825","1179","945","1595","937","708","1461","958","784","1565","94","-336",""
"MA200-0420","25664","59","1","1.10","1.4","2023-05-19T09:37:30","120","2023/05/19","09:37:30","-15.771972835063934","35.03496166318655","1.2","10","30","64","86","-25462","-179","2895","14","150","149.77","115.50","34.27","30.10","49.0","18.23","89740","30.00","DUALSPOT-UV-BLUE-GREEN-RED-IR","678773","673948","905233","16.549162","4.638174","-0.038183","804128","876455","837003","11.110011","2.955550","-0.051982","802658","861166","835671","9.421046","2.430785","-0.104100","825776","860464","887044","7.571122","1.942541","-0.323811","737818","885766","964254","5.213272","1.177396","0.436341","2293","1654","1405","1911","1397","1211","1841","1165","929","1615","762","468","1499","-571","-1175",""
"MA200-0420","25665","59","1","1.10","1.4","2023-05-19T09:38:00","120","2023/05/19","09:38:00","-15.771917700767517","35.03528765961528","1.2","10","30","64","86","-24608","592","5184","14","150","149.69","115.52","34.17","30.13","49.0","18.24","89720","30.00","DUALSPOT-UV-BLUE-GREEN-RED-IR","679531","674958","906688","16.601072","4.651273","-0.015440","804982","877649","838180","11.144399","2.962106","-0.084196","798376","856778","831447","9.448304","2.434856","-0.211959","827754","862701","889357","7.590960","1.944324","-1.927820","738832","887092","965719","5.227936","1.178994","-0.846381","2639","2251","2100","2206","1422","1138","1958","989","652","1722","523","110","1773","653","326",""
"MA200-0420","25666","59","1","1.10","1.4","2023-05-19T09:38:30","120","2023/05/19","09:38:30","-15.77178943157196","35.03560848906636","1.5","10","30","64","86","-24270","-404","754","14","150","150.60","115.92","34.69","30.17","48.9","18.23","89688","30.06","DUALSPOT-UV-BLUE-GREEN-RED-IR","679902","675512","907523","16.644110","4.662342","-0.014579","805309","878225","838806","11.176563","2.969664","-0.036988","798749","857303","832007","9.474377","2.440518","-0.061821","827491","862545","889246","7.610558","1.949043","-0.046782","738520","886822","965445","5.242271","1.179694","2.580517","2180","1874","1754","2057","1615","1455","1867","1355","1177","1696","1364","1250","1727","281","-137",""
"MA200-0420","25667","59","1","1.10","1.4","2023-05-19T09:39:00","120","2023/05/19","09:39:00","-15.771624326705933","35.03589482232928","1.2","11","30","64","85","-23568","239","3496","14","150","150.15","116.78","33.36","30.18","48.9","18.24","89648","30.06","DUALSPOT-UV-BLUE-GREEN-RED-IR","678722","674533","906268","16.675821","4.669643","-0.022125","804499","877509","838164","11.200727","2.974093","-0.085128","797798","856470","831233","9.495028","2.443028","-0.360195","826265","861377","888076","7.625688","1.951439","-0.195742","737962","886293","964895","5.254570","1.180628","-3.380213","1594","1285","1165","1533","984","785","1468","624","332","1299","720","521","1471","391","78",""
"MA200-0420","25668","59","1","1.10","1.4","2023-05-19T09:39:30","120","2023/05/19","09:39:30","-15.771539628505707","35.03607649356127","0.7","10","30","64","86","-23225","-1116","7758","14","150","149.90","115.39","34.51","30.21","48.8","18.25","89632","30.06","DUALSPOT-UV-BLUE-GREEN-RED-IR","679746","675964","908441","16.757797","4.693590","-0.001996","804977","878369","839082","11.248205","2.987188","-0.010531","798844","857841","832642","9.532779","2.452731","-0.024487","828568","863978","890818","7.657145","1.959071","-0.044397","739170","887888","966646","5.276859","1.183392","-0.582941","4172","4075","4037","3050","2813","2727","2716","2334","2202","2735","2218","2041","2698","1118","662",""
"MA200-0420","25669","59","1","1.10","1.4","2023-05-19T09:40:00","120","2023/05/19","09:40:00","-15.77142733335495","35.03631682321429","1.0","11","30","64","85","-23252","200","9464","14","150","149.84","115.76","34.07","30.24","48.7","18.23","89620","30.13","DUALSPOT-UV-BLUE-GREEN-RED-IR","678910","675409","907813","16.820514","4.710779","-0.006279","805341","879014","839775","11.288084","2.996725","-0.030354","798165","857333","832194","9.565660","2.459419","-0.074420","826922","862457","889287","7.683089","1.965266","-0.044208","737982","886651","965323","5.298641","1.187416","-0.174150","3182","2963","2878","2553","2075","1902","2358","1629","1377","2248","1824","1678","2628","1649","1367",""
"MA200-0420","25670","59","1","1.10","1.4","2023-05-19T09:40:30","120","2023/05/19","09:40:30","-15.77131187915802","35.0365503244102","0.9","11","30","64","86","-24720","328","6052","14","150","150.15","115.72","34.43","30.27","48.6","18.25","89600","30.13","DUALSPOT-UV-BLUE-GREEN-RED-IR","679866","676590","909554","16.865364","4.723795","-0.002096","799660","873016","834114","11.319910","3.005504","-0.009720","799224","858639","833534","9.592260","2.465999","-0.030590","823114","858609","885369","7.703294","1.970183","-0.042050","739414","888476","967341","5.314245","1.188103","2.124318","2276","2220","2198","2038","1890","1836","1908","1586","1475","1751","1432","1323","1883","278","-183",""
"MA200-0420","25671","59","1","1.10","1.4","2023-05-19T09:41:00","120","2023/05/19","09:41:00","-15.771172523498535","35.03679732605815","1.1","10","30","64","85","-22024","4084","2480","14","150","149.41","115.01","34.40","30.31","48.5","18.25","89576","30.19","DUALSPOT-UV-BLUE-GREEN-RED-IR","675961","672979","904901","16.927992","4.743923","0.005544","800811","874538","835709","11.365801","3.019506","0.002339","800329","860084","834997","9.629500","2.476168","-0.013790","824193","859903","886801","7.732173","1.978284","-0.011779","735726","884198","962689","5.333620","1.191882","-0.152242","3198","3436","3529","2958","3017","3038","2688","2454","2373","2519","2362","2308","2353","1534","1298",""
"MA200-0420","25672","59","1","1.10","1.4","2023-05-19T09:41:30","120","2023/05/19","09:41:30","-15.77092331647873","35.03701316192746","0.7","10","30","64","85","-24148","1160","3140","14","150","150.15","115.61","34.53","30.34","48.4","18.22","89544","30.19","DUALSPOT-UV-BLUE-GREEN-RED-IR","675030","672409","904289","16.997808","4.762710","-0.009393","800401","874380","835665","11.413419","3.032171","-0.015354","799631","859577","834611","9.671184","2.486420","-0.032242","822739","858585","885503","7.763947","1.987012","-0.015589","734991","883444","961943","5.357033","1.196554","-0.139327","3546","3195","3058","3053","2718","2598","2993","2464","2281","2757","2535","2459","2828","1889","1619",""
"MA200-0420","25673","59","1","1.10","1.4","2023-05-19T09:42:00","120","2023/05/19","09:42:00","-15.770532965660095","35.036994490772486","1.5","10","30","64","85","-25950","1029","1775","14","150","149.57","115.35","34.22","30.37","48.2","18.21","89516","30.25","DUALSPOT-UV-BLUE-GREEN-RED-IR","677273","674834","907639","17.042768","4.776306","0.001528","802463","876867","838116","11.447338","3.043300","0.011005","797489","857428","832582","9.697638","2.494222","-0.000827","826032","862170","889229","7.783797","1.991647","-0.051515","737046","886082","964792","5.373319","1.197216","1.871149","2289","2333","2350","2179","2410","2494","1904","1892","1888","1726","1358","1232","1972","270","-217",""
"MA200-0420","25674","59","1","1.10","1.4","2023-05-19T09:42:30","120","2023/05/19","09:42:30","-15.770171046257019","35.03705848753452","1.5","10","30","64","85","-25641","1462","3854","14","150","150.07","115.19","34.88","30.39","48.1","18.17","89480","30.31","DUALSPOT-UV-BLUE-GREEN-RED-IR","675795","673711","906339","17.110668","4.796716","-0.000586","801591","876207","837620","11.496090","3.057265","-0.006888","795121","855099","830465","9.737943","2.506566","0.001578","823881","860125","887222","7.816089","2.000574","-0.016936","735264","884094","962679","5.395090","1.201109","-0.206053","3462","3437","3427","3137","2968","2907","2904","2938","2950","2812","2567","2483","2640","1559","1250",""
"MA200-0420","25675","59","1","1.10","1.4","2023-05-19T09:43:00","120","2023/05/19","09:43:00","-15.76995301246643","35.03719365596771","1.3","10","30","64","85","-24272","-456","5652","14","150","149.63","115.60","34.03","30.42","47.9","18.15","89456","30.31","DUALSPOT-UV-BLUE-GREEN-RED-IR","677184","675510","908975","17.194798","4.820949","-0.001783","803790","878997","840450","11.558589","3.076136","0.002939","796693","857148","832558","9.791816","2.521062","-0.013352","825811","862383","889636","7.856801","2.011641","-0.014582","736860","886206","965047","5.423755","1.207665","-0.074194","4274","4183","4147","4007","4111","4148","3869","3536","3421","3533","3263","3170","3464","2691","2470",""
"MA200-0420","25676","59","1","1.10","1.4","2023-05-19T09:43:30","120","2023/05/19","09:43:30","-15.769955217838287","35.037437818944454","1.0","11","30","64","85","-25366","2745","-4333","14","150","149.50","115.01","34.49","30.45","47.8","18.14","89460","30.31","DUALSPOT-UV-BLUE-GREEN-RED-IR","677502","676287","910246","17.273382","4.842851","-0.006304","797454","872447","834295","11.606822","3.088033","-0.027490","797466","858309","833745","9.831772","2.531153","-0.027464","826332","863174","890487","7.885699","2.017630","-0.090019","737321","886925","965863","5.442194","1.210106","-0.468266","4013","3729","3619","3109","2557","2357","2884","2429","2271","2520","1742","1474","2239","988","631",""
"MA200-0420","25677","59","1","1.10","1.4","2023-05-19T09:44:00","120","2023/05/19","09:44:00","-15.769804179668427","35.03758482635021","1.1","11","30","64","85","-23936","292","6884","14","150","149.35","115.05","34.30","30.47","47.7","18.12","89444","30.31","DUALSPOT-UV-BLUE-GREEN-RED-IR","675213","674311","907772","17.359788","4.865108","-0.013435","801746","877413","839154","11.662913","3.102934","-0.014960","795426","856325","831918","9.876258","2.541667","-0.039216","825279","862262","889629","7.920193","2.025488","-0.058599","736068","885576","964401","5.464304","1.213027","-0.461375","4411","3810","3577","3614","3220","3077","3210","2544","2314","3008","2298","2054","2684","1189","762",""
"MA200-0420","25678","59","1","1.10","1.4","2023-05-19T09:44:30","120","2023/05/19","09:44:30","-15.769732654094696","35.03791315853596","1.1","10","30","64","85","-23460","416","8000","14","150","150.58","115.50","35.08","30.49","47.6","18.10","89436","30.38","DUALSPOT-UV-BLUE-GREEN-RED-IR","676831","676143","910355","17.405714","4.880300","0.006328","797047","872461","834516","11.695544","3.115493","0.022821","796851","858033","833616","9.903863","2.551651","0.020635","826603","863746","891227","7.941643","2.033717","0.032883","737425","887306","966321","5.478832","1.216466","-0.072190","2335","2543","2624","2094","2653","2856","1984","2362","2493","1863","2353","2521","1757","1369","1259",""
"MA200-0420","25679","59","1","1.10","1.4","2023-05-19T09:45:00","120","2023/05/19","09:45:00","-15.769619226455688","35.03825532272458","1.1","10","30","64","85","-23828","3128","5096","14","150","149.44","114.77","34.67","30.52","47.5","18.10","89428","30.38","DUALSPOT-UV-BLUE-GREEN-RED-IR","677361","676848","911421","17.443686","4.891525","-0.001752","797293","872918","834996","11.725103","3.122562","-0.033800","796928","858242","833910","9.928072","2.557438","-0.039342","827727","865097","892659","7.962054","2.038465","-0.056174","737599","887596","966656","5.492923","1.219218","-0.151667","1943","1901","1885","1909","1511","1367","1751","1386","1259","1784","1374","1232","1715","1108","935",""
"MA200-0420","25680","59","1","1.10","1.4","2023-05-19T09:45:30","120","2023/05/19","09:45:30","-15.76953375339508","35.03858432918787","1.0","10","30","64","85","-24476","1976","4624","14","150","149.95","115.28","34.67","30.53","47.3","18.06","89416","30.38","DUALSPOT-UV-BLUE-GREEN-RED-IR","671839","671570","904456","17.492378","4.907110","0.004693","796880","872685","834888","11.758367","3.133320","0.007939","792245","853409","829270","9.958350","2.567381","0.011066","821229","858376","885809","7.982831","2.045710","0.022137","737769","887908","967074","5.509168","1.221946","-0.237981","2480","2640","2702","2139","2300","2359","2180","2380","2450","1808","2096","2196","1968","1099","851",""
"MA200-0420","25681","59","1","1.10","1.4","2023-05-19T09:46:00","120","2023/05/19","09:46:00","-15.769649922847748","35.038760993629694","1.2","11","30","64","85","-21952","212","9792","14","150","149.81","115.38","34.43","30.55","47.2","18.03","89420","30.38","DUALSPOT-UV-BLUE-GREEN-RED-IR","662165","668538","904677","17.925704","5.045597","0.005019","792850","872439","836014","11.974701","3.191203","-0.013693","792803","857249","833988","10.122149","2.607441","-0.031707","824452","864356","892752","8.106755","2.074979","-0.048014","735046","886484","966009","5.593380","1.240592","-0.088664","22059","23626","24240","13899","12463","11941","11786","9660","8922","10775","8529","7756","10196","7565","6815",""
"MA200-0420","25682","59","1","1.10","1.4","2023-05-19T09:46:30","120","2023/05/19","09:46:30","-15.769918620586395","35.03882382437587","1.1","12","30","64","84","-23128","-372","9924","14","150","148.77","115.92","32.85","30.57","47.4","18.12","89420","30.44","DUALSPOT-UV-BLUE-GREEN-RED-IR","658069","666482","903077","19.413592","5.517492","0.007342","790450","871373","835474","12.637966","3.356594","-0.015489","790598","856275","833469","10.668043","2.734327","-0.029916","815945","856656","885156","8.551229","2.172618","-0.050497","734185","886409","966150","5.898771","1.297355","-0.133886","75393","84363","87925","42418","37318","35474","39099","32064","29639","38470","29816","26868","36804","24135","20563",""
"MA200-0420","25683","59","1","1.10","1.4","2023-05-19T09:47:00","120","2023/05/19","09:47:00","-15.770207464694977","35.03887398913503","1.3","12","30","64","85","-21556","1120","10828","14","150","150.08","114.77","35.31","30.60","47.7","18.24","89424","30.44","DUALSPOT-UV-BLUE-GREEN-RED-IR","660311","669352","907212","19.514050","5.539484","-0.034567","793099","875089","839269","12.740295","3.379500","-0.046260","787266","853363","830823","10.762423","2.757102","-0.037942","817481","858976","887704","8.637166","2.191613","-0.070161","730456","882499","962015","5.968036","1.309555","-0.202932","5141","3658","3070","6609","4808","4158","6827","5354","4847","7512","5396","4677","8430","4826","3812",""
"MA200-0420","25684","59","1","1.10","1.4","2023-05-19T09:47:30","120","2023/05/19","09:47:30","-15.770367980003357","35.03918015956879","1.2","12","30","64","85","-24383","770","5312","14","150","149.44","115.20","34.23","30.63","48.0","18.37","89412","30.50","DUALSPOT-UV-BLUE-GREEN-RED-IR","661261","670762","909303","19.613806","5.561731","-0.027238","793978","876579","840825","12.835976","3.400332","-0.044509","788460","855185","832722","10.848896","2.773434","-0.088406","819290","861302","890254","8.716559","2.206730","-0.106314","731134","883709","963390","6.031397","1.319016","-0.290574","5085","3817","3314","6156","4511","3918","6231","3960","3180","6914","4430","3588","7682","3860","2791",""
"MA200-0420","25685","59","1","1.10","1.4","2023-05-19T09:48:00","120","2023/05/19","09:48:00","-15.770382761955261","35.039563823491335","1.2","12","30","64","84","-22672","572","9476","14","150","150.08","115.20","34.89","30.66","48.0","18.40","89432","30.56","DUALSPOT-UV-BLUE-GREEN-RED-IR","660510","670131","908596","19.651892","5.575857","0.012152","786476","868480","833223","12.875458","3.415107","0.018866","787503","854285","831941","10.882415","2.784515","0.010072","818601","860686","889717","8.744774","2.215441","0.002906","730710","883371","963054","6.054926","1.323915","-0.110063","1941","2378","2551","2540","3139","3356","2415","2636","2713","2457","2505","2521","2853","1961","1712",""
"MA200-0420","25686","59","1","1.10","1.4","2023-05-19T09:48:30","120","2023/05/19","09:48:30","-15.770371317863464","35.039925657212734","1.2","12","30","64","85","-22396","168","10568","14","150","149.47","114.88","34.59","30.69","47.8","18.36","89456","30.56","DUALSPOT-UV-BLUE-GREEN-RED-IR","656185","665930","902993","19.693658","5.593261","0.017728","787845","870174","834949","12.909827","3.429067","0.024954","788704","855742","833485","10.911471","2.796393","0.029775","820346","862678","891835","8.768447","2.225152","0.037287","732056","885052","964960","6.071615","1.328646","-0.013313","2135","2955","3280","2217","2991","3271","2099","2851","3110","2067","2816","3071","2029","1910","1877",""
"MA200-0420","25687","59","1","1.10","1.4","2023-05-19T09:49:00","120","2023/05/19","09:49:00","-15.77052491903305","35.04022332280874","1.2","12","30","64","85","-23292","1536","9192","14","150","149.77","115.16","34.61","30.72","47.7","18.34","89476","30.56","DUALSPOT-UV-BLUE-GREEN-RED-IR","656730","666684","904145","19.734194","5.604563","-0.005702","788390","871021","835824","12.943816","3.437978","-0.016262","788863","856107","833857","10.937965","2.803040","-0.026150","819980","862415","891635","8.792594","2.230772","-0.049314","731955","885060","964995","6.088320","1.332767","-0.048918","2067","1917","1858","2187","1908","1807","1910","1594","1485","2103","1628","1467","2026","1663","1561",""
"MA200-0420","25688","59","1","1.10","1.4","2023-05-19T09:49:30","120","2023/05/19","09:49:30","-15.770473599433899","35.040475990623236","1.2","12","30","64","85","-23887","1325","7445","14","150","149.56","115.17","34.40","30.76","47.6","18.34","89492","30.56","DUALSPOT-UV-BLUE-GREEN-RED-IR","656587","666829","904572","19.794110","5.626470","0.012055","788489","871373","836313","12.986652","3.451502","0.005555","789035","856566","834390","10.975370","2.814001","-0.002365","820300","862985","892287","8.818963","2.239103","0.008156","731687","884917","964878","6.106931","1.336015","-0.186173","3055","3741","4013","2757","2914","2971","2696","2645","2628","2297","2430","2475","2257","1319","1056",""
"MA200-0420","25689","59","1","1.10","1.4","2023-05-19T09:50:00","120","2023/05/19","09:50:00","-15.770200848579407","35.04065598919988","1.1","12","30","64","84","-22925","1151","9048","14","150","149.74","114.67","35.06","30.78","47.4","18.31","89500","30.56","DUALSPOT-UV-BLUE-GREEN-RED-IR","654471","665468","903210","19.942142","5.673570","0.002692","785815","869230","834564","13.095250","3.485399","0.002110","786749","854702","832892","11.065486","2.841389","-0.000736","817980","861044","890522","8.889522","2.259775","-0.006677","730143","883400","963354","6.155470","1.348131","-0.049948","7582","7890","8012","7020","7166","7219","6524","6485","6471","6173","5915","5827","5912","4826","4522",""
"MA200-0420","25690","59","1","1.10","1.4","2023-05-19T09:50:30","120","2023/05/19","09:50:30","-15.77007520198822","35.04089232161641","0.7","12","30","64","85","-23616","2776","9652","14","150","150.35","115.21","35.14","30.81","47.1","18.24","89516","30.56","DUALSPOT-UV-BLUE-GREEN-RED-IR","655005","666748","905436","20.125786","5.733803","0.004738","787248","871542","837122","13.235571","3.529805","0.003683","782859","851098","829665","11.188028","2.878869","0.000335","819279","862950","892718","8.988569","2.290340","0.001729","731571","885511","965826","6.219980","1.364486","-0.044333","9362","10067","10349","9028","9368","9491","8830","8855","8863","8625","8726","8761","7821","6502","6131",""
"MA200-0420","25691","59","1","1.10","1.4","2023-05-19T09:51:00","120","2023/05/19","09:51:00","-15.770032703876495","35.04115015640855","1.0","12","30","64","85","-23312","1180","7460","14","150","149.76","115.20","34.55","30.83","46.9","18.18","89532","30.63","DUALSPOT-UV-BLUE-GREEN-RED-IR","654095","666302","905103","20.215470","5.761596","0.002204","785808","870531","836373","13.311418","3.553384","0.003571","787041","856129","834745","11.253823","2.898115","-0.003051","813156","856874","886602","9.042067","2.305115","-0.013140","731324","885531","965933","6.256531","1.373404","-0.050176","4572","4724","4785","4880","5059","5124","4741","4624","4584","4658","4290","4164","4432","3605","3373",""
"MA200-0420","25692","59","1","1.10","1.4","2023-05-19T09:51:30","120","2023/05/19","09:51:30","-15.769857347011566","35.041275322437286","0.9","12","30","64","84","-22804","1116","8540","14","150","150.02","115.20","34.81","30.86","46.7","18.14","89544","30.63","DUALSPOT-UV-BLUE-GREEN-RED-IR","654055","667099","906734","20.427952","5.828703","0.002910","785680","871396","837611","13.501044","3.610206","-0.000855","785977","855909","834907","11.427015","2.948934","-0.003554","811871","856328","886370","9.190290","2.347340","-0.009063","730261","884847","965421","6.359241","1.398581","-0.050209","10833","11322","11517","12202","12100","12063","12481","12119","11994","12908","12169","11915","12454","10103","9440",""
"MA200-0420","25693","59","1","1.10","1.4","2023-05-19T09:52:00","120","2023/05/19","09:52:00","-15.769637405872345","35.04122982546687","1.2","12","30","64","84","-23275","1212","5112","14","150","150.15","115.17","34.98","30.89","46.4","18.06","89544","30.63","DUALSPOT-UV-BLUE-GREEN-RED-IR","652676","665962","905379","20.487232","5.847872","0.004044","783977","869771","836228","13.548813","3.625620","0.005787","785259","855374","834452","11.467276","2.960539","-0.006442","810374","854972","885048","9.222831","2.357336","0.001619","729538","884129","964648","6.383285","1.403433","-0.118274","3023","3218","3296","3074","3266","3336","2902","2754","2702","2834","2866","2877","2916","1937","1661",""
"MA200-0420","25694","59","1","1.10","1.4","2023-05-19T09:52:30","120","2023/05/19","09:52:30","-15.769613325595856","35.040925323963165","0.8","12","30","64","84","-23496","616","6252","14","150","150.35","115.71","34.64","30.91","46.4","18.07","89500","30.69","DUALSPOT-UV-BLUE-GREEN-RED-IR","654045","668115","908785","20.626110","5.891237","0.002750","785780","872669","839333","13.668359","3.659487","-0.005797","781562","852155","831626","11.574015","2.990019","-0.010082","813306","858745","889196","9.312646","2.381043","-0.020305","731248","886728","967634","6.443992","1.416662","-0.083150","7049","7352","7473","7659","7247","7096","7658","7065","6858","7787","6865","6549","7329","5334","4772",""
"MA200-0420","25695","59","1","1.10","1.4","2023-05-19T09:53:00","120","2023/05/19","09:53:00","-15.76949018239975","35.04066849127412","1.3","12","30","64","84","-24760","592","3156","14","150","149.82","115.24","34.58","30.94","46.3","18.08","89480","30.75","DUALSPOT-UV-BLUE-GREEN-RED-IR","652027","668103","910142","21.105664","6.049732","0.005905","777037","865301","833321","14.090779","3.792465","0.004478","779591","852150","832572","11.958735","3.107017","0.001509","811831","859088","890360","9.643108","2.477771","-0.003524","725882","881626","962644","6.675050","1.477090","-0.029558","24441","26923","27921","27173","28510","29003","27715","28092","28224","28768","28066","27823","28008","24414","23392",""
"MA200-0420","25696","59","1","1.10","1.4","2023-05-19T09:53:30","120","2023/05/19","09:53:30","-15.76935988664627","35.04046965762973","1.1","12","30","64","84","-22175","45","8458","14","150","149.41","114.84","34.57","30.98","46.3","18.13","89452","30.81","DUALSPOT-UV-BLUE-GREEN-RED-IR","647440","663818","904555","21.188122","6.074388","-0.000438","778392","867258","835361","14.152132","3.807783","-0.021493","779629","852547","833085","12.014532","3.121179","-0.022360","812096","859642","891052","9.687489","2.489274","-0.023726","725916","881868","962988","6.703811","1.483065","-0.098547","4217","4189","4178","3960","3285","3036","4033","3401","3179","3877","3338","3152","3498","2414","2106",""
"MA200-0420","25697","59","1","1.10","1.4","2023-05-19T09:54:00","120","2023/05/19","09:54:00","-15.769064962863922","35.04046482592821","0.9","12","30","64","84","-24012","388","7588","14","150","149.53","114.84","34.69","31.02","46.3","18.16","89436","30.94","DUALSPOT-UV-BLUE-GREEN-RED-IR","647454","664260","905451","21.293404","6.110159","0.006989","778818","868133","836337","14.226335","3.829694","-0.002239","780710","854108","834707","12.076489","3.138488","-0.009367","807196","854778","886117","9.735147","2.501297","-0.029290","727002","883415","964732","6.735409","1.490031","-0.078908","5384","6056","6326","4790","4681","4642","4479","4142","4023","4163","3477","3239","3843","2804","2509",""
"MA200-0420","25698","59","1","1.10","1.4","2023-05-19T09:54:30","120","2023/05/19","09:54:30","-15.768740952014923","35.04042549058795","1.0","12","30","64","84","-25044","988","4352","14","150","149.76","114.85","34.91","31.07","46.2","18.17","89428","30.94","DUALSPOT-UV-BLUE-GREEN-RED-IR","648359","665813","907975","21.418946","6.151001","0.004195","780464","870535","838886","14.306333","3.853637","-0.001490","776937","850386","831261","12.141495","3.157687","-0.003273","808000","855949","887465","9.785236","2.515039","-0.015413","727346","884086","965558","6.768585","1.497529","-0.072532","6420","6872","7054","5163","5084","5055","4699","4566","4519","4375","3949","3802","4035","3000","2706",""
"MA200-0420","25699","59","1","1.10","1.4","2023-05-19T09:55:00","120","2023/05/19","09:55:00","-15.768514215946198","35.04021282494068","0.7","12","30","64","84","-25852","-1308","3108","14","150","149.67","115.19","34.48","31.11","46.2","18.18","89404","31.00","DUALSPOT-UV-BLUE-GREEN-RED-IR","648688","666745","909629","21.554424","6.193891","0.003476","780660","871320","839845","14.395829","3.879756","-0.002457","776864","850808","831865","12.218398","3.178108","-0.014728","808716","857067","888794","9.845017","2.530935","-0.017960","727875","884959","966611","6.806564","1.505106","-0.109936","6908","7306","7467","5759","5615","5562","5542","4917","4697","5206","4625","4424","4605","3070","2634",""
"MA200-0420","25700","59","1","1.10","1.4","2023-05-19T09:55:30","120","2023/05/19","09:55:30","-15.768209397792816","35.04034232720733","1.4","12","30","64","84","-23156","252","9228","14","150","149.65","115.39","34.26","31.15","46.1","18.18","89416","31.06","DUALSPOT-UV-BLUE-GREEN-RED-IR","643701","662370","904123","21.718868","6.246464","0.004474","774504","865115","834196","14.516418","3.918529","0.007020","777007","851542","832834","12.318891","3.208881","0.003299","810182","859086","891100","9.924078","2.553138","-0.007929","724393","881075","962458","6.858728","1.519911","-0.008772","8370","9012","9271","7747","8389","8626","7230","7457","7536","6874","6501","6372","6315","6036","5956",""
"MA200-0420","25701","59","1","1.10","1.4","2023-05-19T09:56:00","120","2023/05/19","09:56:00","-15.767902076244354","35.04042849317193","0.8","13","30","64","84","-23056","792","9304","14","150","150.45","115.05","35.40","31.20","45.8","18.14","89424","31.06","DUALSPOT-UV-BLUE-GREEN-RED-IR","643733","662709","904821","21.799156","6.273554","0.005474","775039","866062","835249","14.576697","3.938132","0.004961","777487","852333","833717","12.371002","3.225350","0.002850","811009","860194","892321","9.964557","2.567543","0.017473","724426","881265","962734","6.886221","1.527178","-0.032133","4099","4494","4654","3884","4105","4186","3760","3862","3898","3529","4082","4274","3338","2867","2733",""
"MA200-0420","25702","59","1","1.10","1.4","2023-05-19T09:56:30","120","2023/05/19","09:56:30","-15.767787218093872","35.040188156068325","1.5","13","30","64","84","-24458","379","5866","14","150","150.62","115.58","35.04","31.23","45.7","18.11","89400","31.13","DUALSPOT-UV-BLUE-GREEN-RED-IR","643850","663232","905791","21.886082","6.303594","0.007508","776403","867970","837292","14.641382","3.959537","0.007614","777438","852604","834133","12.426888","3.243792","0.008610","811030","860486","892768","10.009578","2.581629","0.004133","724585","881690","963282","6.915960","1.535083","-0.027198","4417","5035","5285","4148","4528","4669","4014","4369","4495","3907","4032","4076","3594","3151","3025",""
"MA200-0420","25703","59","1","1.10","1.4","2023-05-19T09:57:00","120","2023/05/19","09:57:00","-15.767673671245575","35.03994682058692","0.8","13","30","64","84","-21625","-458","10566","14","150","149.95","115.36","34.59","31.28","45.7","18.16","89388","31.19","DUALSPOT-UV-BLUE-GREEN-RED-IR","642971","663165","906100","22.039456","6.342933","-0.011552","774989","867109","836644","14.740108","3.982377","-0.030899","777597","853380","835064","12.509015","3.261292","-0.051400","804747","854285","886456","10.072722","2.594306","-0.079595","724749","882269","963970","6.962881","1.542182","-0.251267","7808","6680","6224","6344","4895","4358","5910","4200","3597","5491","3677","3047","5681","2867","2066",""
"MA200-0420","25704","59","1","1.10","1.4","2023-05-19T09:57:30","120","2023/05/19","09:57:30","-15.767764031887054","35.03967032581568","1.3","14","30","64","84","-24425","1058","5650","14","150","149.72","115.39","34.32","31.31","45.7","18.20","89380","31.25","DUALSPOT-UV-BLUE-GREEN-RED-IR","643368","663793","907077","22.115440","6.362703","-0.009649","776769","869333","838831","14.789708","3.993189","-0.039015","772652","848138","829985","12.550726","3.270483","-0.042998","804249","853878","886108","10.103672","2.602396","-0.019311","724638","882233","963942","6.986168","1.545842","-0.219905","3867","3383","3187","3186","2335","2020","3000","2223","1949","2690","2364","2251","2819","1489","1111",""
"MA200-0420","25705","59","1","1.10","1.4","2023-05-19T09:58:00","120","2023/05/19","09:58:00","-15.767877042293549","35.03937499597669","0.9","13","30","64","84","-21637","1091","11120","14","150","149.74","115.01","34.73","31.40","45.7","18.29","89388","31.44","DUALSPOT-UV-BLUE-GREEN-RED-IR","642102","662664","905661","22.153446","6.375332","0.005570","773919","866302","836026","14.820325","4.002291","-0.001477","776038","852035","833839","12.575955","3.276604","-0.028795","809726","859812","892321","10.122798","2.607419","-0.021052","727840","886253","968401","7.000683","1.547926","-0.294377","1941","2135","2214","1973","1942","1931","1821","1463","1337","1668","1450","1375","1763","838","576",""
"MA200-0420","25706","59","1","1.10","1.4","2023-05-19T09:58:30","120","2023/05/19","09:58:30","-15.768122255802155","35.039317827671766","1.1","13","30","64","84","-22480","440","8640","14","150","149.35","114.63","34.72","31.46","45.8","18.38","89380","31.50","DUALSPOT-UV-BLUE-GREEN-RED-IR","644256","665110","909097","22.198764","6.389177","0.000544","777850","870970","840572","14.853153","4.008728","-0.062874","772828","848711","830630","12.603984","3.282869","-0.043546","805381","855365","887715","10.145708","2.612528","-0.054276","724606","882413","964217","7.017133","1.551794","-0.057483","2322","2342","2350","2123","1374","1097","2029","1498","1310","2005","1476","1293","2004","1555","1428",""
"MA200-0420","25707","59","1","1.10","1.4","2023-05-19T09:59:00","120","2023/05/19","09:59:00","-15.768427014350891","35.03927132114768","0.9","14","30","64","83","-23320","129","10279","14","150","149.76","115.17","34.59","31.48","46.0","18.45","89388","31.69","DUALSPOT-UV-BLUE-GREEN-RED-IR","641935","663081","906585","22.273784","6.412203","0.001338","773983","867082","836945","14.917450","4.024422","-0.023135","775560","852082","834065","12.661116","3.296840","-0.026503","809347","859932","892563","10.193427","2.624368","-0.030012","722490","880111","961772","7.051986","1.558425","-0.126038","3826","3909","3943","4138","3363","3076","4118","3353","3083","4157","3433","3183","4227","2677","2238",""
"MA200-0420","25708","59","1","1.10","1.4","2023-05-19T09:59:30","120","2023/05/19","09:59:30","-15.768453299999237","35.03892565891147","1.3","13","30","64","83","-21554","400","9400","14","150","149.85","115.05","34.80","31.58","46.2","18.61","89380","31.88","DUALSPOT-UV-BLUE-GREEN-RED-IR","640506","661815","905007","22.331318","6.431801","0.006741","772314","865470","835467","14.962856","4.035723","-0.021405","774811","851545","833587","12.702004","3.305739","-0.048074","808333","859024","891699","10.226769","2.632114","-0.044417","726061","884651","966795","7.079485","1.564820","-0.059581","2937","3307","3457","2925","2407","2216","2950","2123","1832","2907","2233","1999","3338","2567","2348",""
"MA200-0420","25709","59","1","1.10","1.4","2023-05-19T10:00:00","120","2023/05/19","10:00:00","-15.768288850784302","35.038603987544775","1.5","13","30","64","83","-23245","687","8479","14","150","150.49","115.34","35.15","31.68","46.2","18.71","89380","32.00","DUALSPOT-UV-BLUE-GREEN-RED-IR","642293","663825","907970","22.378460","6.450414","0.013111","774575","868172","838200","14.994932","4.047036","0.011816","775391","852273","834423","12.729478","3.315306","0.012691","802473","852920","885421","10.249086","2.639872","0.015548","721894","879679","961406","7.098341","1.568833","-0.089047","2400","3110","3397","2061","2385","2505","1977","2259","2358","1941","2214","2309","2283","1594","1399",""
"MA200-0420","25710","59","1","1.10","1.4","2023-05-19T10:00:30","120","2023/05/19","10:00:30","-15.768064379692078","35.03830299153924","1.4","13","30","64","83","-22916","52","10036","14","150","149.82","115.20","34.62","31.75","46.0","18.71","89404","32.06","DUALSPOT-UV-BLUE-GREEN-RED-IR","639622","661287","904632","22.426156","6.469200","0.013556","771082","864420","834684","15.028358","4.059499","0.016512","773410","850320","832548","12.757255","3.324693","0.011319","806580","857388","890117","10.269279","2.646580","0.012115","724500","883000","965065","7.116682","1.570424","-1.470497","2431","3187","3493","2150","2669","2860","2001","2251","2339","1758","1943","2008","2224","641","193",""
"MA200-0420","25711","59","1","1.10","1.4","2023-05-19T10:01:00","120","2023/05/19","10:01:00","-15.767823219299316","35.0382601544261","1.2","14","30","64","84","-22679","354","9487","14","150","149.89","115.32","34.56","31.83","45.8","18.70","89404","32.13","DUALSPOT-UV-BLUE-GREEN-RED-IR","640357","662318","906205","22.482934","6.489015","0.008352","773145","866973","837203","15.063773","4.072523","0.015753","774068","851192","833493","12.787375","3.333443","-0.003392","807009","857983","890774","10.291433","2.652335","-0.021259","724501","883175","965278","7.137218","1.575100","-0.062406","2891","3367","3560","2276","2793","2984","2168","2101","2078","1927","1670","1581","2487","1890","1721",""
"MA200-0420","25712","59","1","1.10","1.4","2023-05-19T10:01:30","120","2023/05/19","10:01:30","-15.7675940990448","35.03849848732352","1.2","14","30","64","83","-21660","1220","10872","14","150","150.21","115.17","35.05","31.90","45.5","18.66","89404","32.13","DUALSPOT-UV-BLUE-GREEN-RED-IR","640330","662648","906917","22.570790","6.517090","0.002913","773143","867239","837653","15.116065","4.088533","0.000544","774118","851499","833894","12.828032","3.346604","0.006186","807224","858418","891324","10.321057","2.661233","-0.001718","724457","883244","965414","7.159994","1.579856","-0.094146","4480","4705","4796","3366","3386","3394","2930","3117","3183","2580","2547","2535","2762","1895","1650",""
"MA200-0420","25713","59","1","1.10","1.4","2023-05-19T10:02:00","120","2023/05/19","10:02:00","-15.767380833625793","35.03872599080205","1.2","14","30","64","83","-23008","-200","9860","14","150","150.15","115.09","35.06","31.98","45.0","18.56","89412","32.13","DUALSPOT-UV-BLUE-GREEN-RED-IR","639993","662485","906884","22.624070","6.539608","0.015590","772680","866921","837474","15.151366","4.104394","0.026034","769500","846529","829164","12.859074","3.358853","0.022210","807835","859177","892185","10.344291","2.671148","0.033917","724834","883851","966113","7.179870","1.584651","-0.050782","2719","3772","4200","2273","3353","3755","2239","2900","3134","2025","2837","3120","2412","1910","1768",""
"MA200-0420","25714","59","1","1.10","1.4","2023-05-19T10:02:30","120","2023/05/19","10:02:30","-15.767171084880829","35.038942992687225","1.4","14","30","64","83","-21975","-200","8504","14","150","149.71","114.90","34.82","32.03","44.6","18.48","89416","32.06","DUALSPOT-UV-BLUE-GREEN-RED-IR","639134","662088","906594","22.709716","6.565134","-0.001042","771850","866402","837132","15.208811","4.120755","-0.005901","773219","850986","833641","12.905556","3.372484","-0.003529","806898","858439","891521","10.381199","2.680334","-0.030562","724011","883029","965275","7.205087","1.590293","-0.070099","4378","4306","4277","3706","3483","3401","3358","3250","3212","3222","2647","2446","3066","2264","2037",""
"MA200-0420","25715","59","1","1.10","1.4","2023-05-19T10:03:00","120","2023/05/19","10:03:00","-15.766944169998169","35.03918832913041","1.2","14","30","64","83","-22552","-472","10616","14","150","149.92","114.91","35.01","32.09","44.3","18.40","89420","32.06","DUALSPOT-UV-BLUE-GREEN-RED-IR","638478","661662","906160","22.773438","6.585310","0.002296","771566","866283","837097","15.252928","4.134274","0.000509","772298","850189","832917","12.946032","3.382516","-0.026100","805833","857480","890579","10.409598","2.687502","-0.028908","723128","882109","964307","7.227861","1.593956","-0.212644","3257","3384","3436","2846","2862","2868","2924","2378","2185","2479","2054","1906","2768","1461","1091",""
"MA200-0420","25716","59","1","1.10","1.4","2023-05-19T10:03:30","120","2023/05/19","10:03:30","-15.766709446907043","35.0394308231771","1.0","14","30","64","83","-23044","-32","9632","14","150","150.36","115.13","35.23","32.12","43.9","18.31","89420","32.00","DUALSPOT-UV-BLUE-GREEN-RED-IR","638027","661429","906038","22.824700","6.601698","0.002599","770820","865712","836660","15.291085","4.145700","-0.001971","772214","850307","833115","12.977326","3.392523","0.004438","805854","857667","890820","10.433432","2.694608","-0.003410","723074","882200","964429","7.245350","1.596366","-0.329409","2615","2732","2780","2456","2404","2385","2256","2358","2394","2076","2023","2005","2121","956","626",""
"MA200-0420","25717","59","1","1.10","1.4","2023-05-19T10:04:00","120","2023/05/19","10:04:00","-15.766494393348694","35.039673659950495","1.3","15","30","64","83","-22524","-140","9668","14","150","149.59","114.82","34.77","32.15","43.7","18.25","89412","31.94","DUALSPOT-UV-BLUE-GREEN-RED-IR","636360","660058","904352","22.901996","6.624073","-0.002880","769174","864172","835306","15.347522","4.161137","-0.009954","771012","849237","832185","13.024430","3.405678","-0.009023","804379","856333","889538","10.470017","2.704601","-0.014537","721884","880892","963022","7.268549","1.601801","-0.056256","3954","3780","3709","3643","3291","3160","3405","3141","3047","3196","2883","2774","2822","2183","2003",""
"MA200-0420","25718","59","1","1.10","1.4","2023-05-19T10:04:30","120","2023/05/19","10:04:30","-15.766297221183777","35.0399101562798","1.3","15","30","64","83","-22984","2432","5996","14","150","150.21","114.72","35.50","32.17","43.4","18.17","89400","31.94","DUALSPOT-UV-BLUE-GREEN-RED-IR","641128","665205","911518","22.953660","6.639850","-0.000819","769163","864387","835574","15.383101","4.173380","0.008659","770000","848277","831283","13.053846","3.412109","-0.050512","802640","854573","887762","10.493893","2.711994","0.000084","725420","885347","967907","7.286506","1.603314","-1.915659","2645","2610","2596","2299","2556","2652","2128","1504","1282","2088","2089","2089","2186","595","146",""
"MA200-0420","25719","59","1","1.10","1.4","2023-05-19T10:05:00","120","2023/05/19","10:05:00","-15.766050040721893","35.040163822472095","1.3","15","30","64","83","-24576","629","6685","14","150","150.08","114.97","35.11","32.18","43.2","18.10","89380","31.88","DUALSPOT-UV-BLUE-GREEN-RED-IR","639706","664161","910352","23.044162","6.666813","-0.001555","773964","870104","841222","15.435184","4.187572","-0.011254","769459","847975","831082","13.094935","3.423905","-0.006759","801598","853643","886864","10.519882","2.716440","-0.138536","724262","884096","966546","7.304128","1.605436","-0.475386","4623","4510","4463","3358","2996","2861","2967","2788","2725","2268","1270","922","2141","844","478",""
"MA200-0420","25720","59","1","1.10","1.4","2023-05-19T10:05:30","120","2023/05/19","10:05:30","-15.765792429447174","35.04033115878701","1.0","15","30","64","83","-23700","-162","8108","14","150","150.21","115.16","35.05","32.19","43.0","18.03","89360","31.88","DUALSPOT-UV-BLUE-GREEN-RED-IR","638718","663634","909886","23.144702","6.694753","-0.006017","772305","868672","840058","15.509581","4.211301","0.003982","768449","847215","830491","13.154718","3.440428","-0.010809","801299","853575","886932","10.566844","2.730979","0.002154","724089","884055","966600","7.333692","1.612174","-0.064746","5127","4682","4501","4789","5018","5104","4310","3913","3773","4091","4162","4186","3586","2685","2431",""
"MA200-0420","25721","59","1","1.10","1.4","2023-05-19T10:06:00","120","2023/05/19","10:06:00","-15.765665471553802","35.040455993264914","0.9","15","30","64","83","-20912","-32","11544","14","150","149.81","115.13","34.68","32.19","42.7","17.91","89356","31.81","DUALSPOT-UV-BLUE-GREEN-RED-IR","635821","662343","909258","23.536460","6.820534","0.003612","771070","868373","840143","15.682656","4.261190","-0.003998","771701","851592","835049","13.281810","3.475309","-0.010290","799394","852133","885578","10.650055","2.750353","-0.041401","723033","883044","965561","7.374550","1.619031","-0.177750","19986","21305","21843","11144","10665","10486","9164","8351","8062","7251","5605","5032","4957","2762","2145",""
"MA200-0420","25722","59","1","1.10","1.4","2023-05-19T10:06:30","120","2023/05/19","10:06:30","-15.765776634216309","35.040690656751394","1.0","15","30","64","83","-22600","654","10483","14","150","149.69","114.69","35.00","32.18","42.5","17.84","89364","31.75","DUALSPOT-UV-BLUE-GREEN-RED-IR","633762","660408","906673","23.572232","6.828312","-0.028835","768713","865901","837828","15.711961","4.267681","-0.038415","769915","849777","833309","13.303726","3.479719","-0.064324","798793","851579","885022","10.666498","2.753476","-0.097269","722125","882039","964466","7.384739","1.619343","1.023919","1831","1305","1090","1894","1374","1181","1586","1046","854","1438","895","705","1241","124","-189",""
"MA200-0420","25723","59","1","1.10","1.4","2023-05-19T10:07:00","120","2023/05/19","10:07:00","-15.765923619270325","35.04089881852269","0.6","15","30","64","83","-21929","200","9833","14","150","149.47","114.78","34.68","32.16","42.4","17.78","89400","31.69","DUALSPOT-UV-BLUE-GREEN-RED-IR","632656","659430","905345","23.611598","6.835718","-0.047988","767371","864553","836592","15.741784","4.275173","-0.019133","769347","849271","832833","13.326475","3.483993","-0.078793","803975","857219","890935","10.683220","2.756597","-0.099444","721357","881227","963559","7.396702","1.620726","-0.510799","2014","1254","944","1926","1601","1480","1645","1022","802","1461","902","708","1455","556","304",""
"MA200-0420","25724","59","1","1.10","1.4","2023-05-19T10:07:30","120","2023/05/19","10:07:30","-15.766148209571838","35.041013326495886","0.8","15","30","64","83","-22212","1028","10560","14","150","149.44","114.41","35.02","32.15","42.6","17.83","89432","31.69","DUALSPOT-UV-BLUE-GREEN-RED-IR","631107","657946","903351","23.628800","6.837700","-0.303308","765471","862552","834664","15.758990","4.276788","-1.246176","767443","847306","830952","13.340684","3.485501","-0.573058","800800","853919","887495","10.691489","2.755123","0.176161","719441","878872","960996","7.400581","1.618367","0.182994","883","332","108","1114","341","54","1031","357","119","725","-422","-820","473","-941","-1337",""
"MA200-0420","25725","59","1","1.10","1.4","2023-05-19T10:08:00","120","2023/05/19","10:08:00","-15.766390800476074","35.04117166250944","1.0","15","30","72","83","-21028","524","12324","14","150","150.08","114.90","35.19","32.14","42.8","17.90","89452","31.69","DUALSPOT-UV-BLUE-GREEN-RED-IR","631989","658960","904778","23.647294","6.840318","-0.131352","766589","863965","836021","15.776514","4.278451","-1.131485","768547","848597","832220","13.354832","3.486997","-0.582358","803159","856538","890191","10.703789","2.758146","-0.033842","624714","763228","834548","7.405456","1.619279","-0.133714","945","437","230","1130","350","59","1022","352","116","1074","862","788","592","362","297",""
"MA200-0420","25726","59","1","1.10","1.4","2023-05-19T10:08:30","120","2023/05/19","10:08:30","-15.766643524169922","35.04112349078059","0.8","15","30","64","83","-23044","372","8708","14","150","149.65","115.24","34.41","32.14","42.9","17.93","89444","31.75","DUALSPOT-UV-BLUE-GREEN-RED-IR","632953","660040","906309","23.666890","6.846571","0.003710","767565","865167","837288","15.796161","4.286629","0.022212","769031","849251","832905","13.371034","3.493172","0.020355","803527","856988","890708","10.715429","2.760414","-0.082205","721367","881371","963703","7.411569","1.619486","1.137744","998","1067","1094","1263","1761","1947","1167","1489","1603","1013","661","538","741","84","-99",""
"MA200-0420","25727","59","1","1.10","1.4","2023-05-19T10:09:00","120","2023/05/19","10:09:00","-15.766873359680176","35.0409423224628","1.6","15","30","64","83","-24240","144","6324","14","150","150.00","114.91","35.09","32.15","43.0","17.97","89432","31.81","DUALSPOT-UV-BLUE-GREEN-RED-IR","635278","662543","909858","23.686122","6.854034","0.011651","769714","867682","839751","15.812765","4.291928","0.003690","770772","851277","834938","13.387160","3.497815","-0.006251","805937","859609","893495","10.727245","2.765333","0.030641","722862","883212","965783","7.419533","1.621704","-0.017123","983","1249","1357","1071","1119","1137","1165","1098","1075","1031","1406","1536","968","882","858",""
"MA200-0420","25728","59","1","1.10","1.4","2023-05-19T10:09:30","120","2023/05/19","10:09:30","-15.766727268695831","35.040745828300714","1.1","15","30","64","82","-23040","588","7704","14","150","149.69","115.09","34.60","32.19","43.2","18.09","0","0.00","DUALSPOT-UV-BLUE-GREEN-RED-IR","629913","657097","902418","23.712456","6.861440","-0.004218","764041","861457","833773","15.833302","4.293871","-0.995784","766437","846610","830387","13.405755","3.501254","-0.081131","799864","853292","886915","10.742682","2.767662","-0.189898","723065","883532","966190","7.430095","1.624453","-0.027942","1343","1257","1221","1322","416","78","1341","825","642","1345","675","442","1282","1109","1061",""
"MA200-0420","25729","59","1","1.10","1.4","2023-05-19T10:10:00","120","2023/05/19","10:10:00","-15.766966938972473","35.04057566076517","1.4","15","30","64","83","-23180","119","10424","14","150","150.07","115.44","34.64","32.23","43.3","18.17","0","0.00","DUALSPOT-UV-BLUE-GREEN-RED-IR","633199","660737","907584","23.761376","6.878401","0.007554","768103","866241","838463","15.866986","4.305899","0.013041","769338","849984","833769","13.432933","3.509915","0.005766","804372","858178","892055","10.761889","2.773485","0.001287","721265","881451","963869","7.442516","1.626904","-0.104772","2489","2876","3033","2163","2574","2727","1954","2075","2118","1669","1686","1692","1503","988","844",""
"MA200-0420","25730","59","1","1.10","1.4","2023-05-19T10:10:30","120","2023/05/19","10:10:30","-15.767286241054535","35.040594823658466","1.4","15","30","64","83","-19850","237","8904","14","150","150.27","115.24","35.04","32.27","43.5","18.29","89432","32.19","DUALSPOT-UV-BLUE-GREEN-RED-IR","635481","663368","911281","23.805756","6.890104","-0.009640","770707","869378","841571","15.897100","4.311359","-0.078105","767029","847619","831475","13.457957","3.512275","-1.040658","801520","855322","889102","10.781589","2.777041","-0.112086","723889","884784","967561","7.458030","1.629433","-0.195747","2262","1962","1839","1937","1155","864","1802","559","120","1715","1018","776","1880","1008","764",""
"MA200-0420","25731","59","1","1.10","1.4","2023-05-19T10:11:00","120","2023/05/19","10:11:00","-15.767564058303833","35.04062815755606","0.8","15","30","64","83","-23476","724","9276","14","150","150.21","114.77","35.44","32.32","43.7","18.40","89436","32.31","DUALSPOT-UV-BLUE-GREEN-RED-IR","632644","660480","907413","23.833812","6.898935","0.001107","767540","865973","838286","15.918424","4.315239","-0.081085","769461","850420","834237","13.475172","3.515953","-0.053082","804691","858757","892713","10.794813","2.780301","-0.034580","721331","881708","964204","7.468530","1.631715","-0.081702","1435","1463","1474","1377","811","601","1245","861","725","1156","922","841","1278","899","793",""
"MA200-0420","25732","59","1","1.10","1.4","2023-05-19T10:11:30","120","2023/05/19","10:11:30","-15.767790853977203","35.04049115628004","1.0","15","30","64","82","-22928","-456","9764","14","150","150.29","115.18","35.11","32.38","44.1","18.58","89436","32.50","DUALSPOT-UV-BLUE-GREEN-RED-IR","630746","659197","906058","23.969452","6.939342","-0.001385","765001","863682","836241","15.998601","4.333866","-0.030284","767366","848591","832609","13.539825","3.530604","-0.039287","802326","856592","890602","10.844151","2.790561","-0.068992","719425","879624","961984","7.500107","1.636264","-0.276436","6917","6759","6694","5160","3932","3476","4660","3464","3042","4297","2931","2458","3829","1809","1246",""
"MA200-0420","25733","59","1","1.10","1.4","2023-05-19T10:12:00","120","2023/05/19","10:12:00","-15.767722010612488","35.040581326931715","1.2","15","30","64","83","-24141","-1137","10204","14","150","149.90","114.59","35.30","32.46","44.1","18.68","89452","32.69","DUALSPOT-UV-BLUE-GREEN-RED-IR","628887","657644","904215","24.068222","6.977169","0.010596","763132","861912","834740","16.070486","4.358125","0.007203","766040","847439","831629","13.602385","3.550523","0.003193","800696","855146","889215","10.894522","2.806055","-0.000197","722418","883517","966359","7.535755","1.646983","-0.004216","5062","6293","6795","4650","5094","5259","4532","4684","4738","4409","4402","4400","4345","4241","4211",""
"MA200-0420","25734","59","1","1.10","1.4","2023-05-19T10:12:30","120","2023/05/19","10:12:30","-15.767781019210815","35.04082215577364","1.8","15","30","64","82","-22979","312","10541","14","150","150.15","115.31","34.84","32.55","44.0","18.72","89468","32.81","DUALSPOT-UV-BLUE-GREEN-RED-IR","631451","660490","908348","24.127384","6.998506","0.008890","766449","865894","838694","16.110588","4.373258","0.015819","767728","849480","833735","13.637746","3.562981","0.013462","802646","857329","891590","10.922840","2.815079","0.006298","719115","879598","962118","7.559654","1.653513","-0.018440","3013","3597","3836","2578","3220","3459","2545","2968","3118","2463","2598","2645","2895","2618","2541",""
"MA200-0420","25735","59","1","1.10","1.4","2023-05-19T10:13:00","120","2023/05/19","10:13:00","-15.767797231674194","35.04110949113965","0.9","15","30","64","82","-22787","-475","11437","14","150","149.79","115.09","34.70","32.61","43.9","18.74","89504","32.81","DUALSPOT-UV-BLUE-GREEN-RED-IR","631105","660289","908127","24.158574","7.009409","0.007592","765994","865521","838373","16.132254","4.378146","-0.032730","767192","848979","833242","13.655119","3.566277","-0.073743","802006","856751","890989","10.936308","2.819269","0.003770","718585","879074","961568","7.572973","1.656970","-0.028600","1591","1845","1949","1395","1044","913","1253","788","624","1174","1211","1224","1616","1391","1328",""
"MA200-0420","25736","59","1","1.10","1.4","2023-05-19T10:13:30","120","2023/05/19","10:13:30","-15.767995774745941","35.04126698896289","0.8","15","30","64","82","-21528","-640","10380","14","150","149.76","114.85","34.91","32.69","43.9","18.82","89524","32.81","DUALSPOT-UV-BLUE-GREEN-RED-IR","632868","662285","910980","24.184056","7.018247","0.006862","767633","867517","840342","16.149845","4.382098","-0.034526","764642","846267","830630","13.669090","3.567880","-0.390634","798531","853141","887295","10.948095","2.821376","-0.113795","720499","881468","964220","7.582674","1.655744","0.294471","1303","1487","1562","1135","839","728","1009","381","159","1029","605","458","1179","-490","-957",""
"MA200-0420","25737","59","1","1.10","1.4","2023-05-19T10:14:00","120","2023/05/19","10:14:00","-15.768223643302917","35.04132532328367","0.6","15","30","64","82","-22950","1245","6870","14","150","150.34","115.01","35.33","32.75","43.8","18.84","89528","32.81","DUALSPOT-UV-BLUE-GREEN-RED-IR","627963","657301","904218","24.222270","7.030084","0.000468","768209","868328","841197","16.176050","4.389620","-0.006129","764619","846402","830792","13.692635","3.573799","-0.023827","797891","852578","886700","10.964693","2.824910","-0.064353","720395","881468","964221","7.597124","1.658457","-0.130302","1951","1967","1974","1689","1578","1536","1699","1390","1281","1447","1003","848","1755","1072","882",""
"MA200-0420","25738","59","1","1.10","1.4","2023-05-19T10:14:30","120","2023/05/19","10:14:30","-15.768271803855896","35.04116632044315","0.9","15","30","64","82","-24568","636","5896","14","150","149.71","115.16","34.55","32.82","43.8","18.90","89504","32.94","DUALSPOT-UV-BLUE-GREEN-RED-IR","628532","658107","905456","24.266362","7.041080","-0.012852","762481","862032","835158","16.207092","4.395884","-0.050327","765200","847185","831630","13.717274","3.579545","-0.031446","799923","854876","889110","10.983095","2.827576","-0.208802","721026","882342","965207","7.612592","1.660438","-0.360801","2248","1869","1714","1998","1344","1100","1776","1380","1241","1603","774","486","1876","800","500",""
"MA200-0420","25739","59","1","1.10","1.4","2023-05-19T10:15:00","120","2023/05/19","10:15:00","-15.768316686153412","35.040953654795885","1.0","15","30","64","82","-24736","1460","4444","14","150","149.38","114.69","34.69","32.86","43.7","18.89","89480","32.94","DUALSPOT-UV-BLUE-GREEN-RED-IR","629332","659161","907095","24.315144","7.059690","0.011072","763921","863874","837064","16.241726","4.408121","0.011556","765762","848031","832537","13.746608","3.589237","0.008092","800012","855117","889424","11.003911","2.835200","0.020127","721531","883105","966061","7.629595","1.663738","-0.110832","2498","3151","3418","2238","2615","2755","2123","2319","2389","1820","2205","2338","2070","1328","1122",""
"MA200-0420","25740","59","1","1.10","1.4","2023-05-19T10:15:30","120","2023/05/19","10:15:30","-15.768495261669159","35.04082615673542","1.0","15","30","64","82","-24208","3780","5000","14","150","149.32","114.41","34.90","32.92","43.7","18.93","89468","33.06","DUALSPOT-UV-BLUE-GREEN-RED-IR","630309","660430","909019","24.377678","7.080017","0.003471","765278","865686","838882","16.282198","4.417628","-0.028314","766499","849083","833609","13.781642","3.595990","-0.071991","801346","856707","891129","11.031837","2.842417","-0.023507","721623","883355","966381","7.651081","1.668628","-0.062828","3210","3420","3507","2622","2019","1794","2542","1606","1276","2448","2074","1944","2623","1957","1771",""
"MA200-0420","25741","59","1","1.10","1.4","2023-05-19T10:16:00","120","2023/05/19","10:16:00","-15.768601834774017","35.04072165861726","0.8","15","30","64","82","-22779","629","8737","14","150","149.74","114.92","34.81","33.00","43.6","18.98","89456","33.19","DUALSPOT-UV-BLUE-GREEN-RED-IR","630620","661827","911601","24.590248","7.149257","0.003900","766651","868082","841585","16.412960","4.457879","0.001318","762537","845387","830299","13.889247","3.628045","-0.001659","796593","852171","886685","11.115212","2.865372","-0.012599","722581","884953","968286","7.704719","1.680705","-0.063480","10864","11681","12016","8435","8570","8621","7773","7644","7598","7278","6615","6384","6520","4845","4378",""
"MA200-0420","25742","59","1","1.10","1.4","2023-05-19T10:16:30","120","2023/05/19","10:16:30","-15.768701195716858","35.04055815562606","0.8","15","30","64","82","-24179","862","4979","14","150","150.02","114.93","35.09","33.07","43.6","19.03","89444","33.31","DUALSPOT-UV-BLUE-GREEN-RED-IR","627924","659521","908797","24.717038","7.190693","0.003655","762970","864432","838240","16.501442","4.483497","-0.004629","764870","848394","833372","13.965222","3.648317","-0.014733","799618","855746","890552","11.175198","2.881620","-0.016037","720157","882214","965401","7.746511","1.691336","-0.035009","6479","6936","7123","5707","5412","5302","5488","4796","4551","5236","4645","4440","5079","4232","3996",""
"MA200-0420","25743","59","1","1.10","1.4","2023-05-19T10:17:00","120","2023/05/19","10:17:00","-15.768951416015625","35.04045099392533","1.1","15","30","64","82","-21996","1092","10616","14","150","150.15","115.38","34.77","33.16","43.5","19.08","89440","33.44","DUALSPOT-UV-BLUE-GREEN-RED-IR","624570","656376","904689","24.809314","7.221283","0.004985","758956","860183","834264","16.560493","4.500985","-0.001465","762416","845979","831135","14.014950","3.661758","-0.011569","796990","853159","887932","11.214817","2.892910","-0.007056","717984","879735","962705","7.773519","1.696697","-0.099717","4697","5167","5360","3794","3728","3704","3578","3209","3079","3445","3257","3192","3270","2153","1842",""
"MA200-0420","25744","59","1","1.10","1.4","2023-05-19T10:17:30","120","2023/05/19","10:17:30","-15.769255697727203","35.040475990623236","1.1","15","30","64","82","-22637","258","10229","14","150","149.71","115.50","34.21","33.25","43.5","19.16","89444","33.56","DUALSPOT-UV-BLUE-GREEN-RED-IR","627536","659868","909782","24.872868","7.242279","0.005628","762876","864998","839041","16.603926","4.511255","-0.023069","764882","848985","834152","14.048779","3.669506","-0.031511","800080","856670","891645","11.238923","2.897611","-0.075829","720295","882748","966012","7.792927","1.698119","-3.278610","3231","3604","3757","2787","2225","2015","2431","1880","1685","2093","1378","1130","2347","580","88",""
"MA200-0420","25745","59","1","1.10","1.4","2023-05-19T10:18:00","120","2023/05/19","10:18:00","-15.769477427005768","35.04062282666564","1.0","15","30","64","82","-21858","33","11016","14","150","149.71","114.90","34.82","33.32","43.5","19.23","89468","33.69","DUALSPOT-UV-BLUE-GREEN-RED-IR","622245","655854","905255","25.238636","7.362449","0.004212","757795","860361","835011","16.795796","4.568166","-0.001780","760614","845097","830678","14.197641","3.711706","-0.006734","795164","852067","887056","11.344410","2.925370","-0.018998","716536","878512","961497","7.851755","1.711087","-0.068112","18698","20273","20922","12379","12118","12020","10756","10063","9818","9211","7999","7578","7152","5203","4660",""
"MA200-0420","25746","59","1","1.10","1.4","2023-05-19T10:18:30","120","2023/05/19","10:18:30","-15.769681334495544","35.04080132767558","1.0","16","30","64","82","-22644","352","10240","14","150","150.08","115.05","35.04","33.41","43.4","19.29","89492","33.75","DUALSPOT-UV-BLUE-GREEN-RED-IR","624402","658741","909640","25.364518","7.402641","0.002521","760325","863894","838664","16.889614","4.596204","-0.001563","763259","848602","834318","14.276704","3.732794","-0.014160","799509","857173","892581","11.407977","2.943143","-0.010886","719062","881964","965415","7.898971","1.721994","-0.056564","6426","6737","6865","6045","5932","5889","5705","4996","4746","5543","5089","4931","5733","4348","3962",""
"MA200-0420","25747","59","1","1.10","1.4","2023-05-19T10:19:00","120","2023/05/19","10:19:00","-15.769964873790741","35.04076499119401","1.3","15","30","64","82","-22188","-124","10436","14","150","149.65","115.12","34.53","33.49","43.5","19.38","89480","33.88","DUALSPOT-UV-BLUE-GREEN-RED-IR","616211","654122","906216","26.188632","7.686153","0.006580","753621","858927","834924","17.284630","4.710448","-0.002982","757871","844634","831183","14.576982","3.814405","-0.009981","793986","852751","888471","11.623192","2.996766","-0.025406","719576","883530","967378","8.021391","1.748055","-0.073540","42046","48231","50800","25437","24530","24190","21655","19624","18904","18755","15582","14479","14855","10544","9343",""
"MA200-0420","25748","59","1","1.10","1.4","2023-05-19T10:19:30","120","2023/05/19","10:19:30","-15.770237505435944","35.04064782336354","1.2","15","30","64","82","-25112","-345","6445","14","150","150.21","114.96","35.25","33.59","43.5","19.47","89484","34.00","DUALSPOT-UV-BLUE-GREEN-RED-IR","614733","653270","905534","26.487874","7.788913","0.005483","758220","864825","840892","17.442008","4.755390","-0.005978","761164","848878","835535","14.703643","3.848863","-0.012264","797229","856657","892696","11.717030","3.020973","-0.023212","717768","881600","965343","8.077261","1.758366","-0.128287","15288","17122","17886","10148","9451","9190","9147","8115","7749","8189","6889","6438","6788","4086","3334",""
"MA200-0420","25749","59","1","1.10","1.4","2023-05-19T10:20:00","120","2023/05/19","10:20:00","-15.770511865615845","35.04049915447831","1.0","15","30","64","82","-22600","795","10858","14","150","150.08","115.69","34.40","33.68","43.3","19.48","89480","34.13","DUALSPOT-UV-BLUE-GREEN-RED-IR","616032","655249","908792","26.639526","7.843639","0.008728","754370","861145","837701","17.571900","4.799539","0.009368","757771","845714","832725","14.818466","3.885996","0.007173","793130","852824","889005","11.817183","3.051983","0.004476","714595","878189","961804","8.152893","1.777152","-0.032694","7699","9345","10032","8323","9515","9963","8240","8963","9220","8685","9045","9170","9132","7629","7210",""
"MA200-0420","25750","59","1","1.10","1.4","2023-05-19T10:20:30","120","2023/05/19","10:20:30","-15.770615458488464","35.04073432832956","1.0","15","30","64","82","-22144","1216","11180","14","150","149.67","115.01","34.66","33.78","43.1","19.49","89508","34.31","DUALSPOT-UV-BLUE-GREEN-RED-IR","613263","652741","905622","26.735970","7.877224","0.006750","756874","864519","841210","17.656276","4.826832","0.005182","755745","843897","831155","14.894311","3.909451","0.002285","790993","850924","887179","11.880092","3.070350","-0.003717","717144","881680","965738","8.203041","1.790535","-0.020942","4925","5690","6010","5438","5836","5986","5475","5617","5668","5488","5315","5255","6091","5393","5198",""
"MA200-0420","25751","59","1","1.10","1.4","2023-05-19T10:21:00","120","2023/05/19","10:21:00","-15.770710527896881","35.041011825203896","0.7","15","30","64","82","-21129","-329","10362","14","150","149.53","114.72","34.82","33.88","42.8","19.47","89528","34.31","DUALSPOT-UV-BLUE-GREEN-RED-IR","612637","652509","905633","26.846486","7.916870","0.007641","750548","857714","834810","17.736626","4.851735","0.001596","754733","843164","830589","14.963890","3.928661","-0.009326","789267","849392","885718","11.937099","3.087217","-0.002942","715682","880127","964183","8.247661","1.800432","-0.063678","5658","6688","7118","5192","5302","5343","5035","4580","4418","4985","4860","4816","5433","3971","3562",""
"MA200-0420","25752","59","1","1.10","1.4","2023-05-19T10:21:30","120","2023/05/19","10:21:30","-15.770760953426361","35.041128158569336","1.1","15","30","64","82","-19450","675","12870","14","150","150.28","115.38","34.91","33.96","42.5","19.43","89532","34.31","DUALSPOT-UV-BLUE-GREEN-RED-IR","613695","653776","907461","26.881348","7.929020","0.006596","752152","859682","836737","17.762746","4.860002","0.003363","755198","843815","831224","14.987295","3.935045","-0.010281","790828","851118","887563","11.955573","3.091804","-0.026692","716272","881007","965129","8.265745","1.802653","-0.382457","1774","2044","2157","1678","1755","1784","1684","1518","1459","1606","1318","1217","2189","888","526",""
"MA200-0420","25753","59","1","1.10","1.4","2023-05-19T10:22:00","120","2023/05/19","10:22:00","-15.770755112171173","35.04139365255833","0.9","15","30","64","81","-23258","270","9212","14","150","149.49","114.79","34.70","34.03","42.2","19.36","89572","34.25","DUALSPOT-UV-BLUE-GREEN-RED-IR","610952","650953","903625","26.904296","7.936825","0.005601","754779","862785","839852","17.783052","4.867703","0.014598","758211","847269","834677","15.003843","3.940338","0.004870","788418","848643","885003","11.968779","3.095732","-0.001834","714634","879083","963032","8.276588","1.803750","-0.689089","1174","1321","1382","1311","1645","1771","1196","1266","1291","1154","1135","1129","1319","441","196",""
"MA200-0420","25754","59","1","1.10","1.4","2023-05-19T10:22:30","120","2023/05/19","10:22:30","-15.770848333835602","35.04165132343769","0.3","15","30","64","82","-22295","-1379","6866","14","150","150.42","115.05","35.37","34.09","41.8","19.28","89596","34.19","DUALSPOT-UV-BLUE-GREEN-RED-IR","611741","651910","905034","26.931518","7.944984","-0.001371","755525","863832","840914","17.807102","4.874331","-0.009349","758230","847402","834884","15.022874","3.945637","-0.009774","788144","848438","884795","11.982682","3.098815","-0.050316","714029","878412","962298","8.290375","1.805108","-0.798644","1389","1354","1340","1549","1389","1328","1373","1243","1197","1212","874","756","1674","536","219",""
"MA200-0420","25755","59","1","1.10","1.4","2023-05-19T10:23:00","120","2023/05/19","10:23:00","-15.771003186702728","35.041747495532036","0.1","15","30","64","82","-21487","-708","11508","14","150","149.60","114.96","34.64","34.14","41.6","19.26","89608","34.13","DUALSPOT-UV-BLUE-GREEN-RED-IR","615216","655833","910627","26.973198","7.955028","-0.014695","753144","861316","838506","17.841936","4.883027","-0.017306","756837","846082","833644","15.055113","3.952223","-0.051454","793404","854273","890956","12.008031","3.103166","-0.115101","717353","882689","966995","8.309299","1.806505","-3.288529","2129","1703","1524","2246","1861","1716","2328","1578","1311","2212","1260","928","2299","563","81",""
"MA200-0420","25756","59","1","1.10","1.4","2023-05-19T10:23:30","120","2023/05/19","10:23:30","-15.771114766597748","35.04192582890391","1.0","15","30","64","81","-21533","616","11008","14","150","150.56","114.72","35.84","34.20","41.6","19.31","89604","34.13","DUALSPOT-UV-BLUE-GREEN-RED-IR","614212","654909","909347","27.002792","7.960724","-0.044282","752451","860685","837992","17.868310","4.888600","-0.044973","755702","844969","832576","15.075428","3.955132","-0.183408","791160","851952","888556","12.021848","3.104869","-0.369115","716389","881619","965825","8.320549","1.806804","0.833239","1515","933","690","1704","1152","944","1470","673","390","1208","476","222","1369","116","-230",""
"MA200-0420","25757","59","1","1.10","1.4","2023-05-19T10:24:00","120","2023/05/19","10:24:00","-15.771170735359192","35.042085994035006","0.8","15","30","64","82","-22916","1908","8991","14","150","149.38","114.77","34.61","34.21","41.4","19.24","89608","34.13","DUALSPOT-UV-BLUE-GREEN-RED-IR","609688","650294","903092","27.039738","7.971843","-0.000095","753265","861834","839192","17.897188","4.898220","0.007046","756648","846189","833848","15.099306","3.962422","0.001101","793336","854481","891203","12.041998","3.111148","0.003567","717295","882885","967208","8.334413","1.807929","-1.685700","1890","1887","1885","1865","2060","2134","1727","1748","1756","1761","1820","1840","1687","453","112",""
"MA200-0420","25758","59","1","1.10","1.4","2023-05-19T10:24:30","120","2023/05/19","10:24:30","-15.771098136901855","35.04187432676554","1.4","15","30","64","81","-21650","875","10500","14","150","150.15","115.01","35.14","34.24","41.1","19.14","89600","34.13","DUALSPOT-UV-BLUE-GREEN-RED-IR","612326","654876","910745","27.422326","8.105343","0.006122","750422","860610","838973","18.224296","5.008227","0.006693","753868","844915","833463","15.394451","4.058760","0.005519","790790","853329","890811","12.291345","3.188736","0.001981","715393","881784","966544","8.511555","1.858010","-0.012401","19539","22315","23480","21084","23208","24013","21306","22762","23284","21751","22153","22294","21516","19910","19462",""
"MA200-0420","25759","59","1","1.10","1.4","2023-05-19T10:25:00","120","2023/05/19","10:25:00","-15.77116072177887","35.04163099080324","1.0","15","30","64","82","-22092","424","9536","14","150","150.33","115.23","35.10","34.26","40.8","19.03","89596","34.19","DUALSPOT-UV-BLUE-GREEN-RED-IR","610589","653836","909886","27.638206","8.176910","0.004034","748863","859808","838665","18.412096","5.068445","0.003683","751956","843656","832584","15.563398","4.111117","0.001485","788908","852024","889751","12.434035","3.231598","-0.001531","714257","880910","965795","8.610662","1.883636","-0.027851","11004","11976","12385","12082","12719","12961","12172","12384","12460","12423","12252","12191","12015","10199","9691",""
"MA200-0420","25760","59","1","1.10","1.4","2023-05-19T10:25:30","120","2023/05/19","10:25:30","-15.771431803703308","35.041477989405394","1.2","16","30","64","81","-22383","-1000","9658","14","150","150.15","115.29","34.85","34.31","40.8","19.07","89588","34.31","DUALSPOT-UV-BLUE-GREEN-RED-IR","604688","647982","901996","27.745452","8.209633","0.000473","747824","859173","838252","18.507912","5.095613","-0.005055","751500","843609","832754","15.650826","4.134774","-0.010616","788492","852066","889976","12.508712","3.250423","-0.023131","713625","880512","965449","8.662588","1.895556","-0.051375","5463","5514","5536","6160","5778","5633","6295","5635","5398","6498","5418","5039","6291","4777","4353",""
"MA200-0420","25761","59","1","1.10","1.4","2023-05-19T10:26:00","120","2023/05/19","10:26:00","-15.7715562582016","35.0412786565721","0.7","16","30","64","82","-22988","-388","5320","14","150","149.65","115.83","33.82","34.38","40.8","19.15","89568","34.50","DUALSPOT-UV-BLUE-GREEN-RED-IR","608945","653263","909885","27.892860","8.260105","0.007066","747248","859422","838879","18.641084","5.136603","0.003738","750298","843111","832549","15.771584","4.170340","0.000750","786262","850321","888455","12.610428","3.280021","-0.000354","712173","879173","964227","8.734081","1.914223","-0.017918","7474","8766","9309","8523","8985","9161","8655","8731","8759","8810","8781","8771","8622","7711","7455",""
"MA200-0420","25762","59","1","1.10","1.4","2023-05-19T10:26:30","120","2023/05/19","10:26:30","-15.771555781364441","35.041052989661694","0.8","16","30","64","81","-23196","-112","6380","14","150","149.67","115.63","34.04","34.45","40.9","19.23","89560","34.69","DUALSPOT-UV-BLUE-GREEN-RED-IR","603124","649727","907050","28.408288","8.445068","0.008359","741839","855632","836346","19.000120","5.251819","0.005818","745675","839990","830422","16.073763","4.263056","0.003371","781867","847251","885979","12.851789","3.352108","0.001487","713649","882188","967958","8.887875","1.957361","-0.007271","26182","31912","34336","23019","25089","25880","21697","22610","22940","20942","21244","21350","18580","17701","17452",""
"MA200-0420","25763","59","1","1.10","1.4","2023-05-19T10:27:00","120","2023/05/19","10:27:00","-15.771680772304535","35.04084099084139","0.8","16","30","64","81","-23816","728","8568","14","150","150.07","115.39","34.68","34.53","40.9","19.31","89544","34.88","DUALSPOT-UV-BLUE-GREEN-RED-IR","603612","650654","908660","28.654236","8.529633","0.005939","742560","856968","837819","19.162764","5.299962","-0.001114","746482","841334","831898","16.215990","4.303509","-0.004855","782607","848441","887370","12.967246","3.383520","-0.011339","709577","877419","962855","8.964987","1.975582","-0.042143","12518","14321","15086","10448","10290","10230","10232","9684","9486","10038","9087","8751","9335","7339","6775",""
"MA200-0420","25764","59","1","1.10","1.4","2023-05-19T10:27:30","120","2023/05/19","10:27:30","-15.771847188472748","35.040650989860296","1.1","16","30","64","81","-22725","704","10833","14","150","149.41","115.12","34.29","34.64","40.8","19.38","89540","35.00","DUALSPOT-UV-BLUE-GREEN-RED-IR","601478","648876","906590","28.771198","8.569443","0.005876","740294","854965","836122","19.259612","5.330318","0.003512","744503","839608","830414","16.301743","4.330063","0.003149","781360","847540","886638","13.040578","3.405477","0.000552","712497","881439","967386","9.019783","1.988613","-0.038650","5967","6819","7181","6236","6563","6688","6184","6429","6518","6390","6425","6437","6649","5309","4930",""
"MA200-0420","25765","59","1","1.10","1.4","2023-05-19T10:28:00","120","2023/05/19","10:28:00","-15.771989405155182","35.040320821106434","0.8","16","30","64","81","-23687","850","4483","14","150","149.90","115.65","34.25","34.73","40.8","19.47","89536","35.13","DUALSPOT-UV-BLUE-GREEN-RED-IR","598966","646639","903775","28.889092","8.612236","0.008425","743124","858762","840110","19.358482","5.362070","0.005406","746086","841898","832914","16.390097","4.357404","0.003524","783144","849899","889283","13.113627","3.428149","0.004666","709322","877817","963566","9.074142","2.002547","-0.022957","5987","7339","7913","6337","6873","7078","6342","6628","6731","6337","6642","6750","6566","5683","5434",""
"MA200-0420","25766","59","1","1.10","1.4","2023-05-19T10:28:30","120","2023/05/19","10:28:30","-15.772175908088684","35.040041990578175","0.4","16","30","64","81","-22525","-420","10108","14","150","149.44","114.89","34.55","34.81","40.7","19.49","89544","35.19","DUALSPOT-UV-BLUE-GREEN-RED-IR","599991","648141","906139","28.987346","8.644211","0.003616","738623","853952","835548","19.433426","5.383933","-0.002220","747717","844155","835252","16.456011","4.374665","-0.012971","784804","852050","891639","13.168701","3.442743","-0.014554","710681","879820","965837","9.118452","2.012099","-0.062573","5023","5436","5611","4835","4691","4635","4763","4148","3925","4809","4238","4035","5387","3862","3430",""
"MA200-0420","25767","59","1","1.10","1.4","2023-05-19T10:29:00","120","2023/05/19","10:29:00","-15.772343397140503","35.03985499590635","1.0","17","30","64","81","-22475","258","10237","14","150","150.15","114.18","35.97","34.91","40.7","19.57","89544","35.38","DUALSPOT-UV-BLUE-GREEN-RED-IR","600912","649388","908063","29.042072","8.662209","0.002030","740101","855923","837578","19.472606","5.394644","-0.011494","743806","839902","831105","16.489426","4.381657","-0.051108","780245","847212","886628","13.194705","3.447684","-0.088003","707088","875499","961107","9.141716","2.016129","-0.149471","2815","2938","2991","2543","2207","2078","2429","1613","1318","2284","1378","1057","2846","1565","1202",""
"MA200-0420","25768","59","1","1.10","1.4","2023-05-19T10:29:30","120","2023/05/19","10:29:30","-15.772373616695404","35.039529494941235","1.2","15","30","64","81","-22612","-680","6856","14","150","149.52","115.12","34.40","35.00","40.6","19.62","89528","35.50","DUALSPOT-UV-BLUE-GREEN-RED-IR","598547","648059","907014","29.282546","8.740120","0.003659","737734","854327","836396","19.619998","5.435973","-0.004752","742252","839082","830620","16.612547","4.415447","-0.007526","784345","852445","892372","13.291728","3.472138","-0.020234","709459","879009","965123","9.207136","2.028222","-0.104020","12269","13302","13741","9491","8906","8681","8879","8154","7892","8455","7131","6663","7938","4910","4054",""
"MA200-0420","25769","59","1","1.10","1.4","2023-05-19T10:30:00","120","2023/05/19","10:30:00","-15.772340536117554","35.03949215635657","0.0","15","30","64","81","-21745","-579","11279","14","150","149.52","115.16","34.36","35.11","40.5","19.67","89520","35.63","DUALSPOT-UV-BLUE-GREEN-RED-IR","594574","648185","910686","30.273838","9.091232","0.006965","734586","855320","839527","20.362756","5.671883","0.004023","739005","839635","832993","17.275306","4.616696","0.001357","776412","847420","888673","13.844419","3.631649","-0.003364","704269","875254","962049","9.585226","2.126133","-0.021346","50559","60012","64069","47814","50892","52080","47780","48621","48927","48150","46569","46007","45864","39802","38074",""
"MA200-0420","25770","59","1","1.10","1.4","2023-05-19T10:30:30","120","2023/05/19","10:30:30","-15.772348046302795","35.03947949409485","0.1","15","30","64","80","-20383","-1104","13275","14","150","150.64","115.31","35.33","35.19","40.5","19.73","89520","35.75","DUALSPOT-UV-BLUE-GREEN-RED-IR","585680","641693","903809","31.030620","9.345707","0.003941","731231","854548","840071","20.897598","5.828679","-0.003055","736240","839258","833704","17.752464","4.749566","-0.008016","774477","847785","889950","14.250420","3.738440","-0.016671","702560","875027","962354","9.869522","2.189941","-0.053091","38548","42301","43919","34384","32896","32321","34354","31220","30075","35324","30322","28543","34441","25227","22599",""
"MA200-0420","25771","59","1","1.10","1.4","2023-05-19T10:31:00","120","2023/05/19","10:31:00","-15.772315859794617","35.03942982852459","1.0","15","30","64","81","-23129","162","5591","14","150","150.52","115.54","34.98","35.28","40.5","19.83","0","0.00","DUALSPOT-UV-BLUE-GREEN-RED-IR","582872","642815","908920","32.025234","9.714642","0.007625","723898","850435","838189","21.646342","6.075603","0.005096","729115","835199","831561","18.428916","4.964125","0.003317","767403","843661","887245","14.828978","3.911209","-0.001283","701758","876879","965530","10.285934","2.299059","-0.020377","50563","61944","66899","48041","52326","53998","48608","50920","51772","50239","49548","49301","50347","43573","41623",""
"MA200-0420","25772","59","1","1.10","1.4","2023-05-19T10:31:30","120","2023/05/19","10:31:30","-15.772275865077972","35.03917582705617","1.2","15","30","64","81","-24083","1187","8216","14","150","149.84","115.08","34.75","35.37","40.4","19.87","0","0.00","DUALSPOT-UV-BLUE-GREEN-RED-IR","578562","639062","904504","32.439620","9.871536","0.008242","725001","852515","840579","21.888796","6.152761","0.003187","729901","836736","833329","18.639704","5.025488","-0.002774","769000","845968","889897","15.013871","3.961003","-0.011466","702574","878473","967405","10.431120","2.329826","-0.059747","21149","26518","28867","15617","16460","16789","15206","14660","14458","16118","14375","13751","17623","12368","10856",""
"MA200-0420","25773","59","1","1.10","1.4","2023-05-19T10:32:00","120","2023/05/19","10:32:00","-15.772306203842163","35.03898449242115","0.4","15","30","64","81","-21676","2980","11100","14","150","150.07","115.63","34.44","35.45","40.2","19.87","89496","36.00","DUALSPOT-UV-BLUE-GREEN-RED-IR","580180","640919","907163","32.471356","9.883091","0.007460","720542","847388","835554","21.914990","6.158954","-0.018357","731295","838478","835079","18.664012","5.030233","-0.047875","764385","841088","884778","15.040979","3.965781","-0.082745","699215","874437","963022","10.458046","2.333042","-0.321978","1612","1970","2127","1679","1333","1197","1745","1143","921","2352","1391","1047","3252","1304","744",""
"MA200-0420","25774","59","1","1.10","1.4","2023-05-19T10:32:30","120","2023/05/19","10:32:30","-15.772263824939728","35.03876715898514","1.4","15","30","64","81","-22695","54","8100","14","150","150.02","115.20","34.82","35.55","40.0","19.88","89488","36.06","DUALSPOT-UV-BLUE-GREEN-RED-IR","580932","641848","908553","32.488842","9.889233","0.005809","722244","849496","837699","21.932018","6.164706","0.006398","727575","834288","830922","18.677420","5.033565","-0.017258","765350","842231","886009","15.054103","3.969040","-0.021233","699947","875480","964155","10.472504","2.335654","-0.102550","891","1035","1099","1095","1224","1274","966","794","730","1142","939","866","1753","1047","845",""
"MA200-0420","25775","59","1","1.10","1.4","2023-05-19T10:33:00","120","2023/05/19","10:33:00","-15.77222752571106","35.03851682692766","0.6","15","30","64","81","-23245","-204","7937","14","150","150.08","115.39","34.70","35.63","39.9","19.91","89476","36.13","DUALSPOT-UV-BLUE-GREEN-RED-IR","581442","642605","909873","32.539006","9.907543","0.007227","722802","850371","838667","21.968554","6.175691","-0.000009","728123","835082","831801","18.706136","5.040234","-0.024196","766119","843243","887156","15.078021","3.974032","-0.047148","700035","875741","964522","10.494587","2.339159","-0.147588","2553","3099","3338","2347","2347","2346","2066","1595","1422","2079","1443","1215","2673","1411","1048",""
"MA200-0420","25776","59","1","1.10","1.4","2023-05-19T10:33:30","120","2023/05/19","10:33:30","-15.772195875644684","35.038368824869394","0.7","15","30","64","80","-22804","-2004","9420","14","150","149.69","114.93","34.76","35.71","39.8","19.94","89468","36.13","DUALSPOT-UV-BLUE-GREEN-RED-IR","574332","638860","908254","33.541066","10.301689","0.009017","718245","847709","837301","22.411458","6.317270","0.003272","724915","833518","831082","19.037096","5.136216","-0.003141","763386","841852","886272","15.317907","4.036117","-0.015915","698287","874633","963566","10.632408","2.366078","-0.078727","51211","66596","73415","28569","30192","30829","23908","22923","22559","20941","17918","16836","16752","10817","9119",""
"MA200-0420","25777","59","1","1.10","1.4","2023-05-19T10:34:00","120","2023/05/19","10:34:00","-15.772189199924469","35.03817265853286","0.5","16","30","64","81","-22880","-1496","7440","14","150","149.87","115.13","34.74","35.78","39.7","19.94","89472","36.19","DUALSPOT-UV-BLUE-GREEN-RED-IR","571988","636554","905240","33.676012","10.351719","0.007365","715543","844828","834633","22.499606","6.346870","0.006032","726058","835092","832812","19.112480","5.160380","0.004105","765298","844238","888890","15.383901","4.054176","-0.009417","699247","876085","965231","10.683472","2.376308","-0.071280","6884","8457","9155","5675","6315","6567","5436","5774","5898","5750","5214","5023","6195","4113","3517",""
"MA200-0420","25778","59","1","1.10","1.4","2023-05-19T10:34:30","120","2023/05/19","10:34:30","-15.772188067436218","35.038111820816994","0.1","15","30","64","81","-21604","-3237","11470","14","150","149.83","114.85","34.97","35.84","39.6","19.97","89476","36.19","DUALSPOT-UV-BLUE-GREEN-RED-IR","567712","635058","905900","34.280744","10.578342","0.007297","712789","844219","835230","22.835432","6.451994","0.001643","724321","835241","833822","19.375672","5.236221","-0.004101","763796","844220","889509","15.579770","4.107205","-0.011384","698717","876483","966016","10.800365","2.402422","-0.048252","30925","38058","41242","21676","22282","22521","19025","18003","17624","17109","15211","14532","14217","10430","9346",""
"MA200-0420","25779","59","1","1.10","1.4","2023-05-19T10:35:00","120","2023/05/19","10:35:00","-15.772334933280945","35.037934489548206","0.9","15","30","64","81","-22128","412","10240","14","150","149.89","115.20","34.68","35.90","39.4","19.95","89480","36.19","DUALSPOT-UV-BLUE-GREEN-RED-IR","557875","630439","905058","36.160096","11.297115","0.007807","706247","841310","834684","23.815996","6.772083","0.004427","718413","832377","832717","20.155956","5.474664","0.001007","758957","841965","888414","16.160345","4.267972","-0.007565","695787","874761","964753","11.127853","2.475334","-0.045258","95817","121730","133504","63098","68420","70534","56231","57080","57396","50560","46507","45052","39710","29368","26410",""
