"Serial number","Datum ID","Session ID","Data format version","Firmware version","App version","Date / time local","Timezone offset (mins)","Date local (yyyy/MM/dd)","Time local (hh:mm:ss)","GPS lat (ddmm.mmmmm)","GPS long (dddmm.mmmmm)","GPS speed (km/h)","GPS sat count","Timebase (s)","Status","Battery remaining (%)","Accel X","Accel Y","Accel Z","Tape position","Flow setpoint (mL/min)","Flow total (mL/min)","Flow1 (mL/min)","Flow2 (mL/min)","Sample temp (C)","Sample RH (%)","Sample dewpoint (C)","Internal pressure (Pa)","Internal temp (C)","Optical config","UV Sen1","UV Sen2","UV Ref","UV ATN1","UV ATN2","UV K","Blue Sen1","Blue Sen2","Blue Ref","Blue ATN1","Blue ATN2","Blue K","Green Sen1","Green Sen2","Green Ref","Green ATN1","Green ATN2","Green K","Red Sen1","Red Sen2","Red Ref","Red ATN1","Red ATN2","Red K","IR Sen1","IR Sen2","IR Ref","IR ATN1","IR ATN2","IR K","UV BC1","UV BC2","UV BCc","Blue BC1","Blue BC2","Blue BCc","Green BC1","Green BC2","Green BCc","Red BC1","Red BC2","Red BCc","IR BC1","IR BC2","IR BCc","Readable status"
"MA200-0420","48078","78","1","1.10","1.6","2023-08-04T09:15:00","120","2023/08/04","09:15:00","-15.79566216468811","35.00271999952383","0.1","9","300","66","98","-529","-26916","-504","1","150","150.07","117.00","33.07","20.75","56.6","11.82","91120","20.94","DUALSPOT-UV-BLUE-GREEN-RED-IR","798812","704208","906134","0.000000","0.000000","0.000000","894030","889347","834288","0.000000","0.000000","0.000000","877288","868952","832040","0.000000","0.000000","0.000000","896033","873824","891533","0.000000","0.000000","0.000000","782668","902289","965571","0.000000","0.000000","0.000000","","","","","","","","","","","","","","","","Start up-DualSpot on"
"MA200-0420","48079","78","1","1.10","1.6","2023-08-04T09:20:00","120","2023/08/04","09:20:00","-15.795599639415741","35.00272783287801","0.1","10","300","64","98","-568","-27112","-532","1","150","149.92","116.88","33.04","20.86","55.7","11.67","91124","21.06","DUALSPOT-UV-BLUE-GREEN-RED-IR","796357","705396","909323","0.000000","0.000000","0.000000","893484","891446","837290","0.000000","0.000000","0.000000","876908","870737","834612","0.000000","0.000000","0.000000","887945","867711","885945","0.000000","0.000000","0.000000","778183","898260","961636","0.000000","0.000000","0.000000","","","","","","","","","","","","","","","","DualSpot on"
"MA200-0420","48080","78","1","1.10","1.6","2023-08-04T09:25:00","120","2023/08/04","09:25:00","-15.795599102973938","35.00267949979752","0.2","10","300","64","98","-508","-27008","-52","1","150","149.76","116.86","32.89","21.06","56.4","12.05","91120","21.50","DUALSPOT-UV-BLUE-GREEN-RED-IR","787612","701558","906409","0.787015","0.221179","0.000000","893863","894965","841614","0.476389","0.123822","0.000000","871149","867524","832354","0.394112","0.100583","0.000000","890601","872251","891289","0.308674","0.078022","0.000000","779584","901166","965182","0.190896","0.044295","0.000000","3955","3949","3955","3022","2790","3022","2799","2538","2799","2649","2379","2649","2281","1881","2281","DualSpot on"
"MA200-0420","48081","78","1","1.10","1.6","2023-08-04T09:30:00","120","2023/08/04","09:30:00","-15.795635342597961","35.00266249966808","0.1","13","300","64","98","-488","-27132","-600","1","150","150.02","116.90","33.11","21.38","56.8","12.45","91136","22.00","DUALSPOT-UV-BLUE-GREEN-RED-IR","782852","701746","909124","1.685912","0.490966","0.000000","883782","888204","836506","0.995719","0.269317","0.000000","867421","866484","832323","0.818246","0.214505","0.000000","887756","871595","891421","0.640629","0.168393","0.000000","777118","899844","964320","0.414133","0.099517","0.000000","4516","4785","4516","3293","3257","3293","3012","2856","3012","2848","2738","2848","2667","2329","2667","DualSpot on"
"MA200-0420","48082","78","1","1.10","1.6","2023-08-04T09:35:00","120","2023/08/04","09:35:00","-15.795571029186249","35.002754166256636","0.0","13","300","64","98","-458","-26962","-875","1","150","149.32","116.82","32.49","21.72","56.0","12.56","91148","22.38","DUALSPOT-UV-BLUE-GREEN-RED-IR","772066","696171","904278","2.545346","0.759113","0.000000","884355","891499","840643","1.430135","0.394373","0.000000","866939","868186","834743","1.163781","0.310558","0.000000","883035","868586","888971","0.903654","0.239654","0.000000","777815","901868","966892","0.597404","0.143638","0.000000","4321","4847","4321","2756","2853","2756","2455","2454","2455","2258","2200","2258","2191","1896","2191","DualSpot on"
"MA200-0420","48083","78","1","1.10","1.6","2023-08-04T09:40:00","120","2023/08/04","09:40:00","-15.795641720294952","35.002693499671295","0.0","13","300","64","98","-479","-26980","-324","1","150","149.44","116.67","32.77","21.98","54.6","12.42","91156","22.44","DUALSPOT-UV-BLUE-GREEN-RED-IR","766098","695218","905655","3.479591","1.051834","0.040795","879966","890074","840559","1.913738","0.542086","0.000000","863181","866765","834323","1.547432","0.423241","0.000000","880685","868050","889175","1.194810","0.324701","0.000000","775144","900123","965478","0.792648","0.191537","0.000000","4703","5246","5481","3072","3341","3072","2730","2854","2730","2503","2603","2503","2337","2041","2337","DualSpot on"
"MA200-0420","48084","78","1","1.10","1.6","2023-08-04T09:45:00","120","2023/08/04","09:45:00","-15.795616090297699","35.00274616619572","0.2","12","300","64","98","-592","-26847","-996","1","150","149.81","117.20","32.61","21.94","53.2","11.97","91128","22.13","DUALSPOT-UV-BLUE-GREEN-RED-IR","764305","697161","910233","4.218288","1.271957","0.021883","872946","886489","838598","2.489346","0.717645","0.000000","857469","864026","832940","2.048266","0.575250","0.000000","875019","864979","887100","1.604899","0.445977","0.000000","771662","897820","963770","1.069152","0.269450","0.000000","3702","3965","4078","3640","3991","3640","3547","3870","3547","3510","3731","3510","3295","3337","3295","DualSpot on"
"MA200-0420","48085","78","1","1.10","1.6","2023-08-04T09:50:00","120","2023/08/04","09:50:00","-15.79558652639389","35.0027304997202","0.2","12","300","64","97","-440","-27024","-444","1","150","150.40","116.82","33.57","21.83","52.9","11.79","91132","22.00","DUALSPOT-UV-BLUE-GREEN-RED-IR","755130","692243","905740","4.920767","1.483516","0.013044","871403","887593","840689","2.905959","0.838351","0.000000","851447","860074","829948","2.389198","0.670916","0.000000","875409","867017","889848","1.869737","0.519515","0.000000","772715","900170","966665","1.231645","0.309819","0.000000","3531","3701","3774","2643","2665","2643","2422","2365","2422","2274","2197","2274","1943","1679","1943","DualSpot on"
"MA200-0420","48086","78","1","1.10","1.6","2023-08-04T09:55:00","120","2023/08/04","09:55:00","-15.795600831508636","35.00278666638769","0.0","11","300","64","98","-412","-26966","-1550","1","150","149.96","117.20","32.76","21.77","52.8","11.70","91132","22.06","DUALSPOT-UV-BLUE-GREEN-RED-IR","747129","688809","903541","5.739027","1.736640","0.023119","866839","885578","839759","3.320342","0.955486","0.004692","852297","862977","833507","2.716482","0.761491","0.000000","870615","863805","887132","2.111421","0.585468","0.000000","769812","897753","964426","1.372131","0.345848","0.000000","4100","4538","4728","2621","2650","2662","2318","2295","2318","2068","2019","2068","1674","1536","1674","DualSpot on"
"MA200-0420","48087","78","1","1.10","1.6","2023-08-04T10:00:00","120","2023/08/04","10:00:00","-15.79557853937149","35.00278433319181","0.1","11","300","64","98","-341","-27079","-825","1","150","150.21","116.90","33.31","21.92","53.2","11.97","91132","22.25","DUALSPOT-UV-BLUE-GREEN-RED-IR","744183","688553","904753","6.284338","1.910072","0.022766","864778","885636","840624","3.671348","1.056790","0.004854","851405","863877","835067","3.011590","0.844669","-0.005052","871203","865856","889798","2.346617","0.647973","0.000000","770296","899399","966541","1.531213","0.384531","0.000000","2739","3058","3197","2225","2254","2266","2095","2073","2064","2018","1882","2018","1900","1622","1900","DualSpot on"
"MA200-0420","48088","78","1","1.10","1.6","2023-08-04T10:05:00","120","2023/08/04","10:05:00","-15.79556918144226","35.00274149957113","0.2","11","300","64","98","-444","-27016","-932","1","150","150.41","117.02","33.39","21.88","52.4","11.70","91128","22.06","DUALSPOT-UV-BLUE-GREEN-RED-IR","744131","690464","908418","6.689829","2.039066","0.021223","858307","880700","836718","3.952998","1.147449","0.038714","845283","859082","831049","3.248781","0.919419","0.039197","870914","866680","891197","2.534662","0.707343","0.000000","770247","900062","967653","1.650077","0.421457","0.000000","2035","2269","2372","1784","2013","2106","1682","1858","1928","1612","1784","1612","1418","1545","1418","DualSpot on"
"MA200-0420","48089","78","1","1.10","1.6","2023-08-04T10:10:00","120","2023/08/04","10:10:00","-15.795592665672302","35.00276166643016","0.1","11","300","64","98","-452","-27052","-620","1","150","150.47","117.18","33.29","21.92","53.0","11.89","91132","22.44","DUALSPOT-UV-BLUE-GREEN-RED-IR","736577","686560","905101","7.349500","2.243738","0.015913","858266","883539","840527","4.414219","1.280373","0.004491","845660","861893","834668","3.640747","1.030236","-0.001901","866934","864697","889937","2.850372","0.795316","0.000000","767685","898376","966402","1.856247","0.478223","0.000000","3306","3610","3744","2917","2959","2976","2777","2763","2758","2703","2651","2703","2457","2381","2457","DualSpot on"
"MA200-0420","48090","78","1","1.10","1.6","2023-08-04T10:15:00","120","2023/08/04","10:15:00","-15.795564353466034","35.00273083290085","0.1","11","300","64","98","-395","-27104","-270","1","150","150.08","117.20","32.88","22.26","53.6","12.38","91112","23.00","DUALSPOT-UV-BLUE-GREEN-RED-IR","736524","688427","908870","7.768417","2.380514","0.024573","853059","879854","837608","4.672891","1.350164","-0.012223","839528","856996","830390","3.858465","1.085258","-0.041558","866658","865510","891182","3.025626","0.840461","-0.042299","766727","898167","966420","1.981056","0.507041","0.000000","2099","2442","2594","1636","1573","1547","1542","1389","1329","1500","1377","1330","1487","1224","1487","DualSpot on"
"MA200-0420","48091","78","1","1.10","1.6","2023-08-04T10:20:00","120","2023/08/04","10:20:00","-15.795614302158356","35.00272533297539","0.0","11","300","64","98","-431","-26963","-524","1","150","150.02","116.98","33.03","22.51","52.8","12.39","91104","23.13","DUALSPOT-UV-BLUE-GREEN-RED-IR","731732","686239","907413","8.263571","2.543460","0.023333","848655","877227","835941","4.991841","1.447081","0.019375","841589","860739","834685","4.125172","1.163697","0.013241","864506","864664","890844","3.238573","0.902978","0.016083","763931","895943","964403","2.136568","0.544645","0.000000","2486","2897","3079","2021","2174","2237","1892","1971","2002","1826","1898","1926","1857","1590","1857","DualSpot on"
"MA200-0420","48092","78","1","1.10","1.6","2023-08-04T10:25:00","120","2023/08/04","10:25:00","-15.795612454414368","35.00272433296777","0.3","11","300","64","98","-420","-27156","-160","1","150","149.84","116.86","32.98","22.86","53.2","12.83","91100","23.69","DUALSPOT-UV-BLUE-GREEN-RED-IR","726175","685367","908962","9.184135","2.836774","0.017144","845473","877115","836952","5.482661","1.582437","-0.006010","837875","859485","834332","4.522556","1.266563","-0.028675","860622","862797","889625","3.544700","0.981241","-0.042142","760739","893689","962405","2.347223","0.590746","0.000000","4626","5224","5491","3113","3042","3014","2823","2589","2499","2628","2381","2286","2518","1953","2518","DualSpot on"
"MA200-0420","48093","78","1","1.10","1.6","2023-08-04T10:30:00","120","2023/08/04","10:30:00","-15.795654356479645","35.002762999618426","0.2","11","300","64","97","-468","-27116","-184","1","150","150.40","117.09","33.31","23.22","52.7","13.01","91112","24.00","DUALSPOT-UV-BLUE-GREEN-RED-IR","719557","681648","905755","9.758158","3.032531","0.022937","846089","879827","840421","5.830652","1.689446","0.017541","832512","855689","831336","4.812461","1.351106","0.007005","862287","865843","893352","3.774144","1.049480","0.015686","760656","894685","963849","2.514286","0.630718","0.000000","2879","3451","3709","2203","2381","2454","2055","2107","2127","1966","2055","2089","1993","1676","1993","DualSpot on"
"MA200-0420","48094","78","1","1.10","1.6","2023-08-04T10:35:00","120","2023/08/04","10:35:00","-15.795643866062164","35.00280233263038","0.1","11","300","64","98","-424","-27091","-652","1","150","150.34","116.78","33.56","23.55","51.5","12.97","91100","24.38","DUALSPOT-UV-BLUE-GREEN-RED-IR","720437","683908","909776","10.080765","3.144264","0.022796","841159","875984","837404","6.052750","1.762240","0.027352","833352","857663","833746","4.999069","1.408470","0.017714","857998","862424","890271","3.926199","1.096647","0.025310","761310","896258","965825","2.630380","0.656921","0.000000","1622","1955","2106","1409","1608","1689","1326","1419","1455","1306","1410","1450","1388","1090","1388","DualSpot on"
"MA200-0420","48095","78","1","1.10","1.6","2023-08-04T10:40:00","120","2023/08/04","10:40:00","-15.795588195323944","35.00281266612001","0.1","11","300","64","98","-456","-27152","-344","1","150","150.54","116.74","33.79","23.84","51.1","13.12","91092","24.69","DUALSPOT-UV-BLUE-GREEN-RED-IR","714571","679716","904995","10.374926","3.235452","0.009010","841721","877876","839641","6.253451","1.815968","-0.018945","832554","857958","834364","5.167874","1.450401","-0.047519","857046","862341","890488","4.062099","1.130947","-0.053103","759616","895024","964694","2.734918","0.676654","0.000000","1479","1584","1632","1274","1178","1139","1200","1030","963","1167","1018","960","1250","815","1250","DualSpot on"
"MA200-0420","48096","78","1","1.10","1.6","2023-08-04T10:45:00","120","2023/08/04","10:45:00","-15.795685827732086","35.00274183298461","0.0","12","300","64","98","-492","-27075","92","1","150","150.28","116.54","33.75","24.13","50.2","13.10","91080","24.81","DUALSPOT-UV-BLUE-GREEN-RED-IR","714163","680717","907355","10.686592","3.343298","0.020677","835619","872704","835244","6.453740","1.881599","0.024266","827297","853527","830506","5.335288","1.502257","0.016559","858325","864434","892979","4.194288","1.172082","0.022357","759406","895506","965416","2.836626","0.698615","0.000000","1570","1877","2016","1274","1441","1510","1192","1275","1308","1138","1222","1255","1219","909","1219","DualSpot on"
"MA200-0420","48097","78","1","1.10","1.6","2023-08-04T10:50:00","120","2023/08/04","10:50:00","-15.795657813549042","35.00274849962443","0.2","12","300","64","98","-296","-27088","-448","1","150","149.33","116.28","33.05","24.06","48.5","12.53","91084","24.44","DUALSPOT-UV-BLUE-GREEN-RED-IR","708894","677394","903898","11.047501","3.456668","0.012021","836867","875376","838433","6.682612","1.956015","0.025309","828602","855969","833313","5.518351","1.559353","0.021651","854641","861540","890417","4.332763","1.213023","0.012218","756718","892904","962799","2.922887","0.719821","0.000000","1823","2014","2102","1459","1669","1756","1307","1434","1484","1194","1242","1261","1036","896","1036","DualSpot on"
"MA200-0420","48098","78","1","1.10","1.6","2023-08-04T10:55:00","120","2023/08/04","10:55:00","-15.795714139938354","35.00272099953145","0.1","12","300","64","97","-445","-27041","-366","1","150","149.77","116.48","33.29","24.12","49.0","12.73","91064","24.81","DUALSPOT-UV-BLUE-GREEN-RED-IR","709901","680312","909090","11.477440","3.594505","0.013118","832542","872684","836553","6.982533","2.041542","-0.000452","824956","853753","831771","5.772252","1.631385","-0.001792","849503","857587","886832","4.537477","1.271829","0.001551","758750","896189","966666","3.057420","0.754908","-0.042980","2167","2431","2552","1908","1904","1902","1809","1796","1791","1763","1772","1775","1613","1472","1426","DualSpot on"
"MA200-0420","48099","78","1","1.10","1.6","2023-08-04T11:00:00","120","2023/08/04","11:00:00","-15.795766234397888","35.00272549968213","0.2","12","300","64","98","-380","-27108","-80","1","150","149.76","116.43","33.33","24.33","48.6","12.81","91060","25.06","DUALSPOT-UV-BLUE-GREEN-RED-IR","707882","679254","908280","11.676538","3.663425","0.020017","831509","872441","836698","7.120590","2.085977","0.021015","822969","852363","830723","5.890178","1.667166","0.013108","848210","856848","886301","4.629932","1.299507","0.012934","757018","894621","965135","3.126323","0.771677","-0.079401","1004","1214","1310","879","988","1033","840","891","911","796","833","847","826","702","662","DualSpot on"
"MA200-0420","48100","78","1","1.10","1.6","2023-08-04T11:05:00","120","2023/08/04","11:05:00","-15.795682966709137","35.0027749997098","0.2","12","300","64","98","-437","-26991","-345","1","150","149.56","116.15","33.41","24.64","49.4","13.35","91048","25.69","DUALSPOT-UV-BLUE-GREEN-RED-IR","701551","675084","903919","12.088848","3.797157","0.012982","831375","873882","838624","7.365867","2.149450","-0.022393","822412","853071","831795","6.085762","1.712411","-0.061492","849218","858877","888714","4.781872","1.336246","-0.059367","756400","894670","965384","3.230621","0.789979","-0.330087","2084","2351","2473","1565","1408","1343","1397","1124","1017","1312","1103","1022","1254","765","607","DualSpot on"
"MA200-0420","48101","78","1","1.10","1.6","2023-08-04T11:10:00","120","2023/08/04","11:10:00","-15.795728325843811","35.002720666117966","0.1","12","300","64","98","-396","-27003","-132","1","150","149.38","116.13","33.25","25.09","48.9","13.58","91060","26.06","DUALSPOT-UV-BLUE-GREEN-RED-IR","699252","674232","903792","12.406475","3.910150","0.021081","829424","873046","838380","7.574652","2.214974","0.015794","820231","851883","831038","6.262113","1.762801","-0.000440","847845","858385","888583","4.923725","1.376687","-0.001194","753547","892071","962804","3.346832","0.813560","-0.186878","1606","1996","2175","1332","1460","1513","1260","1258","1257","1225","1220","1218","1397","990","860","DualSpot on"
"MA200-0420","48102","78","1","1.10","1.6","2023-08-04T11:15:00","120","2023/08/04","11:15:00","-15.795791685581207","35.00261916639283","0.2","12","300","64","97","-400","-26958","-441","1","150","149.89","116.11","33.77","25.18","47.7","13.29","91040","25.75","DUALSPOT-UV-BLUE-GREEN-RED-IR","698274","675980","907908","12.984327","4.097911","0.011253","823201","869160","835775","8.002756","2.349466","0.012723","820181","854078","834172","6.629884","1.875299","0.010135","848836","861227","892324","5.221430","1.465770","0.007365","754294","894398","965834","3.549265","0.864395","-0.062116","2923","3265","3423","2733","2952","3043","2629","2765","2819","2572","2646","2675","2435","2102","1995","DualSpot on"
"MA200-0420","48103","78","1","1.10","1.6","2023-08-04T11:20:00","120","2023/08/04","11:20:00","-15.795699417591095","35.002675499767065","0.1","11","300","64","98","-424","-27003","-268","1","150","149.76","116.31","33.45","25.16","47.1","13.09","91032","25.63","DUALSPOT-UV-BLUE-GREEN-RED-IR","692255","672411","904633","13.503302","4.273838","0.015360","824240","872330","839807","8.369634","2.469313","0.019324","814959","850404","831399","6.945783","1.975590","0.018279","842864","856616","888245","5.475029","1.544895","0.019348","755305","896641","968684","3.714420","0.909266","-0.021215","2620","3089","3306","2338","2656","2789","2254","2489","2582","2187","2373","2446","1983","1874","1838","DualSpot on"
"MA200-0420","48104","78","1","1.10","1.6","2023-08-04T11:25:00","120","2023/08/04","11:25:00","-15.79567414522171","35.00273066642694","0.1","11","300","64","98","-444","-27140","-100","1","150","150.21","116.35","33.86","25.00","46.6","12.78","91016","25.25","DUALSPOT-UV-BLUE-GREEN-RED-IR","690371","674062","909379","14.294640","4.548864","0.015507","816724","867578","836803","8.924484","2.655124","0.019789","809553","847488","829856","7.421462","2.133828","0.022526","837736","853597","886200","5.854356","1.666572","0.021348","752819","895138","967777","3.951923","0.984416","0.026329","3994","4770","5132","3535","4067","4293","3394","3879","4075","3270","3605","3738","2851","3100","3182","DualSpot on"
"MA200-0420","48105","78","1","1.10","1.6","2023-08-04T11:30:00","120","2023/08/04","11:30:00","-15.795698165893555","35.00282883294858","0.1","11","300","64","97","-452","-26896","-404","1","150","150.39","115.92","34.47","24.97","47.3","12.98","91000","25.50","DUALSPOT-UV-BLUE-GREEN-RED-IR","683138","669180","904301","14.792702","4.717626","0.011488","816102","868978","839016","9.270658","2.760035","0.002859","808599","848208","831277","7.716429","2.221721","0.000369","838189","855467","888733","6.088534","1.734512","-0.005797","748396","890776","963459","4.096643","1.024480","-0.024757","2523","2875","3040","2213","2256","2274","2112","2116","2118","2026","1977","1957","1744","1623","1583","DualSpot on"
"MA200-0420","48106","78","1","1.10","1.6","2023-08-04T11:35:00","120","2023/08/04","11:35:00","-15.79566353559494","35.002805666066706","0.2","11","300","64","98","-483","-27124","-568","1","150","150.71","115.84","34.87","25.19","47.6","13.25","91000","25.88","DUALSPOT-UV-BLUE-GREEN-RED-IR","684539","671898","909101","15.113304","4.836132","0.016616","812189","866044","836739","9.476400","2.825230","0.007378","810456","851201","834613","7.888034","2.272880","-0.001725","841459","859626","893402","6.224533","1.774929","-0.002897","750021","893393","966491","4.192878","1.050257","-0.041066","1625","1996","2170","1316","1386","1415","1229","1218","1213","1177","1162","1157","1160","1032","990","DualSpot on"
"MA200-0420","48107","78","1","1.10","1.6","2023-08-04T11:40:00","120","2023/08/04","11:40:00","-15.79566752910614","35.00273783272132","0.1","11","300","64","98","-388","-27128","-236","1","150","149.95","115.92","34.04","25.32","46.8","13.12","90992","25.88","DUALSPOT-UV-BLUE-GREEN-RED-IR","679107","668165","905146","15.480953","4.965889","0.014807","813348","868457","839617","9.683023","2.893138","0.015015","806248","847720","831657","8.054523","2.324301","0.008436","835695","854485","888405","6.351100","1.813118","0.005861","750462","894469","967852","4.276586","1.068392","-0.125617","1862","2239","2416","1321","1479","1546","1192","1254","1279","1095","1125","1137","1008","744","656","DualSpot on"
"MA200-0420","48108","78","1","1.10","1.6","2023-08-04T11:45:00","120","2023/08/04","11:45:00","-15.795717656612396","35.00275099975988","0.3","10","300","64","98","-412","-27128","-132","1","150","149.47","115.69","33.78","25.39","47.0","13.26","90976","26.00","DUALSPOT-UV-BLUE-GREEN-RED-IR","678032","668236","906020","15.737003","5.050899","0.010677","812872","869025","840586","9.854295","2.941501","-0.004985","804964","847261","831529","8.197225","2.363425","-0.011429","834975","854462","888629","6.462563","1.842025","-0.028672","749582","893975","967464","4.350702","1.084839","-0.107991","1299","1478","1562","1097","1061","1046","1024","961","936","966","858","815","894","680","608","DualSpot on"
"MA200-0420","48109","78","1","1.10","1.6","2023-08-04T11:50:00","120","2023/08/04","11:50:00","-15.795773148536682","35.00270116631873","0.3","10","300","64","98","-424","-27075","-176","1","150","149.96","115.50","34.46","25.34","45.7","12.79","90972","25.50","DUALSPOT-UV-BLUE-GREEN-RED-IR","675855","667269","905664","16.014126","5.152231","0.015585","811111","868042","840184","10.020674","3.006184","0.030150","804248","847208","831872","8.331549","2.412939","0.029882","834577","854606","889081","6.563661","1.877810","0.031542","744812","888650","961895","4.414798","1.102748","-0.020945","1409","1727","1877","1067","1391","1530","965","1192","1285","878","1041","1107","775","726","709","DualSpot on"
"MA200-0420","48110","78","1","1.10","1.6","2023-08-04T11:55:00","120","2023/08/04","11:55:00","-15.795708537101746","35.002706832950935","0.2","10","300","64","98","-528","-27191","-427","1","150","149.71","115.99","33.72","25.04","45.2","12.36","90960","25.13","DUALSPOT-UV-BLUE-GREEN-RED-IR","674697","667112","906120","16.240887","5.228090","0.011199","810002","867733","840300","10.172675","3.058147","0.019761","803596","847228","832248","8.455647","2.456427","0.026556","834936","855513","890284","6.653750","1.905990","0.014471","746402","890774","964352","4.454527","1.115756","0.032358","1148","1321","1403","971","1142","1215","888","1070","1145","779","838","862","478","538","559","DualSpot on"
"MA200-0420","48111","78","1","1.10","1.6","2023-08-04T12:00:00","120","2023/08/04","12:00:00","-15.795678317546844","35.00271999952383","0.0","12","300","64","97","-388","-27088","-332","1","150","149.71","115.80","33.91","24.93","45.9","12.48","90948","25.31","DUALSPOT-UV-BLUE-GREEN-RED-IR","671545","665062","904031","16.477467","5.308189","0.011370","806661","865112","838168","10.332834","3.107124","0.005773","801771","846080","831487","8.589218","2.496779","0.004984","832662","853789","888770","6.757103","1.937096","0.005555","745860","890445","964147","4.507826","1.133217","0.030397","1199","1387","1476","1025","1070","1090","957","988","1000","895","920","930","642","719","745","DualSpot on"
"MA200-0420","48112","78","1","1.10","1.6","2023-08-04T12:05:00","120","2023/08/04","12:05:00","-15.795682966709137","35.00277516641654","0.5","12","300","64","98","-427","-27108","-336","1","150","150.02","116.07","33.96","24.95","46.0","12.53","90948","25.38","DUALSPOT-UV-BLUE-GREEN-RED-IR","675122","669663","911211","16.733894","5.403488","0.017052","805707","865042","838623","10.502631","3.166473","0.020759","800381","845419","831251","8.732525","2.545953","0.022466","830387","852106","887328","6.868270","1.973647","0.021565","749054","894683","968958","4.577440","1.154634","0.014102","1297","1648","1815","1084","1295","1386","1025","1202","1275","960","1079","1127","837","881","895","DualSpot on"
"MA200-0420","48113","78","1","1.10","1.6","2023-08-04T12:10:00","120","2023/08/04","12:10:00","-15.795659720897675","35.00272866641171","0.1","12","300","64","97","-528","-27088","-256","1","150","150.02","115.92","34.10","25.15","46.9","12.99","90948","26.00","DUALSPOT-UV-BLUE-GREEN-RED-IR","669682","665279","905928","16.962710","5.481910","0.011556","800574","860545","834633","10.663221","3.208887","-0.016060","800429","846320","832381","8.863999","2.577513","-0.039529","831758","854181","889779","6.976012","2.001371","-0.030568","744297","889498","963495","4.650299","1.172644","-0.058412","1159","1350","1442","1027","922","876","941","768","697","932","815","768","878","737","690","DualSpot on"
"MA200-0420","48114","78","1","1.10","1.6","2023-08-04T12:15:00","120","2023/08/04","12:15:00","-15.795708656311035","35.00277766631916","0.2","12","300","64","98","-516","-27052","-239","1","150","150.34","115.68","34.66","25.54","46.8","13.32","90944","26.44","DUALSPOT-UV-BLUE-GREEN-RED-IR","670624","667993","911057","17.383928","5.636585","0.014390","802097","863710","838389","10.923347","3.292030","0.007973","801583","848821","835395","9.081097","2.643281","0.001679","827997","851358","887254","7.146508","2.051486","-0.003848","744762","890927","965355","4.777902","1.203886","-0.067762","2138","2620","2852","1667","1778","1826","1558","1575","1582","1478","1450","1439","1540","1259","1164","DualSpot on"
"MA200-0420","48115","78","1","1.10","1.6","2023-08-04T12:20:00","120","2023/08/04","12:20:00","-15.795687139034271","35.00271216640249","0.1","13","300","64","98","-496","-27075","520","1","150","149.95","115.99","33.96","25.69","46.6","13.40","90936","26.13","DUALSPOT-UV-BLUE-GREEN-RED-IR","667042","666096","909712","17.771446","5.774297","0.013541","798935","861696","837063","11.163366","3.369814","0.011906","798585","846798","833891","9.278584","2.703231","0.005342","832330","856714","893241","7.299740","2.095412","-0.004110","742009","888370","962802","4.885471","1.227449","-0.103665","1962","2382","2584","1533","1698","1769","1413","1465","1487","1325","1297","1286","1295","969","859","DualSpot on"
"MA200-0420","48116","78","1","1.10","1.6","2023-08-04T12:25:00","120","2023/08/04","12:25:00","-15.795710325241089","35.00272749969736","0.2","13","300","64","97","-444","-27091","-248","1","150","150.40","115.73","34.67","25.56","46.2","13.16","90932","25.81","DUALSPOT-UV-BLUE-GREEN-RED-IR","660777","661395","904490","18.143912","5.907516","0.012308","793298","856875","833072","11.392207","3.448111","0.014858","794516","843533","831193","9.464740","2.764714","0.013359","826475","851503","888212","7.440151","2.140103","0.010832","744252","891593","966508","4.967378","1.250189","-0.021843","1890","2256","2433","1465","1674","1764","1335","1472","1528","1217","1293","1323","988","916","891","DualSpot on"
"MA200-0420","48117","78","1","1.10","1.6","2023-08-04T12:30:00","120","2023/08/04","12:30:00","-15.795710682868958","35.00266333320178","0.1","13","300","64","98","-495","-27120","320","1","150","150.21","115.95","34.26","25.54","47.4","13.53","90908","26.19","DUALSPOT-UV-BLUE-GREEN-RED-IR","661436","663996","909455","18.589364","6.064516","0.011978","795405","860867","837621","11.667982","3.531140","0.002285","795609","846036","834232","9.689919","2.829605","-0.003708","828551","854761","892024","7.613904","2.189429","-0.007620","741741","889257","964226","5.068115","1.276671","-0.034081","2256","2691","2902","1763","1796","1811","1612","1572","1556","1503","1444","1420","1213","1079","1034","DualSpot on"
"MA200-0420","48118","78","1","1.10","1.6","2023-08-04T12:35:00","120","2023/08/04","12:35:00","-15.79573941230774","35.00272166635841","0.1","13","300","64","98","-444","-27103","-304","1","150","150.15","115.95","34.19","25.61","46.9","13.41","90900","25.94","DUALSPOT-UV-BLUE-GREEN-RED-IR","654918","659454","904928","19.076184","6.249838","0.015835","795272","862293","839869","11.956693","3.635150","0.020209","794423","846124","834982","9.927822","2.913064","0.021320","822021","849042","886607","7.794501","2.248203","0.016315","741424","889623","964965","5.185301","1.311565","0.002503","2465","3183","3533","1845","2255","2433","1703","2026","2160","1562","1724","1790","1411","1425","1430","DualSpot on"
"MA200-0420","48119","78","1","1.10","1.6","2023-08-04T12:40:00","120","2023/08/04","12:40:00","-15.79562908411026","35.00273699965328","0.1","13","300","64","98","-276","-27275","239","1","150","149.60","115.63","33.97","25.54","47.4","13.53","90896","26.06","DUALSPOT-UV-BLUE-GREEN-RED-IR","652962","659361","906248","19.524612","6.410637","0.012652","788994","857027","835478","12.225044","3.719634","0.007617","789760","842422","831897","10.145447","2.979582","0.005312","823284","851313","889387","7.958981","2.295764","-0.002873","737936","885998","961275","5.280060","1.336989","-0.024940","2277","2779","3025","1720","1843","1897","1562","1625","1651","1427","1404","1395","1144","1045","1011","DualSpot on"
"MA200-0420","48120","78","1","1.10","1.6","2023-08-04T12:45:00","120","2023/08/04","12:45:00","-15.795543253421783","35.00285716634244","0.2","13","300","64","97","-454","-27175","4","1","150","149.56","116.03","33.53","25.59","47.2","13.50","90880","26.06","DUALSPOT-UV-BLUE-GREEN-RED-IR","652981","661128","910143","19.954640","6.573396","0.015840","789293","858832","837954","12.479448","3.806448","0.016560","785901","839486","829575","10.356110","3.050244","0.017932","818967","847789","886143","8.120442","2.347746","0.017052","739706","888777","964538","5.377941","1.363727","-0.014667","2176","2851","3182","1625","1919","2048","1507","1749","1851","1396","1555","1620","1178","1114","1092","DualSpot on"
"MA200-0420","48121","78","1","1.10","1.6","2023-08-04T12:50:00","120","2023/08/04","12:50:00","-15.795626044273376","35.00279049971141","0.2","13","300","64","98","-433","-27062","-250","1","150","149.77","115.73","34.05","25.67","47.5","13.67","90876","26.25","DUALSPOT-UV-BLUE-GREEN-RED-IR","648297","658159","907498","20.378032","6.731659","0.014122","784673","855267","835158","12.735237","3.891069","0.011937","787517","842386","832972","10.564809","3.114885","0.006595","822495","852391","891407","8.280588","2.395506","0.002281","737200","886456","962285","5.481983","1.390394","-0.038041","2148","2730","3017","1638","1842","1932","1497","1576","1609","1388","1407","1415","1255","1094","1039","DualSpot on"
"MA200-0420","48122","78","1","1.10","1.6","2023-08-04T12:55:00","120","2023/08/04","12:55:00","-15.795654475688934","35.00276149949059","0.0","13","300","64","98","-391","-27012","-354","1","150","150.15","115.92","34.23","25.75","47.2","13.64","90864","26.31","DUALSPOT-UV-BLUE-GREEN-RED-IR","648358","659887","911329","20.792946","6.888202","0.014108","786069","858179","838705","12.980618","3.972828","0.012020","783337","839048","830239","10.764368","3.178060","0.008611","816746","847342","886525","8.434068","2.441541","0.002561","738155","888255","964496","5.579410","1.416071","-0.030176","2102","2686","2975","1569","1770","1859","1429","1532","1575","1328","1349","1357","1174","1047","1004","DualSpot on"
"MA200-0420","48123","78","1","1.10","1.6","2023-08-04T13:00:00","120","2023/08/04","13:00:00","-15.79568099975586","35.00271766632795","0.1","12","300","64","98","-440","-27100","-376","1","150","149.53","115.34","34.20","25.91","47.3","13.84","90852","26.50","DUALSPOT-UV-BLUE-GREEN-RED-IR","644496","657600","909575","21.196034","7.042228","0.014244","782752","855927","837161","13.219129","4.052693","0.011893","785115","842101","833777","10.961123","3.240639","0.008539","819810","851409","891223","8.585775","2.487872","0.004726","740076","891227","967979","5.681762","1.443594","-0.025083","2052","2645","2940","1533","1731","1819","1416","1519","1562","1319","1359","1375","1239","1124","1085","DualSpot on"
"MA200-0420","48124","78","1","1.10","1.6","2023-08-04T13:05:00","120","2023/08/04","13:05:00","-15.795714974403381","35.00272799958475","0.4","13","300","64","97","-500","-26996","-284","1","150","149.40","115.30","34.10","26.06","47.2","13.94","90848","26.75","DUALSPOT-UV-BLUE-GREEN-RED-IR","641001","655528","907981","21.567092","7.183880","0.014084","780490","854744","836650","13.448935","4.128831","0.011008","781923","839755","831894","11.147751","3.299713","0.008158","816873","849251","889331","8.733393","2.533775","0.007755","737054","888274","965029","5.784860","1.467757","-0.066555","1890","2440","2714","1477","1655","1734","1343","1438","1478","1284","1350","1377","1249","989","901","DualSpot on"
"MA200-0420","48125","78","1","1.10","1.6","2023-08-04T13:10:00","120","2023/08/04","13:10:00","-15.795688211917877","35.00277133285999","0.2","13","300","64","98","-425","-27104","-70","1","150","150.41","115.84","34.57","26.15","46.7","13.84","90840","26.69","DUALSPOT-UV-BLUE-GREEN-RED-IR","640421","656185","909983","21.877204","7.300915","0.012991","780576","855952","838389","13.645694","4.196507","0.013224","782022","840772","833348","11.310221","3.352946","0.010796","817549","850676","891226","8.859640","2.571982","0.002189","737364","889227","966249","5.868692","1.489064","-0.042284","1572","1988","2196","1259","1451","1536","1164","1278","1326","1093","1108","1115","1010","860","809","DualSpot on"
"MA200-0420","48126","78","1","1.10","1.6","2023-08-04T13:15:00","120","2023/08/04","13:15:00","-15.795600295066833","35.00276316632517","0.0","13","300","64","98","-425","-26991","-200","1","150","149.52","115.65","33.87","26.03","45.9","13.47","90844","26.25","DUALSPOT-UV-BLUE-GREEN-RED-IR","637121","654114","908179","22.196022","7.422069","0.013915","777508","853691","836847","13.855042","4.273391","0.019382","779892","839426","832524","11.483668","3.414226","0.019760","815638","849447","890316","8.996314","2.618436","0.020517","736254","888451","965628","5.952642","1.512215","-0.014278","1619","2100","2342","1341","1682","1834","1245","1501","1610","1185","1375","1454","1014","954","934","DualSpot on"
"MA200-0420","48127","78","1","1.10","1.6","2023-08-04T13:20:00","120","2023/08/04","13:20:00","-15.79566901922226","35.002782832831144","0.0","13","300","64","97","-474","-27108","-311","1","150","150.21","115.92","34.30","25.94","45.9","13.39","90832","26.06","DUALSPOT-UV-BLUE-GREEN-RED-IR","635954","654211","909399","22.513988","7.541630","0.012855","776715","854000","837749","14.063928","4.347741","0.016149","779359","839790","833406","11.656972","3.474074","0.016502","816320","850922","892270","9.131248","2.662799","0.014858","732689","884564","961643","6.030124","1.536640","0.013383","1611","2047","2267","1335","1607","1728","1241","1448","1536","1167","1297","1351","933","994","1015","DualSpot on"
"MA200-0420","48128","78","1","1.10","1.6","2023-08-04T13:25:00","120","2023/08/04","13:25:00","-15.795594155788422","35.00279133301228","0.1","13","300","64","97","-420","-26891","-192","1","150","150.46","115.88","34.58","25.69","46.0","13.22","90820","25.88","DUALSPOT-UV-BLUE-GREEN-RED-IR","632319","651909","907393","22.865006","7.673515","0.012268","773100","851219","835662","14.280955","4.422998","0.013309","777619","838896","833043","11.837152","3.537017","0.016531","813833","849134","890750","9.267250","2.707557","0.013686","732469","884784","962135","6.106752","1.562602","0.025198","1779","2240","2472","1388","1613","1714","1290","1511","1605","1177","1298","1348","923","1048","1091","DualSpot on"
"MA200-0420","48129","78","1","1.10","1.6","2023-08-04T13:30:00","120","2023/08/04","13:30:00","-15.795681297779083","35.002760832896456","0.1","14","300","64","97","-456","-27188","-520","1","150","149.82","115.76","34.06","25.50","46.4","13.15","90820","25.81","DUALSPOT-UV-BLUE-GREEN-RED-IR","632553","653364","910420","23.165494","7.786007","0.012552","774638","854020","838989","14.481155","4.492658","0.014445","778070","840318","834951","12.004047","3.593796","0.015181","815373","851492","893620","9.396449","2.748557","0.010618","734379","887473","965255","6.174953","1.586353","0.032066","1524","1939","2149","1282","1516","1621","1196","1383","1463","1119","1207","1243","823","974","1026","DualSpot on"
"MA200-0420","48130","78","1","1.10","1.6","2023-08-04T13:35:00","120","2023/08/04","13:35:00","-15.795601844787598","35.00279033300467","0.1","14","300","64","98","-404","-27016","-300","1","150","150.27","115.65","34.62","25.44","46.8","13.24","90816","25.75","DUALSPOT-UV-BLUE-GREEN-RED-IR","630321","652352","910174","23.485138","7.910888","0.013418","773020","853441","839063","14.696181","4.569041","0.014503","771670","834376","829563","12.183368","3.657353","0.017087","807369","843914","886094","9.536541","2.795093","0.014084","733655","887096","965129","6.257713","1.612326","0.009782","1623","2118","2370","1378","1635","1751","1287","1524","1625","1215","1348","1403","999","1048","1064","DualSpot on"
"MA200-0420","48131","78","1","1.10","1.6","2023-08-04T13:40:00","120","2023/08/04","13:40:00","-15.795668542385101","35.0027881662827","0.3","14","300","64","97","-344","-27084","-192","1","150","150.08","115.52","34.56","25.32","46.7","13.08","90816","25.50","DUALSPOT-UV-BLUE-GREEN-RED-IR","624535","647939","905423","23.890286","8.069332","0.013264","766653","847786","834331","14.957322","4.666686","0.017809","771813","835722","831535","12.401237","3.734940","0.017262","808687","846240","889018","9.703807","2.852621","0.018017","735256","889597","968166","6.355882","1.644936","0.020384","2059","2692","3015","1675","2094","2284","1565","1863","1992","1452","1669","1760","1187","1318","1363","DualSpot on"
"MA200-0420","48132","78","1","1.10","1.6","2023-08-04T13:45:00","120","2023/08/04","13:45:00","-15.795671999454498","35.00265816622414","0.1","13","300","64","98","-420","-27270","791","1","150","150.15","115.73","34.42","25.12","46.8","12.95","90820","25.25","DUALSPOT-UV-BLUE-GREEN-RED-IR","624704","650235","910474","24.411896","8.265880","0.011778","768353","851528","838989","15.295041","4.784071","0.012883","772993","838537","835158","12.681675","3.833449","0.016244","805161","843759","887064","9.917531","2.921860","0.011324","729399","883201","961587","6.474842","1.684476","0.021173","2647","3353","3715","2163","2528","2694","2011","2376","2533","1852","2018","2087","1435","1604","1664","DualSpot on"
"MA200-0420","48133","78","1","1.10","1.6","2023-08-04T13:50:00","120","2023/08/04","13:50:00","-15.79566115140915","35.00270166620612","0.1","13","300","64","98","-395","-27145","-475","1","150","149.71","115.46","34.25","24.89","46.9","12.76","90816","24.94","DUALSPOT-UV-BLUE-GREEN-RED-IR","620223","647739","908942","24.966384","8.482193","0.012942","764607","849252","837807","15.641506","4.912460","0.017042","765663","832080","829575","12.967862","3.935623","0.017444","802526","842199","886034","10.134936","2.995098","0.015937","733296","888673","967938","6.595958","1.725523","0.024530","2820","3709","4167","2224","2779","3032","2057","2476","2659","1889","2145","2252","1465","1674","1748","DualSpot on"
"MA200-0420","48134","78","1","1.10","1.6","2023-08-04T13:55:00","120","2023/08/04","13:55:00","-15.795621871948242","35.002742999466136","0.1","13","300","64","98","-456","-27012","-380","1","150","150.15","115.75","34.40","24.66","47.3","12.71","90804","24.81","DUALSPOT-UV-BLUE-GREEN-RED-IR","617994","647071","909424","25.378810","8.640545","0.012093","762902","848814","838190","15.910462","5.008554","0.014328","765191","832750","830921","13.191033","4.014355","0.016073","807644","848538","893223","10.306332","3.052729","0.015276","729618","884762","963979","6.687826","1.757482","0.028112","2092","2704","3019","1722","2071","2231","1600","1900","2031","1485","1680","1763","1108","1297","1365","DualSpot on"
"MA200-0420","48135","78","1","1.10","1.6","2023-08-04T14:00:00","120","2023/08/04","14:00:00","-15.795655488967896","35.00276999967173","0.1","13","300","64","98","-427","-26991","-164","1","150","149.73","115.99","33.74","24.56","47.7","12.73","90800","24.63","DUALSPOT-UV-BLUE-GREEN-RED-IR","612853","643393","905787","25.814220","8.813053","0.013740","764103","851620","841742","16.178082","5.103677","0.015131","765900","834757","833574","13.412551","4.092532","0.017504","803840","845513","890548","10.475724","3.108672","0.015402","731339","887413","967196","6.783880","1.788490","0.019115","2204","3003","3416","1710","2089","2264","1585","1923","2072","1465","1663","1747","1156","1283","1329","DualSpot on"
"MA200-0420","48136","78","1","1.10","1.6","2023-08-04T14:05:00","120","2023/08/04","14:05:00","-15.795707643032074","35.00266116624698","0.1","13","300","64","98","-427","-27003","-380","1","150","150.15","116.44","33.70","24.55","48.3","12.89","90804","24.88","DUALSPOT-UV-BLUE-GREEN-RED-IR","611355","643339","907185","26.213772","8.971004","0.013635","756668","844591","835542","16.414993","5.186474","0.014178","765556","835493","834804","13.608521","4.157013","0.012095","797859","840046","885231","10.623898","3.156016","0.012129","727473","883274","962901","6.873827","1.816116","0.011169","2015","2752","3136","1508","1821","1965","1397","1588","1672","1276","1409","1465","1079","1145","1168","DualSpot on"
"MA200-0420","48137","78","1","1.10","1.6","2023-08-04T14:10:00","120","2023/08/04","14:10:00","-15.79563421010971","35.00273066642694","0.0","13","300","64","98","-420","-27068","-392","1","150","149.89","115.48","34.41","24.55","48.1","12.83","90800","24.75","DUALSPOT-UV-BLUE-GREEN-RED-IR","610275","643736","909139","26.604126","9.123459","0.012073","756080","845347","837005","16.666138","5.276656","0.013860","760412","830979","830927","13.818604","4.230708","0.014737","798425","841548","887288","10.787974","3.209303","0.010534","727885","884413","964464","6.980068","1.845893","-0.012546","1985","2602","2924","1612","1943","2096","1510","1778","1896","1425","1553","1608","1285","1209","1181","DualSpot on"
"MA200-0420","48138","78","1","1.10","1.6","2023-08-04T14:15:00","120","2023/08/04","14:15:00","-15.79561460018158","35.0027799999807","0.0","13","300","64","98","-395","-27029","-304","1","150","149.95","115.64","34.31","24.23","47.5","12.37","90800","24.06","DUALSPOT-UV-BLUE-GREEN-RED-IR","605994","640837","906491","27.018052","9.286720","0.012366","751357","841429","833998","16.933076","5.380141","0.018308","757191","828626","829286","14.041974","4.317082","0.021685","800648","844890","891310","10.960375","3.270012","0.019182","726407","883143","963421","7.074407","1.882910","0.043146","2102","2794","3157","1711","2235","2480","1603","2089","2305","1495","1775","1893","1139","1507","1640","DualSpot on"
"MA200-0420","48139","78","1","1.10","1.6","2023-08-04T14:20:00","120","2023/08/04","14:20:00","-15.795611143112183","35.00282033276744","0.5","13","300","64","98","-391","-26979","-475","1","150","149.69","115.40","34.29","23.83","48.0","12.14","90788","23.69","DUALSPOT-UV-BLUE-GREEN-RED-IR","602670","638848","905119","27.412624","9.444138","0.012525","748371","839536","833016","17.215220","5.487710","0.017056","760206","833172","834591","14.282188","4.408235","0.020035","799080","844251","891283","11.153519","3.339780","0.021110","726939","884362","965154","7.180542","1.923960","0.040647","2008","2696","3058","1812","2325","2565","1728","2207","2420","1679","2041","2196","1284","1672","1814","DualSpot on"
"MA200-0420","48140","78","1","1.10","1.6","2023-08-04T14:25:00","120","2023/08/04","14:25:00","-15.795576989650726","35.00276466622017","0.2","12","300","64","98","-396","-26960","-435","1","150","150.27","116.03","34.24","23.52","48.7","12.09","90796","23.44","DUALSPOT-UV-BLUE-GREEN-RED-IR","598722","636386","903234","27.864178","9.625439","0.012745","750546","843614","838004","17.517974","5.600363","0.015820","758392","832539","834762","14.542044","4.503989","0.018209","797449","843660","891287","11.359348","3.410454","0.016669","726789","884857","966062","7.294111","1.965121","0.032616","2285","3109","3544","1934","2438","2675","1859","2321","2529","1779","2070","2195","1367","1679","1794","DualSpot on"
"MA200-0420","48141","78","1","1.10","1.6","2023-08-04T14:30:00","120","2023/08/04","14:30:00","-15.79564368724823","35.00271533289924","0.2","12","300","64","98","-444","-26975","-548","1","150","149.63","116.03","33.59","23.27","49.6","12.14","90796","23.25","DUALSPOT-UV-BLUE-GREEN-RED-IR","590905","633420","904427","29.275424","10.207584","0.013486","746536","843402","840226","18.299394","5.881405","0.014380","753967","831161","835226","15.167852","4.719512","0.014230","794245","843077","892092","11.841537","3.566694","0.012311","721538","880237","961946","7.582052","2.054744","0.012326","7143","10178","11803","4992","6202","6775","4477","5326","5710","4169","4666","4880","3466","3727","3823","DualSpot on"
"MA200-0420","48142","78","1","1.10","1.6","2023-08-04T14:35:00","120","2023/08/04","14:35:00","-15.795721650123596","35.0027234996669","0.1","12","300","64","98","-456","-26980","-520","1","150","149.74","116.00","33.74","23.10","49.9","12.09","90800","23.13","DUALSPOT-UV-BLUE-GREEN-RED-IR","585504","630965","904644","30.238610","10.627235","0.014363","736348","834552","833022","18.826458","6.080472","0.016255","746930","825570","830835","15.592803","4.873169","0.016758","786186","836346","885921","12.176017","3.677435","0.013581","721064","880916","963282","7.794256","2.120734","0.011131","4877","7305","8621","3368","4374","4853","3041","3781","4117","2892","3293","3466","2555","2732","2798","DualSpot on"
"MA200-0420","48143","78","1","1.10","1.6","2023-08-04T14:40:00","120","2023/08/04","14:40:00","-15.795600295066833","35.00276399985887","0.1","13","300","64","98","-395","-26933","-470","1","150","149.95","115.76","34.19","22.97","50.3","12.09","90796","23.06","DUALSPOT-UV-BLUE-GREEN-RED-IR","581284","629200","905146","31.032994","10.971760","0.013536","740164","841253","841092","19.278248","6.247979","0.014215","744533","824851","831202","15.960782","5.003143","0.013900","789765","841798","892556","12.471115","3.774658","0.011380","720614","881523","964529","7.989664","2.179752","0.003750","4030","5918","6950","2893","3631","3985","2639","3155","3391","2557","2852","2980","2358","2411","2431","DualSpot on"
"MA200-0420","48144","78","1","1.10","1.6","2023-08-04T14:45:00","120","2023/08/04","14:45:00","-15.795632481575012","35.00273933284916","0.1","13","300","64","98","-524","-26940","-412","1","150","149.83","116.59","33.24","22.83","50.3","11.95","90808","22.75","DUALSPOT-UV-BLUE-GREEN-RED-IR","578173","627500","904526","31.502522","11.174805","0.014119","737695","839984","840807","19.580868","6.364628","0.017510","742980","824430","831516","16.211966","5.095777","0.018497","788846","841981","893367","12.674844","3.843262","0.016287","720428","882116","965575","8.120102","2.220506","0.014374","2365","3588","4260","1924","2601","2928","1788","2313","2554","1753","2070","2209","1562","1712","1769","DualSpot on"
"MA200-0420","48145","78","1","1.10","1.6","2023-08-04T14:50:00","120","2023/08/04","14:50:00","-15.795652210712433","35.00272333296016","0.1","13","300","64","98","-360","-27008","-20","1","150","149.76","116.23","33.52","22.61","50.3","11.75","90800","22.50","DUALSPOT-UV-BLUE-GREEN-RED-IR","580260","630793","910434","31.790192","11.299019","0.013696","734690","837587","839069","19.783984","6.444295","0.017590","741599","823779","831433","16.384249","5.162277","0.020178","787424","841215","892978","12.814607","3.891437","0.017075","720260","882373","966100","8.202175","2.248134","0.022813","1453","2176","2574","1295","1761","1986","1230","1646","1838","1206","1441","1544","986","1151","1213","DualSpot on"
"MA200-0420","48146","78","1","1.10","1.6","2023-08-04T14:55:00","120","2023/08/04","14:55:00","-15.795677483081818","35.002776332898065","0.1","13","300","64","98","-376","-26924","-500","1","150","149.47","116.04","33.43","22.33","50.5","11.55","90792","22.19","DUALSPOT-UV-BLUE-GREEN-RED-IR","576264","627601","907000","32.105320","11.429474","0.012591","731077","834683","836909","20.019794","6.534783","0.016491","742919","826328","834654","16.589897","5.239948","0.018838","783442","837913","889974","12.983228","3.950409","0.018118","718214","880462","964361","8.303598","2.284660","0.030892","1595","2292","2677","1506","2006","2249","1471","1928","2140","1457","1769","1906","1220","1526","1642","DualSpot on"
"MA200-0420","48147","78","1","1.10","1.6","2023-08-04T15:00:00","120","2023/08/04","15:00:00","-15.79563719034195","35.00271399971098","0.3","13","300","64","98","-360","-27063","-356","1","150","149.47","116.03","33.44","22.16","50.9","11.52","90796","22.06","DUALSPOT-UV-BLUE-GREEN-RED-IR","570873","623081","901809","32.473190","11.582619","0.012584","730430","835234","838186","20.258856","6.621165","0.013517","738810","822784","831693","16.788968","5.309544","0.014155","778050","833015","885257","13.141471","4.002980","0.013708","715445","877548","961490","8.393274","2.313847","0.018059","1862","2690","3149","1527","1915","2103","1424","1728","1868","1368","1577","1668","1079","1219","1272","DualSpot on"
"MA200-0420","48148","78","1","1.10","1.6","2023-08-04T15:05:00","120","2023/08/04","15:05:00","-15.795622527599335","35.00284599978477","0.3","13","300","64","98","-408","-27060","-4","1","150","150.02","116.27","33.75","22.03","51.4","11.53","90800","22.00","DUALSPOT-UV-BLUE-GREEN-RED-IR","573029","626598","908168","32.798324","11.718395","0.012371","728230","833827","837452","20.472444","6.702030","0.015222","736260","820895","830291","16.971102","5.375138","0.015358","781944","837968","890937","13.284157","4.050332","0.012876","718552","881906","966497","8.479689","2.341605","0.015157","1642","2363","2763","1361","1776","1978","1300","1613","1758","1231","1407","1485","1038","1149","1191","DualSpot on"
"MA200-0420","48149","78","1","1.10","1.6","2023-08-04T15:10:00","120","2023/08/04","15:10:00","-15.795635759830475","35.00273466622457","0.2","13","300","64","98","-340","-27068","-248","1","150","149.69","116.51","33.18","21.94","51.7","11.54","90792","21.94","DUALSPOT-UV-BLUE-GREEN-RED-IR","570124","624399","906084","33.078518","11.840908","0.013744","729957","836794","841055","20.667390","6.776995","0.016573","739086","824911","834902","17.137262","5.438808","0.019605","779497","836071","889358","13.417565","4.097656","0.019462","717331","880859","965620","8.561043","2.369200","0.024399","1412","2168","2590","1240","1674","1886","1184","1593","1783","1148","1430","1554","975","1161","1233","DualSpot on"
"MA200-0420","48150","78","1","1.10","1.6","2023-08-04T15:15:00","120","2023/08/04","15:15:00","-15.795618236064911","35.00273999967612","0.2","13","300","64","98","-442","-27162","-297","1","150","150.08","116.04","34.04","21.82","51.9","11.49","90788","21.75","DUALSPOT-UV-BLUE-GREEN-RED-IR","570254","625610","908960","33.367130","11.963329","0.012292","725033","832180","837071","20.867250","6.854281","0.015410","734585","820770","831199","17.308340","5.501492","0.015455","780702","838105","891938","13.553715","4.144849","0.015303","714126","877415","962110","8.643629","2.396699","0.018219","1460","2112","2476","1276","1683","1882","1224","1528","1671","1177","1390","1485","994","1128","1180","DualSpot on"
"MA200-0420","48151","78","1","1.10","1.6","2023-08-04T15:20:00","120","2023/08/04","15:20:00","-15.795608639717102","35.00277433288284","0.4","13","300","64","98","-464","-27003","-440","1","150","149.77","116.41","33.37","21.77","52.4","11.59","90784","21.88","DUALSPOT-UV-BLUE-GREEN-RED-IR","568476","625160","909792","33.768636","12.126907","0.011747","722790","831068","836829","21.147180","6.955247","0.013143","733822","821176","832321","17.545804","5.584996","0.014229","780220","838669","893089","13.744501","4.207589","0.012739","714025","878023","963160","8.765743","2.435045","0.013328","2025","2879","3357","1782","2243","2468","1693","2077","2257","1644","1886","1993","1465","1605","1659","DualSpot on"
"MA200-0420","48152","78","1","1.10","1.6","2023-08-04T15:25:00","120","2023/08/04","15:25:00","-15.79566353559494","35.00280199944973","0.0","13","300","64","98","-448","-27044","-252","1","150","150.21","116.22","33.99","21.99","53.3","12.04","90788","22.31","DUALSPOT-UV-BLUE-GREEN-RED-IR","563914","621541","906115","34.172216","12.301769","0.012562","719830","829129","835637","21.414704","7.046678","0.009375","734539","823304","835111","17.777192","5.658787","0.006584","776141","835357","890094","13.930938","4.264297","0.003909","715681","880923","966675","8.897823","2.468944","-0.022940","2039","3021","3573","1706","1994","2135","1652","1802","1872","1609","1673","1702","1587","1393","1318","DualSpot on"
"MA200-0420","48153","78","1","1.10","1.6","2023-08-04T15:30:00","120","2023/08/04","15:30:00","-15.795597434043884","35.00274399970658","0.1","14","300","64","98","-445","-26933","-666","1","150","149.76","116.35","33.41","22.18","53.0","12.13","90792","22.44","DUALSPOT-UV-BLUE-GREEN-RED-IR","561526","620156","905565","34.538300","12.465893","0.013541","716957","827059","834339","21.658488","7.143244","0.016696","732472","822032","834441","17.982920","5.734339","0.016161","774673","834683","889866","14.096552","4.321901","0.016575","713943","879528","965475","9.017174","2.503668","0.002009","1848","2885","3471","1553","2142","2433","1468","1877","2069","1428","1729","1863","1432","1452","1459","DualSpot on"
"MA200-0420","48154","78","1","1.10","1.6","2023-08-04T15:35:00","120","2023/08/04","15:35:00","-15.795626997947693","35.00277899974026","0.1","13","300","64","98","-468","-27024","-72","1","150","149.63","116.23","33.39","22.32","52.6","12.14","90796","22.56","DUALSPOT-UV-BLUE-GREEN-RED-IR","560810","620824","908145","34.950912","12.642277","0.012395","717306","828789","836929","21.921108","7.242395","0.014565","727136","817198","830187","18.202910","5.814077","0.015252","774202","835086","890805","14.266719","4.380708","0.015872","713251","879405","965631","9.132456","2.538103","0.005698","2085","3102","3678","1675","2201","2460","1571","1982","2175","1468","1766","1898","1385","1440","1461","DualSpot on"
"MA200-0420","48155","78","1","1.10","1.6","2023-08-04T15:40:00","120","2023/08/04","15:40:00","-15.795602977275848","35.0027304997202","0.6","14","300","64","98","-448","-26960","-376","1","150","150.15","116.11","34.03","22.40","52.2","12.13","90808","22.63","DUALSPOT-UV-BLUE-GREEN-RED-IR","558979","620487","909491","35.419240","12.842594","0.011824","715785","828543","837602","22.212334","7.352610","0.013653","726006","817217","830923","18.442276","5.900472","0.013766","767884","829292","885189","14.450861","4.442884","0.012452","709071","874987","961164","9.253798","2.571972","-0.007644","2369","3457","4076","1859","2400","2668","1711","2107","2293","1591","1832","1940","1459","1390","1363","DualSpot on"
"MA200-0420","48156","78","1","1.10","1.6","2023-08-04T15:45:00","120","2023/08/04","15:45:00","-15.795638680458069","35.002782999537885","0.1","14","300","64","98","-431","-27108","-220","1","150","150.15","116.78","33.36","22.44","52.0","12.09","90812","22.63","DUALSPOT-UV-BLUE-GREEN-RED-IR","556809","619776","910256","35.892728","13.041763","0.011868","714328","828443","838418","22.512058","7.465203","0.014228","723990","816212","830680","18.693366","5.990412","0.014550","772167","835002","891866","14.642848","4.507210","0.013647","711726","879036","965916","9.374491","2.607412","0.003964","2381","3506","4148","1902","2501","2799","1785","2238","2451","1649","1934","2061","1443","1483","1499","DualSpot on"
"MA200-0420","48157","78","1","1.10","1.6","2023-08-04T15:50:00","120","2023/08/04","15:50:00","-15.795610010623932","35.002782832831144","0.4","14","300","64","98","-429","-27008","-416","1","150","150.41","116.11","34.29","22.48","51.9","12.09","90808","22.56","DUALSPOT-UV-BLUE-GREEN-RED-IR","550538","614658","904794","36.425024","13.270397","0.011442","713042","828639","839710","22.845866","7.592235","0.013207","723347","816966","832270","18.970744","6.090402","0.012923","767069","830673","887879","14.857923","4.579900","0.011617","712266","880570","967981","9.512339","2.647463","-0.002424","2692","3915","4616","2131","2746","3052","1983","2420","2627","1858","2126","2246","1658","1631","1621","DualSpot on"
"MA200-0420","48158","78","1","1.10","1.6","2023-08-04T15:55:00","120","2023/08/04","15:55:00","-15.795636355876923","35.002807499375194","0.2","14","300","64","98","-316","-27104","-529","1","150","150.41","116.11","34.29","22.40","51.6","11.95","90792","22.44","DUALSPOT-UV-BLUE-GREEN-RED-IR","549873","615466","907669","36.864948","13.455112","0.010824","707787","824017","835979","23.142838","7.706320","0.013426","723734","818710","834787","19.222820","6.183041","0.013774","767034","831670","889588","15.055297","4.649314","0.014366","708547","876700","964149","9.638685","2.688569","0.012805","2225","3163","3702","1896","2466","2750","1802","2242","2451","1705","2030","2176","1520","1674","1734","DualSpot on"
"MA200-0420","48159","78","1","1.10","1.6","2023-08-04T16:00:00","120","2023/08/04","16:00:00","-15.795656144618988","35.00275733298622","0.1","14","300","64","98","-508","-27063","-448","1","150","149.65","115.80","33.85","22.40","52.4","12.16","90796","22.50","DUALSPOT-UV-BLUE-GREEN-RED-IR","547643","614455","907737","37.280260","13.628185","0.010773","705978","823497","836297","23.435556","7.811199","0.010799","722124","818232","835028","19.473522","6.268406","0.010050","766002","831716","890186","15.257118","4.714271","0.008373","708002","876836","964661","9.766588","2.725701","-0.000961","2106","3003","3520","1873","2297","2508","1797","2093","2234","1748","1925","2004","1542","1532","1528","DualSpot on"
"MA200-0420","48160","78","1","1.10","1.6","2023-08-04T16:05:00","120","2023/08/04","16:05:00","-15.795683324337006","35.0027498328127","0.1","13","300","64","97","-392","-26916","-404","1","150","149.65","116.10","33.54","22.49","52.9","12.40","90804","22.69","DUALSPOT-UV-BLUE-GREEN-RED-IR","544812","612764","906857","37.703016","13.806919","0.011202","702999","821622","835336","23.746964","7.921922","0.010828","719033","816164","833703","19.743648","6.361027","0.010942","762945","829621","888583","15.478325","4.787123","0.010883","705974","875257","963334","9.918221","2.769580","0.000226","2138","3129","3702","1988","2447","2676","1931","2292","2463","1911","2178","2298","1824","1827","1828","DualSpot on"
"MA200-0420","48161","78","1","1.10","1.6","2023-08-04T16:10:00","120","2023/08/04","16:10:00","-15.795690655708313","35.00274999975227","0.3","13","300","64","98","-452","-26968","-264","1","150","150.21","116.25","33.97","22.70","53.0","12.63","90800","23.06","DUALSPOT-UV-BLUE-GREEN-RED-IR","542402","611498","906726","38.128660","13.997807","0.012011","700708","820451","835112","24.043646","8.037828","0.013977","717087","815253","833541","19.996908","6.453137","0.013270","761293","828957","888527","15.687193","4.858215","0.012285","704121","873873","962210","10.065571","2.813582","0.002935","2150","3300","3967","1892","2529","2849","1808","2251","2462","1802","2099","2233","1770","1809","1824","DualSpot on"
"MA200-0420","48162","78","1","1.10","1.6","2023-08-04T16:15:00","120","2023/08/04","16:15:00","-15.795659482479095","35.002776166191325","0.2","13","300","64","98","-431","-27136","-204","1","150","149.90","116.07","33.83","23.10","53.1","13.03","90808","24.06","DUALSPOT-UV-BLUE-GREEN-RED-IR","541750","612113","909260","38.525896","14.176373","0.011985","700423","821528","837094","24.321736","8.141866","0.012287","715941","815273","834261","20.237656","6.536720","0.010878","761434","830214","890439","15.883620","4.923104","0.010196","707539","879055","968329","10.210951","2.852234","-0.013600","2010","3100","3734","1776","2279","2533","1722","2051","2208","1697","1924","2026","1749","1596","1536","DualSpot on"
"MA200-0420","48163","78","1","1.10","1.6","2023-08-04T16:20:00","120","2023/08/04","16:20:00","-15.795613169670105","35.00275933300145","0.2","13","300","64","98","-396","-27136","184","1","150","150.15","115.69","34.46","23.59","52.3","13.24","90808","24.63","DUALSPOT-UV-BLUE-GREEN-RED-IR","536372","607416","904104","38.958792","14.374851","0.011829","700202","822792","839362","24.623346","8.259644","0.012948","714286","814691","834448","20.497098","6.630176","0.011531","759808","829560","890410","16.094164","4.997055","0.012820","704789","876722","966194","10.375021","2.897597","-0.010651","2197","3383","4076","1932","2533","2837","1861","2251","2438","1825","2153","2300","1981","1839","1784","DualSpot on"
"MA200-0420","48164","78","1","1.10","1.6","2023-08-04T16:25:00","120","2023/08/04","16:25:00","-15.7956041097641","35.00275749969296","0.1","13","300","64","98","-364","-27275","851","1","150","149.53","115.75","33.78","23.94","51.0","13.18","90808","24.44","DUALSPOT-UV-BLUE-GREEN-RED-IR","536435","609112","908582","39.435576","14.589874","0.011764","695469","818851","836454","24.952602","8.392793","0.014727","709886","811084","831629","20.775342","6.736039","0.014922","755779","826385","887714","16.323278","5.078218","0.014507","700459","872418","961897","10.551001","2.943852","-0.015159","2419","3738","4513","2108","2921","3333","1995","2601","2892","1985","2410","2602","2123","1912","1830","DualSpot on"
"MA200-0420","48165","78","1","1.10","1.6","2023-08-04T16:30:00","120","2023/08/04","16:30:00","-15.7956023812294","35.00285599962808","0.3","13","300","64","98","-380","-27168","-92","1","150","150.21","115.88","34.34","23.94","50.1","12.89","90816","24.13","DUALSPOT-UV-BLUE-GREEN-RED-IR","531737","605493","905059","39.928732","14.801693","0.010436","695762","820940","839734","25.299630","8.528704","0.012915","710169","812934","834430","21.071826","6.846737","0.013197","757434","829477","891771","16.557692","5.161499","0.013544","701952","875275","965508","10.712011","2.989892","-0.004765","2499","3623","4285","2220","2934","3297","2124","2676","2942","2029","2433","2616","1941","1873","1846","DualSpot on"
"MA200-0420","48166","78","1","1.10","1.6","2023-08-04T16:35:00","120","2023/08/04","16:35:00","-15.795674324035645","35.002704832702875","0.1","13","300","64","98","-364","-27163","-376","1","150","150.21","116.18","34.03","23.89","49.8","12.77","90808","24.06","DUALSPOT-UV-BLUE-GREEN-RED-IR","531766","607338","909935","40.460992","15.034721","0.010887","691335","817595","837535","25.678982","8.675838","0.012800","706468","810335","832788","21.396322","6.965864","0.012764","752506","825468","888279","16.819440","5.252764","0.012893","698621","872177","962572","10.884544","3.042002","0.003810","2690","4022","4809","2420","3205","3605","2318","2906","3190","2260","2690","2886","2074","2139","2164","DualSpot on"
"MA200-0420","48167","78","1","1.10","1.6","2023-08-04T16:40:00","120","2023/08/04","16:40:00","-15.795620203018188","35.00276199984364","0.1","14","300","64","98","-500","-27116","472","1","150","150.15","115.44","34.71","23.82","49.7","12.68","90820","24.06","DUALSPOT-UV-BLUE-GREEN-RED-IR","526488","603151","905799","41.003336","15.270309","0.010115","686262","813485","834543","26.061750","8.823702","0.011549","701935","806763","830122","21.723142","7.088125","0.012246","753848","828369","892212","17.081232","5.343853","0.010901","700014","874936","966123","11.053017","3.095932","0.007454","2759","3986","4714","2458","3158","3516","2350","2924","3202","2275","2632","2795","2038","2170","2221","DualSpot on"
"MA200-0420","48168","78","1","1.10","1.6","2023-08-04T16:45:00","120","2023/08/04","16:45:00","-15.795663297176361","35.002727166283876","0.1","14","300","64","98","-588","-26875","116","1","150","150.15","115.46","34.68","23.77","49.7","12.63","90824","24.06","DUALSPOT-UV-BLUE-GREEN-RED-IR","524377","602298","906400","41.472580","15.477921","0.010368","684359","812918","835119","26.409834","8.961462","0.012290","700158","806260","830556","22.025170","7.202518","0.012682","747294","822433","886600","17.328394","5.432199","0.012504","695597","870342","961562","11.214512","3.147307","0.006760","2387","3515","4187","2234","2944","3308","2171","2738","3013","2147","2555","2741","1953","2069","2114","DualSpot on"
"MA200-0420","48169","78","1","1.10","1.6","2023-08-04T16:50:00","120","2023/08/04","16:50:00","-15.795653641223907","35.00274633290246","0.1","14","300","64","98","-420","-26947","-996","1","150","149.59","115.50","34.09","23.71","49.3","12.45","90816","23.81","DUALSPOT-UV-BLUE-GREEN-RED-IR","523153","602697","909168","42.013784","15.717312","0.010556","683850","814414","838069","26.829768","9.129350","0.013032","699289","807147","832632","22.396098","7.344177","0.013591","746067","822709","887873","17.635760","5.542402","0.013530","695342","871273","963225","11.422489","3.213680","0.008906","2752","4125","4945","2695","3651","4144","2666","3450","3832","2669","3243","3506","2515","2720","2800","DualSpot on"
"MA200-0420","48170","78","1","1.10","1.6","2023-08-04T16:55:00","120","2023/08/04","16:55:00","-15.79568600654602","35.00271066627465","0.1","14","300","64","98","-450","-27058","0","1","150","150.15","115.88","34.27","23.59","49.3","12.34","90824","23.63","DUALSPOT-UV-BLUE-GREEN-RED-IR","519477","600795","909122","42.705412","16.026447","0.010539","680358","812673","837952","27.329366","9.328784","0.012691","696322","805848","832648","22.827372","7.508427","0.013146","743639","821897","888136","17.988960","5.668631","0.012969","693925","870866","963539","11.656303","3.290146","0.011020","3505","5298","6374","3196","4314","4893","3090","3979","4414","3058","3695","3988","2818","3116","3234","DualSpot on"
"MA200-0420","48171","78","1","1.10","1.6","2023-08-04T17:00:00","120","2023/08/04","17:00:00","-15.795644998550415","35.00281033292413","0.3","15","300","64","98","-444","-27012","-308","1","150","150.02","115.80","34.22","23.30","49.5","12.14","90824","23.19","DUALSPOT-UV-BLUE-GREEN-RED-IR","514390","596244","903801","43.110044","16.201817","0.009923","679818","813534","839838","27.634378","9.449138","0.012214","692483","802672","830258","23.091978","7.612179","0.014194","745154","824725","891881","18.204842","5.745649","0.012769","691786","868936","961817","11.788338","3.336358","0.017352","2052","3010","3586","1952","2607","2947","1897","2517","2822","1870","2258","2436","1592","1886","2002","DualSpot on"
"MA200-0420","48172","78","1","1.10","1.6","2023-08-04T17:05:00","120","2023/08/04","17:05:00","-15.79564881324768","35.00275299954228","0.1","15","300","64","98","-420","-27091","-368","1","150","149.69","115.76","33.93","23.09","50.1","12.14","90832","23.06","DUALSPOT-UV-BLUE-GREEN-RED-IR","513136","596227","905580","43.550472","16.398609","0.010488","679088","814269","841667","27.959534","9.578176","0.012513","691386","802780","831270","23.374032","7.719433","0.013149","744384","825100","893025","18.437150","5.829088","0.013439","696708","875971","970090","11.934452","3.386115","0.015430","2234","3406","4113","2082","2819","3202","2022","2624","2920","2013","2466","2676","1763","2048","2161","DualSpot on"
"MA200-0420","48173","78","1","1.10","1.6","2023-08-04T17:10:00","120","2023/08/04","17:10:00","-15.795699894428253","35.00277016637847","0.1","15","300","64","98","-411","-27057","-457","1","150","149.77","115.99","33.78","23.03","50.5","12.19","90836","23.13","DUALSPOT-UV-BLUE-GREEN-RED-IR","510572","595049","906002","44.094380","16.646542","0.010792","671259","806787","835302","28.354594","9.737032","0.012943","689204","801978","831537","23.719804","7.853335","0.013918","737501","819001","887334","18.723878","5.933181","0.014161","691491","870525","964676","12.126419","3.449963","0.013656","2754","4310","5254","2524","3486","3988","2474","3290","3694","2480","3091","3374","2311","2640","2770","DualSpot on"
"MA200-0420","48174","78","1","1.10","1.6","2023-08-04T17:15:00","120","2023/08/04","17:15:00","-15.795669198036194","35.00274816621095","0.0","14","300","64","98","-548","-26903","-360","1","150","150.02","115.99","34.02","22.90","50.7","12.13","90852","22.88","DUALSPOT-UV-BLUE-GREEN-RED-IR","508795","594625","907404","44.599012","16.871822","0.010234","669759","806805","836536","28.731290","9.886476","0.012168","688166","802440","833049","24.048906","7.978023","0.012636","735831","818572","887733","18.999664","6.030736","0.012203","691905","872136","967033","12.312859","3.510180","0.010069","2555","3889","4701","2407","3256","3701","2355","3042","3383","2385","2876","3105","2245","2472","2563","DualSpot on"
"MA200-0420","48175","78","1","1.10","1.6","2023-08-04T17:20:00","120","2023/08/04","17:20:00","-15.795704960823059","35.00270066643134","0.2","14","300","64","98","-375","-27033","-79","1","150","149.82","116.15","33.67","22.78","51.0","12.11","90848","22.75","DUALSPOT-UV-BLUE-GREEN-RED-IR","507746","594824","909552","45.044296","17.074276","0.010611","668973","807499","838392","29.072092","10.024198","0.012920","687863","803582","835198","24.350758","8.094479","0.013612","736869","821041","891244","19.253088","6.122770","0.014049","688453","868783","963868","12.485577","3.568607","0.015180","2251","3531","4313","2175","3032","3483","2157","2871","3227","2188","2742","3000","2077","2424","2563","DualSpot on"
"MA200-0420","48176","78","1","1.10","1.6","2023-08-04T17:25:00","120","2023/08/04","17:25:00","-15.795659363269806","35.00279333326034","0.1","14","300","64","98","-479","-27024","-64","1","150","150.21","116.41","33.80","22.66","51.4","12.11","90848","22.63","DUALSPOT-UV-BLUE-GREEN-RED-IR","503757","591665","906564","45.509188","17.282524","0.010253","663865","802977","834803","29.411000","10.155244","0.011431","684091","800622","833048","24.645626","8.205452","0.012472","732711","817717","888377","19.497848","6.207975","0.011582","686104","866746","962119","12.647724","3.620160","0.009278","2345","3618","4397","2158","2874","3251","2103","2725","3036","2109","2528","2724","1945","2130","2204","DualSpot on"
"MA200-0420","48177","78","1","1.10","1.6","2023-08-04T17:30:00","120","2023/08/04","17:30:00","-15.795582950115204","35.0028013328556","0.1","13","300","64","98","-408","-27003","-416","1","150","150.02","116.18","33.84","22.54","51.6","12.08","90848","22.50","DUALSPOT-UV-BLUE-GREEN-RED-IR","502818","591973","908983","45.954564","17.492088","0.010845","663938","804530","837568","29.731914","10.289714","0.013501","684111","801994","835419","24.927404","8.318858","0.014611","733274","819548","891151","19.732720","6.296053","0.015040","686908","868715","964810","12.805607","3.674481","0.015821","2251","3637","4488","2047","2945","3420","2013","2782","3167","2028","2611","2884","1898","2242","2380","DualSpot on"
"MA200-0420","48178","78","1","1.10","1.6","2023-08-04T17:35:00","120","2023/08/04","17:35:00","-15.79574167728424","35.00271199969575","0.1","13","300","64","98","-388","-26919","-488","1","150","150.15","115.95","34.19","22.46","51.6","11.98","90848","22.44","DUALSPOT-UV-BLUE-GREEN-RED-IR","498808","588724","905954","46.427048","17.710922","0.010337","659912","801421","835577","30.098214","10.440582","0.012557","680609","799479","833842","25.251400","8.445373","0.012973","729543","816779","889072","20.009060","6.398295","0.013617","684717","867026","963571","12.997871","3.739112","0.012639","2393","3759","4601","2341","3271","3764","2319","3071","3449","2390","3000","3286","2316","2640","2771","DualSpot on"
"MA200-0420","48179","78","1","1.10","1.6","2023-08-04T17:40:00","120","2023/08/04","17:40:00","-15.79564779996872","35.00281483284198","0.3","13","300","64","97","-400","-27012","-472","1","150","150.71","116.44","34.26","22.32","51.2","11.75","90844","22.25","DUALSPOT-UV-BLUE-GREEN-RED-IR","496519","587540","906080","46.894124","17.921574","0.009874","658168","800953","836318","30.450722","10.586016","0.012523","678730","798787","834162","25.564872","8.568972","0.013236","727589","815990","889017","20.271638","6.493307","0.012461","683634","866708","963815","13.181263","3.800523","0.012325","2355","3611","4387","2244","3146","3627","2235","2994","3378","2262","2782","3027","2200","2503","2626","DualSpot on"
"MA200-0420","48180","78","1","1.10","1.6","2023-08-04T17:45:00","120","2023/08/04","17:45:00","-15.795771896839142","35.0027826661244","0.5","13","300","64","98","-328","-27124","-604","1","150","150.08","115.84","34.24","22.14","51.2","11.58","90848","22.06","DUALSPOT-UV-BLUE-GREEN-RED-IR","496530","588877","909848","47.308560","18.111724","0.009980","657360","801425","837849","30.756480","10.712330","0.012318","675125","795809","831958","25.834158","8.676510","0.013381","728992","818708","892752","20.495458","6.576214","0.013244","685362","869732","967694","13.329258","3.853113","0.016603","2101","3261","3981","1956","2734","3150","1929","2607","2949","1938","2428","2660","1784","2145","2291","DualSpot on"
"MA200-0420","48181","78","1","1.10","1.6","2023-08-04T17:50:00","120","2023/08/04","17:50:00","-15.795676529407501","35.0027464996092","0.1","13","300","64","98","-475","-27008","-308","1","150","150.34","116.19","34.15","21.98","51.2","11.43","90860","21.81","DUALSPOT-UV-BLUE-GREEN-RED-IR","494913","588352","910820","47.742304","18.307350","0.009727","655879","801158","838665","31.078442","10.841848","0.011633","673545","795283","832336","26.116186","8.786471","0.012629","721633","811670","885813","20.732292","6.662092","0.012357","680726","864747","962637","13.485214","3.905874","0.013003","2192","3364","4093","2054","2811","3217","2015","2673","3006","2044","2522","2749","1875","2158","2273","DualSpot on"
"MA200-0420","48182","78","1","1.10","1.6","2023-08-04T17:55:00","120","2023/08/04","17:55:00","-15.795666575431824","35.00277866655961","0.0","13","300","64","98","-464","-26968","-336","1","150","149.84","116.18","33.66","21.82","51.2","11.29","90864","21.69","DUALSPOT-UV-BLUE-GREEN-RED-IR","490315","584331","906476","48.195732","18.515842","0.010129","650921","796669","835128","31.414976","10.980406","0.012512","669769","792259","830099","26.411850","8.903536","0.013487","723076","814530","889738","20.976846","6.753174","0.014131","682377","867739","966525","13.647274","3.963086","0.017262","2292","3638","4478","2147","3052","3538","2112","2887","3281","2111","2715","3001","1948","2374","2549","DualSpot on"
"MA200-0420","48183","78","1","1.10","1.6","2023-08-04T18:00:00","120","2023/08/04","18:00:00","-15.795599281787872","35.00275766616687","0.2","13","300","64","98","-295","-27083","-150","1","150","150.15","116.71","33.44","21.72","51.3","11.21","90872","21.63","DUALSPOT-UV-BLUE-GREEN-RED-IR","489620","585049","909682","48.689396","18.742890","0.010187","651582","799148","838950","31.769128","11.127728","0.012913","669432","793345","832274","26.722352","9.028178","0.014117","723528","816356","892644","21.236206","6.850411","0.014737","678800","864179","963133","13.820557","4.023240","0.016635","2484","3988","4929","2249","3266","3814","2208","3094","3546","2229","2917","3245","2074","2513","2693","DualSpot on"
"MA200-0420","48184","78","1","1.10","1.6","2023-08-04T18:05:00","120","2023/08/04","18:05:00","-15.795683860778809","35.00280249933712","0.1","13","300","64","98","-460","-27132","-320","1","150","150.15","116.45","33.69","21.53","51.5","11.11","90884","21.38","DUALSPOT-UV-BLUE-GREEN-RED-IR","486112","582725","908473","49.274928","19.009086","0.009780","647226","795748","836833","32.185738","11.296489","0.011848","666559","791686","831746","27.085256","9.168930","0.012547","720722","814811","891931","21.540600","6.959474","0.012090","677419","863549","963124","14.023571","4.091114","0.012840","2953","4640","5700","2652","3713","4286","2587","3468","3919","2622","3247","3545","2435","2814","2970","DualSpot on"
"MA200-0420","48185","78","1","1.10","1.6","2023-08-04T18:10:00","120","2023/08/04","18:10:00","-15.795726001262665","35.00273699965328","0.2","13","300","64","98","-414","-26974","-528","1","150","150.03","116.31","33.71","21.39","51.8","11.08","90872","21.25","DUALSPOT-UV-BLUE-GREEN-RED-IR","482111","579797","906443","49.877568","19.289524","0.009961","647976","798723","841417","32.616748","11.473130","0.011948","662729","788962","830111","27.464844","9.318221","0.012770","716169","811227","889045","21.855318","7.076154","0.013367","679061","866932","967576","14.240246","4.164234","0.013231","3043","4885","6047","2747","3884","4501","2709","3676","4172","2714","3472","3835","2602","3029","3206","DualSpot on"
"MA200-0420","48186","78","1","1.10","1.6","2023-08-04T18:15:00","120","2023/08/04","18:15:00","-15.795629680156708","35.00277699972503","0.2","13","300","64","97","-431","-26968","-464","1","150","150.08","116.52","33.56","21.21","52.3","11.04","90864","21.06","DUALSPOT-UV-BLUE-GREEN-RED-IR","479658","578857","907742","50.527548","19.594826","0.010042","641011","792318","836342","33.091884","11.668177","0.011977","661446","789426","831963","27.882454","9.483008","0.012882","714631","811369","890339","22.208786","7.204756","0.012618","675139","863296","964286","14.478996","4.243243","0.012011","3276","5342","6651","3022","4307","5007","2975","4076","4643","3043","3844","4228","2862","3288","3464","DualSpot on"
"MA200-0420","48187","78","1","1.10","1.6","2023-08-04T18:20:00","120","2023/08/04","18:20:00","-15.795716106891632","35.002720499644056","0.2","13","300","68","98","-328","-27044","-435","2","150","149.69","115.99","33.70","21.07","52.6","11.00","90860","20.94","DUALSPOT-UV-BLUE-GREEN-RED-IR","775369","700503","910864","0.000000","0.000000","0.000000","877899","886435","837482","0.000000","0.000000","0.000000","862199","865820","834262","0.000000","0.000000","0.000000","873318","862777","885128","0.000000","0.000000","0.000000","772608","898672","967522","0.000000","0.000000","0.000000","","","","","","","","","","","","","","","","Tape advance-DualSpot on"
"MA200-0420","48188","78","1","1.10","1.6","2023-08-04T18:25:00","120","2023/08/04","18:25:00","-15.795648217201233","35.002789666177705","0.1","13","300","68","98","-420","-27000","-479","2","150","149.96","116.03","33.93","20.94","52.9","10.96","90864","20.75","DUALSPOT-UV-BLUE-GREEN-RED-IR","759017","693351","906208","0.000000","0.000000","0.000000","872454","886449","839832","0.000000","0.000000","0.000000","852250","860071","830579","0.000000","0.000000","0.000000","870806","863458","887289","0.000000","0.000000","0.000000","767407","894614","963959","0.000000","0.000000","0.000000","","","","","","","","","","","","","","","","Tape advance-DualSpot on"
"MA200-0420","48189","78","1","1.10","1.6","2023-08-04T18:30:00","120","2023/08/04","18:30:00","-15.795679152011871","35.002751332940534","0.3","13","300","64","98","-400","-27024","-352","2","150","150.08","115.44","34.64","20.77","53.1","10.88","90868","20.63","DUALSPOT-UV-BLUE-GREEN-RED-IR","751633","692069","907907","1.165334","0.375631","0.000000","861107","879036","834669","0.695341","0.220685","0.000000","849717","860888","832863","0.571507","0.179088","0.000000","870756","866032","891143","0.439315","0.135606","0.000000","767926","896855","967154","0.261617","0.076405","0.000000","5929","6369","5929","4465","4722","4465","4110","4292","4110","3817","3927","3817","3165","3081","3165","DualSpot on"
"MA200-0420","48190","78","1","1.10","1.6","2023-08-04T18:35:00","120","2023/08/04","18:35:00","-15.79559189081192","35.00284283305518","0.2","13","300","64","98","-462","-26962","-254","2","150","149.82","115.92","33.91","20.64","53.4","10.83","90876","20.50","DUALSPOT-UV-BLUE-GREEN-RED-IR","740203","686589","904064","2.275100","0.744867","0.000000","858447","880369","837722","1.371228","0.436860","0.000000","842420","856786","830362","1.132541","0.355660","0.000000","863085","861027","887161","0.877420","0.269996","0.000000","763712","893645","964409","0.528280","0.152960","0.000000","5623","6396","5623","4322","4726","4322","4018","4323","4018","3791","3976","3791","3213","3154","3213","DualSpot on"
"MA200-0420","48191","78","1","1.10","1.6","2023-08-04T18:40:00","120","2023/08/04","18:40:00","-15.795644044876099","35.00275766616687","0.0","13","300","64","98","-431","-26803","-468","2","150","149.91","116.46","33.45","20.50","53.7","10.79","90892","20.44","DUALSPOT-UV-BLUE-GREEN-RED-IR","734183","685758","906129","3.318885","1.092046","0.057443","854758","880519","839610","2.022016","0.642156","0.000000","839239","856745","831722","1.675975","0.524818","0.000000","861511","862028","889340","1.303413","0.398122","0.000000","762914","894410","965928","0.791114","0.225812","0.000000","5264","6096","6504","4142","4549","4142","3874","4198","3874","3669","3843","3669","3152","3042","3152","DualSpot on"
"MA200-0420","48192","78","1","1.10","1.6","2023-08-04T18:45:00","120","2023/08/04","18:45:00","-15.79565155506134","35.002769332844764","0.1","13","300","64","98","-431","-26932","-508","2","150","149.74","116.08","33.66","20.47","54.0","10.85","90888","20.31","DUALSPOT-UV-BLUE-GREEN-RED-IR","730795","687075","910887","4.306165","1.423593","0.044400","846614","875867","836869","2.655428","0.844615","0.000000","833370","853825","830327","2.209043","0.692373","0.000000","856361","859369","887762","1.724641","0.525206","0.000000","760470","893253","965390","1.055278","0.299918","0.000000","4995","5786","6176","4045","4459","4045","3812","4133","3812","3640","3788","3640","3179","3075","3179","DualSpot on"
"MA200-0420","48193","78","1","1.10","1.6","2023-08-04T18:50:00","120","2023/08/04","18:50:00","-15.79563969373703","35.00281333294697","0.1","13","300","64","98","-420","-27128","-364","2","150","149.77","115.88","33.90","20.33","54.3","10.79","90892","20.25","DUALSPOT-UV-BLUE-GREEN-RED-IR","721407","683057","908899","5.361677","1.788639","0.040070","845904","879142","841858","3.320032","1.062708","0.045782","832538","856303","834203","2.766547","0.871670","0.000000","857517","863208","892946","2.166279","0.663586","0.000000","757079","891040","963761","1.331899","0.378488","0.000000","5350","6325","6814","4251","4769","5013","3994","4391","3994","3823","4095","3823","3334","3238","3334","DualSpot on"
"MA200-0420","48194","78","1","1.10","1.6","2023-08-04T18:55:00","120","2023/08/04","18:55:00","-15.795646846294403","35.00278849969618","0.1","13","300","64","98","-496","-27012","-312","2","150","149.89","115.99","33.89","20.26","54.4","10.76","90888","20.13","DUALSPOT-UV-BLUE-GREEN-RED-IR","710859","678826","907466","6.687870","2.255748","0.035388","837169","875051","840434","4.194610","1.360183","0.046586","825583","853332","833372","3.511716","1.119774","0.048414","850623","859724","891062","2.764643","0.857047","0.000000","753164","888874","962503","1.720521","0.492132","0.000000","6715","8095","8797","5589","6506","6947","5333","6077","6426","5175","5726","5175","4680","4684","4680","DualSpot on"
"MA200-0420","48195","78","1","1.10","1.6","2023-08-04T19:00:00","120","2023/08/04","19:00:00","-15.795607924461365","35.002713833004236","0.1","14","300","64","98","-583","-26900","-150","2","150","149.76","115.95","33.80","20.18","54.6","10.74","90892","20.06","DUALSPOT-UV-BLUE-GREEN-RED-IR","698129","671989","902270","7.922903","2.692966","0.030950","825248","867355","835348","5.024296","1.638376","0.036286","816027","847478","829567","4.220497","1.351493","0.035935","841793","854108","886862","3.337145","1.037899","0.032459","752609","890524","965373","2.091991","0.600504","0.000000","6255","7597","8288","5304","6101","6487","5074","5691","5982","4953","5368","5555","4475","4478","4475","DualSpot on"
"MA200-0420","48196","78","1","1.10","1.6","2023-08-04T19:05:00","120","2023/08/04","19:05:00","-15.79570198059082","35.00279533327557","0.2","14","300","64","98","-400","-27196","-600","2","150","150.28","115.92","34.37","20.10","54.8","10.71","90892","20.00","DUALSPOT-UV-BLUE-GREEN-RED-IR","693809","673935","909525","9.345263","3.205146","0.026338","817516","864705","835558","5.988299","1.967787","0.030915","809181","845038","829483","5.047730","1.629853","0.032919","835723","851819","886415","4.009054","1.255912","0.030136","749205","889252","965235","2.531732","0.730744","0.000000","7207","8753","9560","6165","7105","7565","5924","6724","7105","5815","6364","6614","5299","5293","5299","DualSpot on"
"MA200-0420","48197","78","1","1.10","1.6","2023-08-04T19:10:00","120","2023/08/04","19:10:00","-15.795611023902893","35.002840833039954","0.1","13","300","64","98","-395","-26858","-520","2","150","149.90","115.92","33.98","20.02","54.9","10.68","90892","19.94","DUALSPOT-UV-BLUE-GREEN-RED-IR","684336","669707","907765","10.529915","3.640144","0.026446","815432","867224","840376","6.823875","2.255970","0.030570","807143","846948","833379","5.772296","1.874023","0.031399","835682","855187","891621","4.602301","1.448448","0.029358","745169","886922","963830","2.925459","0.848042","0.000000","6002","7518","8319","5343","6286","6752","5189","5965","6338","5134","5684","5936","4744","4821","4744","DualSpot on"
"MA200-0420","48198","78","1","1.10","1.6","2023-08-04T19:15:00","120","2023/08/04","19:15:00","-15.795641303062439","35.00276233302429","0.2","13","300","64","98","-336","-26991","-392","2","150","150.40","116.52","33.88","19.97","55.1","10.67","90900","19.88","DUALSPOT-UV-BLUE-GREEN-RED-IR","676387","665971","905890","11.495094","3.994501","0.024979","808559","863593","838716","7.471858","2.476346","0.027106","801960","844616","832603","6.325250","2.055907","0.025761","830737","852744","890335","5.052902","1.591722","0.023806","742772","885930","963562","3.221674","0.933022","-0.005888","4865","6144","6825","4122","4822","5169","3939","4457","4706","3879","4243","4410","3551","3504","3485","DualSpot on"
"MA200-0420","48199","78","1","1.10","1.6","2023-08-04T19:20:00","120","2023/08/04","19:20:00","-15.795656323432922","35.00281483284198","0.2","13","300","64","98","-491","-26987","-258","2","150","150.28","116.19","34.08","19.91","55.1","10.63","90904","19.81","DUALSPOT-UV-BLUE-GREEN-RED-IR","668749","662348","904139","12.438700","4.349767","0.024404","802027","860082","837111","8.092973","2.692806","0.027162","796479","841799","831315","6.855000","2.235365","0.027249","825697","850019","888730","5.479790","1.729954","0.024044","743784","888909","967581","3.503353","1.014659","-0.004914","4770","6122","6849","3962","4707","5079","3785","4371","4654","3686","4068","4245","3386","3345","3329","DualSpot on"
"MA200-0420","48200","78","1","1.10","1.6","2023-08-04T19:25:00","120","2023/08/04","19:25:00","-15.795717358589172","35.0027234996669","0.0","13","300","64","98","-424","-27032","-360","2","150","149.90","116.10","33.79","19.86","55.2","10.62","90908","19.75","DUALSPOT-UV-BLUE-GREEN-RED-IR","667783","664621","909980","13.226631","4.648044","0.023945","796576","857060","835688","8.603065","2.872211","0.027697","796207","843911","834645","7.288311","2.383446","0.028206","820735","846915","886476","5.827973","1.842397","0.023691","740807","886789","965908","3.729732","1.079533","-0.005946","3986","5184","5833","3256","3935","4275","3098","3638","3900","3008","3338","3490","2723","2681","2664","DualSpot on"
"MA200-0420","48201","78","1","1.10","1.6","2023-08-04T19:30:00","120","2023/08/04","19:30:00","-15.795727968215942","35.002717999508604","0.3","12","300","64","98","-471","-27074","-500","2","150","149.49","116.28","33.22","19.81","55.3","10.58","90912","19.69","DUALSPOT-UV-BLUE-GREEN-RED-IR","660740","661325","908582","14.131201","4.993604","0.024261","796327","860165","840510","9.215338","3.089356","0.028921","791847","842202","834439","7.813555","2.563846","0.029624","816527","844941","885667","6.257622","1.984686","0.030238","738654","885983","965895","4.019085","1.165540","0.013444","4569","6110","6953","3903","4846","5321","3750","4509","4879","3707","4297","4572","3476","3617","3674","DualSpot on"
"MA200-0420","48202","78","1","1.10","1.6","2023-08-04T19:35:00","120","2023/08/04","19:35:00","-15.79567152261734","35.002766833174974","0.2","13","300","64","98","-504","-26963","-188","2","150","150.54","116.31","34.23","19.76","55.3","10.55","90916","19.69","DUALSPOT-UV-BLUE-GREEN-RED-IR","654802","658210","906751","14.835289","5.265812","0.022059","791598","857704","839530","9.690981","3.258663","0.024766","787395","839653","833105","8.220774","2.706349","0.026759","819598","850012","891965","6.588404","2.094989","0.024795","735979","884146","964521","4.239256","1.231034","0.003554","3555","4671","5285","3031","3667","3988","2906","3456","3726","2853","3233","3410","2644","2673","2684","DualSpot on"
"MA200-0420","48203","78","1","1.10","1.6","2023-08-04T19:40:00","120","2023/08/04","19:40:00","-15.795799136161804","35.00271899951622","0.2","13","300","64","98","-368","-26919","-652","2","150","149.35","116.10","33.25","19.72","55.4","10.53","90916","19.63","DUALSPOT-UV-BLUE-GREEN-RED-IR","649912","655795","905616","15.464863","5.507190","0.022300","787098","855109","838232","10.112452","3.408134","0.026163","783688","837700","832200","8.581399","2.829420","0.025930","815814","847805","890501","6.881951","2.190576","0.024344","733869","882841","963632","4.434326","1.287528","0.003564","3184","4264","4861","2691","3332","3659","2578","3073","3316","2536","2884","3047","2347","2373","2384","DualSpot on"
"MA200-0420","48204","78","1","1.10","1.6","2023-08-04T19:45:00","120","2023/08/04","19:45:00","-15.795702159404755","35.002720666117966","0.1","12","300","64","98","-435","-26980","-684","2","150","149.69","116.39","33.30","19.67","55.4","10.49","90924","19.56","DUALSPOT-UV-BLUE-GREEN-RED-IR","645003","653501","904744","16.121559","5.762321","0.022187","782515","852685","837267","10.581601","3.577763","0.026923","780234","836194","831900","8.988714","2.971828","0.027702","811409","845082","888635","7.217668","2.301833","0.026123","731579","881505","962837","4.665373","1.356602","0.012759","3314","4499","5159","2988","3776","4178","2905","3550","3868","2893","3351","3566","2773","2897","2948","DualSpot on"
"MA200-0420","48205","78","1","1.10","1.6","2023-08-04T19:50:00","120","2023/08/04","19:50:00","-15.795676052570343","35.00274583301507","0.2","12","300","64","98","-472","-27052","-416","2","150","149.95","115.88","34.08","19.63","55.5","10.49","90932","19.56","DUALSPOT-UV-BLUE-GREEN-RED-IR","645356","656024","910245","16.673409","5.979412","0.020689","777402","849198","835000","10.962839","3.715908","0.023715","777007","834508","831197","9.318787","3.088736","0.025132","809002","844094","888413","7.487580","2.393917","0.025450","730195","880930","962750","4.847765","1.411421","0.006228","2797","3742","4270","2439","3005","3295","2364","2848","3088","2336","2711","2887","2198","2247","2267","DualSpot on"
"MA200-0420","48206","78","1","1.10","1.6","2023-08-04T19:55:00","120","2023/08/04","19:55:00","-15.795567214488983","35.002829666249454","0.1","12","300","64","97","-392","-27103","-553","2","150","149.89","116.51","33.38","19.58","55.5","10.44","90944","19.50","DUALSPOT-UV-BLUE-GREEN-RED-IR","639623","652719","907805","17.299228","6.221546","0.020448","777520","851738","838849","11.409160","3.875702","0.024050","776398","835997","833775","9.707114","3.222924","0.024296","810180","847128","892540","7.809438","2.500340","0.023668","731070","883399","966009","5.067039","1.474508","0.001174","3154","4260","4881","2839","3549","3913","2767","3337","3621","2771","3198","3400","2629","2640","2644","DualSpot on"
"MA200-0420","48207","78","1","1.10","1.6","2023-08-04T20:00:00","120","2023/08/04","20:00:00","-15.795679450035095","35.00274333311245","0.1","12","300","64","98","-416","-26936","-340","2","150","149.91","116.17","33.74","19.52","55.7","10.41","90956","19.44","DUALSPOT-UV-BLUE-GREEN-RED-IR","634211","649119","904593","17.795536","6.418056","0.020362","772425","848017","836218","11.751804","3.999919","0.023266","771760","832589","831269","10.002997","3.327477","0.024502","804318","842370","888249","8.049987","2.581130","0.023249","727644","880247","963065","5.229078","1.523990","0.012947","2509","3421","3935","2186","2729","3009","2114","2572","2801","2077","2402","2555","1948","2048","2090","DualSpot on"
"MA200-0420","48208","78","1","1.10","1.6","2023-08-04T20:05:00","120","2023/08/04","20:05:00","-15.795561015605927","35.00284599978477","0.2","12","300","64","98","-431","-26763","-528","2","150","150.02","115.80","34.22","19.44","55.9","10.40","90956","19.38","DUALSPOT-UV-BLUE-GREEN-RED-IR","630732","647669","904500","18.335376","6.632969","0.019215","769288","846586","835946","12.125336","4.137683","0.022560","769742","832101","831718","10.323172","3.443187","0.024283","803462","842888","889603","8.313856","2.672829","0.024772","727156","880702","964090","5.403553","1.579332","0.017381","2738","3688","4227","2391","2984","3291","2295","2807","3063","2286","2688","2879","2104","2259","2323","DualSpot on"
"MA200-0420","48209","78","1","1.10","1.6","2023-08-04T20:10:00","120","2023/08/04","20:10:00","-15.795714616775513","35.002684332896024","0.2","12","300","64","98","-396","-27144","-412","2","150","150.08","116.19","33.89","19.37","56.1","10.39","90952","19.25","DUALSPOT-UV-BLUE-GREEN-RED-IR","630432","649097","908128","18.770610","6.802570","0.018387","770689","849774","839987","12.420470","4.243404","0.020720","770093","833915","834281","10.578315","3.530164","0.019106","798798","839225","886359","8.524472","2.741357","0.017071","724088","877872","961376","5.545519","1.620694","-0.000279","2200","2939","3359","1883","2312","2535","1823","2130","2284","1818","2028","2128","1706","1704","1704","DualSpot on"
"MA200-0420","48210","78","1","1.10","1.6","2023-08-04T20:15:00","120","2023/08/04","20:15:00","-15.795646011829376","35.00274633290246","0.0","12","300","64","98","-570","-26962","-287","2","150","150.21","116.21","34.01","19.31","56.5","10.44","90956","19.25","DUALSPOT-UV-BLUE-GREEN-RED-IR","624516","645998","906433","19.530636","7.102470","0.018110","765682","846912","838651","12.908092","4.416817","0.019091","766030","831783","833317","10.991440","3.672872","0.019385","800809","843246","891585","8.861179","2.850002","0.014814","725997","881612","966125","5.770347","1.685389","-0.004212","3841","5179","5943","3110","3779","4128","2951","3483","3750","2907","3204","3346","2702","2657","2638","DualSpot on"
"MA200-0420","48211","78","1","1.10","1.6","2023-08-04T20:20:00","120","2023/08/04","20:20:00","-15.795629501342773","35.00274399970658","0.1","12","300","64","98","-444","-27003","-424","2","150","149.82","115.99","33.83","19.29","56.8","10.49","90956","19.25","DUALSPOT-UV-BLUE-GREEN-RED-IR","621128","644640","906745","20.115470","7.345031","0.019857","762621","845757","838836","13.339782","4.578871","0.022811","762918","830374","833070","11.372688","3.811359","0.023720","797915","841952","891183","9.181839","2.962451","0.025067","724402","881019","966152","5.995437","1.755695","0.015231","2961","4211","4930","2758","3551","3965","2728","3398","3736","2773","3335","3602","2710","2903","2983","DualSpot on"
"MA200-0420","48212","78","1","1.10","1.6","2023-08-04T20:25:00","120","2023/08/04","20:25:00","-15.795643210411072","35.00271633267403","0.1","12","300","64","98","-468","-26812","-420","2","150","149.81","116.17","33.64","19.27","57.0","10.53","90952","19.25","DUALSPOT-UV-BLUE-GREEN-RED-IR","616571","641975","904937","20.652812","7.565254","0.019172","757202","841926","836385","13.761374","4.737961","0.022977","759387","828479","832296","11.745469","3.947882","0.024275","794980","840547","890679","9.495660","3.071993","0.024536","722161","879608","965260","6.210045","1.824637","0.021605","2716","3845","4497","2690","3506","3934","2664","3369","3726","2710","3267","3533","2580","2863","2980","DualSpot on"
"MA200-0420","48213","78","1","1.10","1.6","2023-08-04T20:30:00","120","2023/08/04","20:30:00","-15.795618891716003","35.00272849970497","0.3","12","300","64","98","-516","-26960","-376","2","150","150.15","116.14","34.00","19.27","57.3","10.60","90948","19.19","DUALSPOT-UV-BLUE-GREEN-RED-IR","614230","640785","904461","20.989136","7.699398","0.017339","755482","841401","836620","14.020667","4.831201","0.018418","757063","827217","831672","11.976729","4.027216","0.017158","793303","839897","890573","9.691599","3.136953","0.016886","720850","878883","964852","6.353876","1.864844","-0.010764","1700","2317","2674","1655","2032","2231","1653","1936","2080","1692","1916","2023","1729","1651","1619","DualSpot on"
"MA200-0420","48214","78","1","1.10","1.6","2023-08-04T20:35:00","120","2023/08/04","20:35:00","-15.79566752910614","35.00273683294654","0.1","11","300","64","98","-435","-26996","-588","2","150","149.76","115.99","33.76","19.27","57.4","10.65","90940","19.25","DUALSPOT-UV-BLUE-GREEN-RED-IR","613948","641667","906945","21.305806","7.832874","0.019467","755298","842436","838372","14.251599","4.918456","0.021951","757375","828602","833678","12.176139","4.099991","0.022734","793593","841095","892360","9.857533","3.193658","0.020775","721713","880656","967113","6.466457","1.898406","0.005127","1603","2322","2739","1475","1915","2147","1427","1789","1973","1435","1685","1804","1355","1388","1402","DualSpot on"
"MA200-0420","48215","78","1","1.10","1.6","2023-08-04T20:40:00","120","2023/08/04","20:40:00","-15.795684039592743","35.00272566615604","0.3","11","300","64","98","-458","-27054","-437","2","150","149.63","115.92","33.71","19.27","57.6","10.70","90944","19.25","DUALSPOT-UV-BLUE-GREEN-RED-IR","610359","639478","905322","21.714454","7.998142","0.017598","751592","839774","836564","14.527319","5.017555","0.018234","754161","826390","832121","12.413359","4.182338","0.018209","789793","838164","889806","10.050503","3.257241","0.016359","719156","878334","964955","6.597608","1.936520","-0.000149","2070","2879","3351","1763","2179","2398","1699","2028","2195","1670","1892","1998","1580","1579","1579","DualSpot on"
"MA200-0420","48216","78","1","1.10","1.6","2023-08-04T20:45:00","120","2023/08/04","20:45:00","-15.795663297176361","35.00276649952866","0.0","12","300","64","98","-448","-26980","-584","2","150","149.77","116.14","33.63","19.28","57.8","10.75","90952","19.25","DUALSPOT-UV-BLUE-GREEN-RED-IR","610061","640348","907739","22.029774","8.127914","0.018173","751986","841426","838936","14.763309","5.106115","0.021101","754610","827908","834289","12.619519","4.256777","0.021512","784510","833501","885368","10.224635","3.317712","0.022280","720246","880436","967589","6.719801","1.972437","0.003116","1594","2266","2659","1506","1952","2187","1473","1837","2022","1504","1803","1947","1469","1491","1501","DualSpot on"
"MA200-0420","48217","78","1","1.10","1.6","2023-08-04T20:50:00","120","2023/08/04","20:50:00","-15.795678198337555","35.00271249958314","0.3","12","300","64","98","-500","-26852","-164","2","150","149.89","116.39","33.50","19.29","58.0","10.81","90952","19.25","DUALSPOT-UV-BLUE-GREEN-RED-IR","608977","639767","907517","22.185108","8.195659","0.020272","751250","841309","839208","14.891979","5.154443","0.021362","753316","827142","833911","12.739576","4.300584","0.022601","783861","833353","885557","10.325999","3.352489","0.021449","719523","879997","967327","6.793815","1.994318","0.005452","783","1187","1424","819","1069","1201","856","1085","1202","873","1041","1122","888","912","922","DualSpot on"
"MA200-0420","48218","78","1","1.10","1.6","2023-08-04T20:55:00","120","2023/08/04","20:55:00","-15.795620560646057","35.00278216623701","0.1","13","300","64","97","-408","-27060","-412","2","150","149.97","116.53","33.44","19.29","58.2","10.86","90960","19.25","DUALSPOT-UV-BLUE-GREEN-RED-IR","606397","637575","904960","22.327862","8.256725","0.019609","748360","838691","836979","15.008788","5.197674","0.020468","751138","825292","832330","12.843118","4.337221","0.020275","786868","837052","889711","10.415080","3.381843","0.017299","717343","877737","965014","6.857784","2.012480","-0.002192","719","1072","1279","743","958","1072","737","909","997","766","880","935","766","758","755","DualSpot on"
"MA200-0420","48219","78","1","1.10","1.6","2023-08-04T21:00:00","120","2023/08/04","21:00:00","-15.795678317546844","35.00272299954668","0.1","13","300","64","98","-550","-26641","-970","2","150","149.87","116.54","33.34","19.30","58.3","10.90","90964","19.25","DUALSPOT-UV-BLUE-GREEN-RED-IR","607869","639657","908494","22.474990","8.320762","0.020154","750399","841596","840277","15.129619","5.245167","0.024061","752327","827175","834526","12.951144","4.377094","0.023535","789025","839842","892977","10.505562","3.413791","0.024524","714069","874102","961241","6.926361","2.034869","0.024060","741","1128","1355","768","1056","1208","769","992","1107","778","961","1049","822","938","986","DualSpot on"
"MA200-0420","48220","78","1","1.10","1.6","2023-08-04T21:05:00","120","2023/08/04","21:05:00","-15.795679688453674","35.002733666449785","0.1","13","300","64","98","-444","-27056","-444","2","150","149.56","116.19","33.37","19.30","58.3","10.90","90964","19.25","DUALSPOT-UV-BLUE-GREEN-RED-IR","606966","639223","908457","22.620872","8.385826","0.020677","749459","841136","840201","15.246776","5.291182","0.023625","752026","827339","835062","13.054774","4.417718","0.027234","782564","833424","886450","10.595427","3.446586","0.027025","714512","875124","962522","6.992174","2.054509","0.007507","737","1145","1385","747","1022","1168","740","1010","1148","775","986","1087","791","822","835","DualSpot on"
"MA200-0420","48221","78","1","1.10","1.6","2023-08-04T21:10:00","120","2023/08/04","21:10:00","-15.795679688453674","35.002722332952544","0.3","13","300","64","98","-479","-27032","-360","2","150","149.89","116.31","33.58","19.29","58.4","10.91","90964","19.25","DUALSPOT-UV-BLUE-GREEN-RED-IR","605498","638269","907760","22.789478","8.456078","0.018143","747733","839970","839491","15.394081","5.346948","0.020984","750276","826153","834261","13.189773","4.467085","0.021793","787236","839047","892774","10.711536","3.486900","0.021579","717578","879332","967420","7.075346","2.079542","0.008047","851","1228","1451","938","1231","1386","963","1220","1352","1001","1204","1302","998","1041","1059","DualSpot on"
"MA200-0420","48222","78","1","1.10","1.6","2023-08-04T21:15:00","120","2023/08/04","21:15:00","-15.79565417766571","35.002766999881715","0.2","13","300","64","98","-404","-27028","-416","2","150","150.08","116.03","34.06","19.30","58.4","10.94","90968","19.25","DUALSPOT-UV-BLUE-GREEN-RED-IR","603828","637583","907879","23.066188","8.569263","0.016696","745953","839236","839494","15.631913","5.434779","0.018142","748316","825148","833883","13.405511","4.542905","0.017150","785575","838293","892548","10.896479","3.551139","0.019629","711986","873318","961181","7.208790","2.121047","0.010817","1400","1952","2278","1519","1911","2121","1543","1848","2004","1599","1892","2034","1606","1702","1742","DualSpot on"
"MA200-0420","48223","78","1","1.10","1.6","2023-08-04T21:20:00","120","2023/08/04","21:20:00","-15.795632004737854","35.00279449974187","0.2","13","300","64","98","-404","-27012","-70","2","150","150.02","116.19","33.82","19.29","58.5","10.96","90972","19.25","DUALSPOT-UV-BLUE-GREEN-RED-IR","601955","636418","906985","23.286496","8.661163","0.017523","744183","838080","838881","15.798048","5.499192","0.021353","747036","824469","833652","13.551827","4.596624","0.020905","783058","836238","890718","11.015327","3.592321","0.019993","715096","877615","966167","7.291910","2.145387","0.001143","1113","1595","1881","1059","1411","1599","1045","1318","1458","1026","1221","1316","999","1005","1007","DualSpot on"
"MA200-0420","48224","78","1","1.10","1.6","2023-08-04T21:25:00","120","2023/08/04","21:25:00","-15.79570609331131","35.002758166287094","0.1","12","300","64","98","-538","-27023","-500","2","150","149.73","116.06","33.67","19.28","58.5","10.95","90968","19.25","DUALSPOT-UV-BLUE-GREEN-RED-IR","601041","636041","907098","23.451142","8.733356","0.019148","743206","837678","838920","15.935715","5.553750","0.022576","746623","824662","834256","13.675551","4.646273","0.026858","784227","838065","893023","11.121448","3.631247","0.025352","715369","878442","967292","7.368425","2.169236","0.012948","833","1259","1512","879","1201","1373","885","1224","1398","917","1159","1277","920","989","1018","DualSpot on"
"MA200-0420","48225","78","1","1.10","1.6","2023-08-04T21:30:00","120","2023/08/04","21:30:00","-15.795616269111633","35.00281783286482","0.1","12","300","64","98","-429","-27075","-641","2","150","149.96","116.22","33.74","19.25","58.5","10.92","90980","19.19","DUALSPOT-UV-BLUE-GREEN-RED-IR","599231","634821","906107","23.644230","8.817314","0.018713","740734","835759","837634","16.112774","5.626208","0.023969","744312","822895","833020","13.839633","4.709882","0.024347","781415","835808","891091","11.264511","3.684763","0.026634","713661","876949","966018","7.473556","2.204368","0.023603","975","1461","1750","1129","1591","1840","1172","1565","1767","1235","1591","1764","1263","1454","1534","DualSpot on"
"MA200-0420","48226","78","1","1.10","1.6","2023-08-04T21:35:00","120","2023/08/04","21:35:00","-15.795683681964874","35.00276616611518","0.4","12","300","64","98","-500","-26666","-212","2","150","150.47","116.71","33.77","19.21","58.7","10.92","90972","19.13","DUALSPOT-UV-BLUE-GREEN-RED-IR","595306","632318","904205","24.082406","8.997616","0.016718","736927","833680","836944","16.537014","5.787867","0.019823","740210","820445","831773","14.236661","4.857125","0.021042","776931","832901","889149","11.619308","3.811285","0.022123","711029","875317","965023","7.737995","2.288733","0.016440","2205","3136","3691","2694","3549","4009","2824","3620","4032","3050","3759","4105","3165","3490","3626","DualSpot on"
"MA200-0420","48227","78","1","1.10","1.6","2023-08-04T21:40:00","120","2023/08/04","21:40:00","-15.795680463314056","35.00276349973865","0.1","12","300","64","98","-483","-26975","-656","2","150","150.01","116.37","33.64","19.20","58.8","10.94","90976","19.13","DUALSPOT-UV-BLUE-GREEN-RED-IR","592759","631504","905094","24.615262","9.228333","0.018010","732935","831727","836685","17.053766","5.995717","0.022073","737154","819484","832373","14.726516","5.048140","0.023550","773745","831793","889404","12.057900","3.974058","0.024669","708913","874651","965354","8.071626","2.400481","0.022825","2689","4028","4831","3291","4580","5279","3494","4714","5350","3781","4854","5382","4005","4640","4909","DualSpot on"
"MA200-0420","48228","78","1","1.10","1.6","2023-08-04T21:45:00","120","2023/08/04","21:45:00","-15.795721292495728","35.002762999618426","0.2","13","300","64","98","-472","-26968","-336","2","150","149.96","116.14","33.82","19.17","58.9","10.95","90972","19.06","DUALSPOT-UV-BLUE-GREEN-RED-IR","588589","629036","903687","25.161992","9.464306","0.017328","728346","829102","835849","17.584062","6.210117","0.021341","733092","817483","831955","15.228424","5.242845","0.022085","770320","830455","889499","12.510866","4.143162","0.023714","706284","873419","965087","8.415285","2.512905","0.017793","2764","4098","4902","3384","4699","5417","3587","4780","5405","3912","5016","5563","4133","4644","4861","DualSpot on"
"MA200-0420","48229","78","1","1.10","1.6","2023-08-04T21:50:00","120","2023/08/04","21:50:00","-15.795691847801208","35.00281066610478","0.2","13","300","64","98","-460","-27003","-540","2","150","150.15","116.07","34.07","19.17","58.9","10.95","90968","19.13","DUALSPOT-UV-BLUE-GREEN-RED-IR","586384","628166","904217","25.597122","9.659012","0.017859","725335","827665","835808","17.994302","6.378670","0.021250","730074","816011","831732","15.614123","5.397339","0.022914","767379","829089","889186","12.856941","4.274024","0.023450","704397","872651","965062","8.681536","2.600167","0.016424","2201","3356","4056","2620","3667","4242","2758","3764","4295","2991","3853","4282","3204","3577","3737","DualSpot on"
"MA200-0420","48230","78","1","1.10","1.6","2023-08-04T21:55:00","120","2023/08/04","21:55:00","-15.795742332935333","35.00277033308521","0.2","13","300","64","98","-404","-27016","-464","2","150","149.82","115.95","33.87","19.17","58.9","10.95","90968","19.13","DUALSPOT-UV-BLUE-GREEN-RED-IR","583336","626573","903814","26.073880","9.869488","0.017316","722665","826758","836437","18.436438","6.560700","0.021086","726961","814563","831645","16.031664","5.563426","0.022246","764097","827475","888710","13.231956","4.415172","0.022846","702116","871484","964733","8.970486","2.696901","0.019281","2414","3650","4402","2826","3984","4624","2989","4071","4646","3244","4181","4650","3481","3990","4209","DualSpot on"
"MA200-0420","48231","78","1","1.10","1.6","2023-08-04T22:00:00","120","2023/08/04","22:00:00","-15.795727968215942","35.0027221662458","0.1","13","300","64","98","-383","-27116","-641","2","150","149.93","116.18","33.76","19.17","58.9","10.94","90968","19.13","DUALSPOT-UV-BLUE-GREEN-RED-IR","582079","626236","904597","26.380588","10.012341","0.018683","720750","825903","836523","18.710856","6.677637","0.022472","725415","814073","831989","16.287542","5.668160","0.023658","762426","826787","888763","13.460816","4.506545","0.026741","701088","871234","965027","9.147335","2.756249","0.019847","1550","2485","3057","1751","2568","3021","1828","2575","2974","1976","2715","3087","2126","2456","2598","DualSpot on"
"MA200-0420","48232","78","1","1.10","1.6","2023-08-04T22:05:00","120","2023/08/04","22:05:00","-15.795697629451752","35.00280649936758","0.0","13","300","64","98","-488","-26984","-483","2","150","150.15","116.25","33.90","19.14","59.1","10.95","90976","19.06","DUALSPOT-UV-BLUE-GREEN-RED-IR","583848","629201","910075","26.677734","10.142376","0.016748","722891","829652","841213","18.977452","6.785235","0.019712","722933","812513","831233","16.536116","5.765259","0.020720","760647","826033","888670","13.681885","4.587523","0.020327","699396","870078","964296","9.316216","2.811641","0.016269","1501","2253","2714","1700","2352","2716","1775","2378","2700","1907","2396","2643","2029","2282","2392","DualSpot on"
"MA200-0420","48233","78","1","1.10","1.6","2023-08-04T22:10:00","120","2023/08/04","22:10:00","-15.795673310756683","35.00281799957156","0.2","13","300","64","97","-452","-26884","-540","2","150","149.35","115.73","33.62","19.13","59.3","10.99","90984","19.06","DUALSPOT-UV-BLUE-GREEN-RED-IR","580861","627004","908155","26.980496","10.280514","0.017775","719266","826832","839302","19.252834","6.900136","0.021017","723660","814551","834208","16.796640","5.869314","0.021757","755798","821922","885023","13.916426","4.677860","0.023649","696398","867356","961888","9.495129","2.874230","0.023842","1536","2413","2952","1764","2533","2963","1869","2569","2945","2033","2695","3030","2159","2600","2791","DualSpot on"
"MA200-0420","48234","78","1","1.10","1.6","2023-08-04T22:15:00","120","2023/08/04","22:15:00","-15.795637845993042","35.002807499375194","0.3","13","300","64","98","-424","-27080","-1048","2","150","150.69","116.54","34.16","19.13","59.4","11.03","90976","19.13","DUALSPOT-UV-BLUE-GREEN-RED-IR","580065","627553","910643","27.384060","10.461849","0.016912","713527","822044","835799","19.631246","7.056525","0.019881","718477","810475","831204","17.150806","6.011807","0.021260","756142","823959","888335","14.237843","4.800082","0.021752","696555","869039","964517","9.745075","2.957191","0.016394","2034","3118","3788","2407","3394","3948","2523","3463","3971","2767","3590","4008","2996","3393","3565","DualSpot on"
"MA200-0420","48235","78","1","1.10","1.6","2023-08-04T22:20:00","120","2023/08/04","22:20:00","-15.795692026615143","35.002812166232616","0.1","13","300","64","98","-504","-27175","-483","2","150","149.53","116.21","33.33","19.13","59.4","11.04","90980","19.06","DUALSPOT-UV-BLUE-GREEN-RED-IR","573931","621928","903731","27.697674","10.606823","0.017975","711457","821048","835803","19.924484","7.180693","0.021425","717006","810141","831778","17.428690","6.125089","0.022598","754074","822953","888087","14.487942","4.896554","0.023645","695630","868998","965108","9.942921","3.024001","0.020434","1585","2554","3156","1870","2761","3264","1985","2822","3275","2159","2904","3284","2378","2800","2984","DualSpot on"
"MA200-0420","48236","78","1","1.10","1.6","2023-08-04T22:25:00","120","2023/08/04","22:25:00","-15.79564768075943","35.00279299961403","0.1","13","300","64","98","-483","-27066","-475","2","150","150.08","115.88","34.21","19.09","59.6","11.04","90980","19.00","DUALSPOT-UV-BLUE-GREEN-RED-IR","576209","625024","909036","27.879998","10.689281","0.016615","713974","824772","840148","20.096382","7.251111","0.018788","714731","808379","830495","17.590934","6.187969","0.018508","752381","821869","887405","14.634926","4.952618","0.020931","693875","867480","963796","10.055347","3.061170","0.014632","924","1415","1721","1099","1526","1766","1162","1526","1723","1272","1644","1834","1355","1518","1589","DualSpot on"
"MA200-0420","48237","78","1","1.10","1.6","2023-08-04T22:30:00","120","2023/08/04","22:30:00","-15.795679032802582","35.00277866655961","0.5","13","300","64","98","-400","-27036","-260","2","150","149.90","116.26","33.64","19.09","59.6","11.03","90980","19.06","DUALSPOT-UV-BLUE-GREEN-RED-IR","575133","624500","909079","28.073864","10.781624","0.018234","712971","824463","840492","20.271262","7.327253","0.021775","717517","812299","835133","17.755994","6.257801","0.023449","750535","820586","886578","14.784319","5.011355","0.023791","692468","866367","962955","10.172241","3.100077","0.017464","979","1612","2006","1115","1677","1996","1178","1723","2019","1289","1751","1988","1404","1615","1708","DualSpot on"
"MA200-0420","48238","78","1","1.10","1.6","2023-08-04T22:35:00","120","2023/08/04","22:35:00","-15.79572981595993","35.00270166620612","0.2","13","300","64","98","-332","-26972","-400","2","150","150.08","116.03","34.06","19.08","59.6","11.03","90984","19.06","DUALSPOT-UV-BLUE-GREEN-RED-IR","572129","622199","906849","28.352120","10.907391","0.016485","709549","821715","838578","20.526052","7.434020","0.019555","714391","809895","833456","17.994368","6.354530","0.020652","752819","824166","891164","14.998476","5.094213","0.021680","689912","864134","960978","10.337696","3.155740","0.016819","1408","2169","2644","1627","2324","2719","1705","2358","2714","1851","2440","2744","1992","2283","2411","DualSpot on"
"MA200-0420","48239","78","1","1.10","1.6","2023-08-04T22:40:00","120","2023/08/04","22:40:00","-15.795655488967896","35.00277583301067","0.1","12","300","64","98","-468","-27075","-628","2","150","150.41","116.71","33.70","19.08","59.7","11.04","90976","19.06","DUALSPOT-UV-BLUE-GREEN-RED-IR","572745","623570","909803","28.568440","11.009434","0.017767","710270","823491","841099","20.723364","7.518190","0.020664","710614","806528","830569","18.179532","6.429879","0.021324","747414","819084","886250","15.164513","5.158551","0.022505","690772","865949","963419","10.468029","3.199589","0.018346","1088","1778","2210","1253","1851","2192","1317","1856","2151","1427","1915","2166","1560","1817","1930","DualSpot on"
"MA200-0420","48240","78","1","1.10","1.6","2023-08-04T22:45:00","120","2023/08/04","22:45:00","-15.795750498771667","35.002724832855165","0.1","12","300","64","98","-456","-26984","-496","2","150","150.41","116.27","34.14","19.10","59.6","11.04","90984","19.06","DUALSPOT-UV-BLUE-GREEN-RED-IR","570050","621319","907310","28.766494","11.099380","0.016374","706993","820491","838652","20.898168","7.592221","0.019620","712813","809815","834532","18.342886","6.498110","0.021568","745721","817944","885511","15.311686","5.215822","0.021582","689087","864523","962207","10.583210","3.237277","0.013377","1000","1547","1891","1114","1607","1889","1166","1659","1929","1269","1683","1896","1383","1542","1612","DualSpot on"
"MA200-0420","48241","78","1","1.10","1.6","2023-08-04T22:50:00","120","2023/08/04","22:50:00","-15.795713007450104","35.00276883295737","0.2","13","300","64","98","-424","-26856","-616","2","150","150.02","116.26","33.77","19.08","59.6","11.02","90988","19.06","DUALSPOT-UV-BLUE-GREEN-RED-IR","569423","621301","908127","28.972644","11.193253","0.016587","706182","820466","839290","21.085890","7.670343","0.019200","711396","809040","834324","18.518684","6.567052","0.018994","750586","824069","892668","15.468832","5.275604","0.020672","688144","864032","962051","10.704826","3.278257","0.017519","1041","1632","2005","1197","1715","2011","1255","1695","1936","1356","1776","1993","1461","1695","1798","DualSpot on"
"MA200-0420","48242","78","1","1.10","1.6","2023-08-04T22:55:00","120","2023/08/04","22:55:00","-15.79572582244873","35.00273516634479","0.0","13","300","64","98","-59","-27216","483","2","150","150.28","116.39","33.89","19.10","59.4","11.00","90992","19.06","DUALSPOT-UV-BLUE-GREEN-RED-IR","569265","621774","909640","29.162242","11.280716","0.016734","706630","821798","841239","21.255950","7.742436","0.019650","706872","804615","830329","18.677034","6.633409","0.021695","744585","818201","886792","15.610023","5.331337","0.022470","688392","864997","963485","10.817047","3.316742","0.018871","956","1515","1868","1083","1577","1860","1129","1625","1899","1217","1650","1874","1346","1586","1692","DualSpot on"
"MA200-0420","48243","78","1","1.10","1.6","2023-08-04T23:00:00","120","2023/08/04","23:00:00","-15.795697331428528","35.002789832884446","0.1","12","300","64","98","-716","-26740","-1164","2","150","149.96","116.10","33.86","19.12","59.3","10.99","90992","19.13","DUALSPOT-UV-BLUE-GREEN-RED-IR","569042","621983","910776","29.324436","11.367107","0.019590","700234","814898","834835","21.401290","7.819050","0.026167","706629","804887","831170","18.812768","6.702223","0.028402","744054","818117","887255","15.731684","5.391886","0.032937","688390","865482","964368","10.911541","3.353740","0.030340","820","1498","1928","928","1677","2109","970","1687","2084","1051","1794","2181","1136","1526","1699","DualSpot on"
