"Serial number","Datum ID","Session ID","Data format version","Firmware version","App version","Date / time local","Timezone offset (mins)","Date local (yyyy/MM/dd)","Time local (hh:mm:ss)","GPS lat (ddmm.mmmmm)","GPS long (dddmm.mmmmm)","GPS speed (km/h)","GPS sat count","Timebase (s)","Status","Battery remaining (%)","Accel X","Accel Y","Accel Z","Tape position","Flow setpoint (mL/min)","Flow total (mL/min)","Flow1 (mL/min)","Flow2 (mL/min)","Sample temp (C)","Sample RH (%)","Sample dewpoint (C)","Internal pressure (Pa)","Internal temp (C)","Optical config","UV Sen1","UV Sen2","UV Ref","UV ATN1","UV ATN2","UV K","Blue Sen1","Blue Sen2","Blue Ref","Blue ATN1","Blue ATN2","Blue K","Green Sen1","Green Sen2","Green Ref","Green ATN1","Green ATN2","Green K","Red Sen1","Red Sen2","Red Ref","Red ATN1","Red ATN2","Red K","IR Sen1","IR Sen2","IR Ref","IR ATN1","IR ATN2","IR K","UV BC1","UV BC2","UV BCc","Blue BC1","Blue BC2","Blue BCc","Green BC1","Green BC2","Green BCc","Red BC1","Red BC2","Red BCc","IR BC1","IR BC2","IR BCc","Readable status"
"MA200-0416","19363","55","1","1.10","1.4","2023-05-03T16:13:00","120","2023/05/03","16:13:00","-15.798867762088776","35.00439449911937","8.4","17","30","66","38","-24150","689","-7263","15","150","150.03","115.25","34.79","31.65","0.0","-203.54","90316","30.63","DUALSPOT-UV-BLUE-GREEN-RED-IR","895105","771222","940653","0.000000","0.000000","0.000000","858392","978387","804757","0.000000","0.000000","0.000000","935825","957808","839590","0.000000","0.000000","0.000000","809012","861336","786227","0.000000","0.000000","0.000000","754779","871472","960994","0.000000","0.000000","0.000000","","","","","","","","","","","","","","","","Start up"
"MA200-0416","19364","55","1","1.10","1.4","2023-05-03T16:13:30","120","2023/05/03","16:13:30","-15.796015679836273","35.00438333302736","11.2","17","30","66","38","-24668","2496","-6308","15","150","150.23","115.91","34.32","31.66","38.0","15.62","90500","30.88","DUALSPOT-UV-BLUE-GREEN-RED-IR","858970","744368","909827","0.000000","0.000000","0.000000","812340","929858","766225","0.000000","0.000000","0.000000","902113","926710","813474","0.000000","0.000000","0.000000","880403","940139","859236","0.000000","0.000000","0.000000","744459","861563","950805","0.000000","0.000000","0.000000","","","","","","","","","","","","","","","","Start up"
"MA200-0416","19365","55","1","1.10","1.4","2023-05-03T16:14:00","120","2023/05/03","16:14:00","-15.794694364070892","35.00398749904707","1.8","17","30","66","38","-23796","-588","-8580","15","150","149.83","115.83","34.00","31.66","37.9","15.57","90588","31.00","DUALSPOT-UV-BLUE-GREEN-RED-IR","850605","738671","903619","0.000000","0.000000","0.000000","806220","924277","762097","0.000000","0.000000","0.000000","902207","927985","815035","0.000000","0.000000","0.000000","881482","942256","861559","0.000000","0.000000","0.000000","744934","862761","952353","0.000000","0.000000","0.000000","","","","","","","","","","","","","","","","Start up"
"MA200-0416","19366","55","1","1.10","1.4","2023-05-03T16:14:30","120","2023/05/03","16:14:30","-15.794676065444946","35.00392166618258","0.1","16","30","66","38","-23796","-2476","-9960","15","150","149.80","115.87","33.93","31.64","37.7","15.46","90568","31.00","DUALSPOT-UV-BLUE-GREEN-RED-IR","850448","739242","904650","0.000000","0.000000","0.000000","806156","924755","762735","0.000000","0.000000","0.000000","900955","927188","814550","0.000000","0.000000","0.000000","878982","939980","859663","0.000000","0.000000","0.000000","744173","862177","951845","0.000000","0.000000","0.000000","","","","","","","","","","","","","","","","Start up"
"MA200-0416","19367","55","1","1.10","1.4","2023-05-03T16:15:00","120","2023/05/03","16:15:00","-15.794606328010559","35.003596833208576","3.3","16","30","66","38","-24624","-2692","-6088","15","150","149.90","115.79","34.10","31.60","37.5","15.34","90536","30.94","DUALSPOT-UV-BLUE-GREEN-RED-IR","849600","738695","904044","0.000000","0.000000","0.000000","804895","923444","761695","0.000000","0.000000","0.000000","901550","927882","815232","0.000000","0.000000","0.000000","879273","940362","860068","0.000000","0.000000","0.000000","744574","862654","952398","0.000000","0.000000","0.000000","","","","","","","","","","","","","","","","Start up"
"MA200-0416","19368","55","1","1.10","1.4","2023-05-03T16:15:30","120","2023/05/03","16:15:30","-15.794393241405487","35.00268733268604","1.9","16","30","64","37","-24432","-3300","-6752","15","150","149.66","115.50","34.16","31.58","37.2","15.21","90500","30.94","DUALSPOT-UV-BLUE-GREEN-RED-IR","853632","742351","908633","0.000000","0.000000","0.000000","802420","920711","759514","0.000000","0.000000","0.000000","898774","925097","812833","0.000000","0.000000","0.000000","883844","945344","864655","0.000000","0.000000","0.000000","742523","860365","949869","0.000000","0.000000","0.000000","","","","","","","","","","","","","","","",""
"MA200-0416","19369","55","1","1.10","1.4","2023-05-03T16:16:00","120","2023/05/03","16:16:00","-15.795017421245575","35.00193949986715","4.6","16","30","64","37","-24588","-352","-5740","15","150","149.87","115.63","34.24","31.54","37.1","15.12","90476","30.88","DUALSPOT-UV-BLUE-GREEN-RED-IR","853023","742002","908254","0.031027","0.007888","0.000000","807932","927122","764821","0.017035","0.006336","0.000000","903385","929919","817126","0.014108","0.005692","0.000000","884067","945620","864950","0.009447","0.004452","0.000000","742396","860221","949740","0.004148","0.001040","0.000000","1576","1353","1576","1092","1371","1092","1013","1380","1013","819","1304","819","501","424","501",""
"MA200-0416","19370","55","1","1.10","1.4","2023-05-03T16:16:30","120","2023/05/03","16:16:30","-15.79527598619461","35.00077266653534","4.8","16","30","64","37","-24013","36","-8769","15","150","149.76","115.71","34.05","31.51","37.1","15.09","90556","30.75","DUALSPOT-UV-BLUE-GREEN-RED-IR","850916","740713","906830","0.118792","0.024230","0.000000","806230","925620","763687","0.076377","0.017822","0.000000","902558","929443","816759","0.059896","0.014317","0.000000","881026","942621","862303","0.045943","0.012785","0.000000","745998","864544","954547","0.022495","0.002026","0.000000","4454","2818","4454","3801","2500","3801","3285","2102","3285","3164","2455","3164","2214","404","2214",""
"MA200-0416","19371","55","1","1.10","1.4","2023-05-03T16:17:00","120","2023/05/03","16:17:00","-15.795550346374512","34.99969303607941","3.0","16","30","64","38","-24724","-4320","-5956","15","150","150.04","115.92","34.12","31.45","37.2","15.08","90672","30.69","DUALSPOT-UV-BLUE-GREEN-RED-IR","847716","738122","903709","0.153694","0.033500","0.000000","803898","923111","761660","0.097715","0.023920","0.000000","900736","927675","815249","0.076878","0.021028","0.000000","880149","941732","861542","0.058490","0.017708","0.000000","745167","863614","953509","0.027053","0.003829","0.000000","1768","1595","1768","1364","1324","1364","1216","1632","1216","1085","1447","1085","549","738","549",""
"MA200-0416","19372","55","1","1.10","1.4","2023-05-03T16:17:30","120","2023/05/03","16:17:30","-15.795533001422882","34.99876654148102","3.1","16","30","64","38","-24488","-3928","-6892","15","150","149.83","115.79","34.04","31.41","37.3","15.08","90584","30.63","DUALSPOT-UV-BLUE-GREEN-RED-IR","854338","744058","911083","0.186523","0.041353","0.000000","803029","922183","760965","0.117403","0.030035","0.000000","899788","926742","814522","0.093793","0.027400","0.000000","885237","947266","866609","0.070458","0.023234","0.000000","744283","862632","952423","0.029727","0.003779","0.000000","1665","1355","1665","1260","1331","1260","1212","1554","1212","1037","1628","1037","322","-20","322",""
"MA200-0416","19373","55","1","1.10","1.4","2023-05-03T16:18:00","120","2023/05/03","16:18:00","-15.795528054237366","34.99779438972473","4.0","16","30","64","37","-24708","-1816","-5640","15","150","150.03","115.79","34.24","31.35","37.2","15.01","90532","30.63","DUALSPOT-UV-BLUE-GREEN-RED-IR","851451","741799","908433","0.234076","0.056255","0.000000","807142","927113","765105","0.145971","0.040996","0.000000","898554","925627","813570","0.114482","0.035971","0.000000","884493","946522","866046","0.086081","0.032371","0.000000","743613","861842","951591","0.036178","0.007026","0.000000","2412","2556","2412","1829","2373","1829","1483","2078","1483","1353","2677","1353","778","1324","778",""
"MA200-0416","19374","55","1","1.10","1.4","2023-05-03T16:18:30","120","2023/05/03","16:18:30","-15.795486807823181","34.99669474363327","3.7","16","30","64","37","-24288","820","-7024","15","150","149.80","115.92","33.88","31.30","37.2","14.97","90616","30.56","DUALSPOT-UV-BLUE-GREEN-RED-IR","850785","741444","908123","0.279528","0.068782","0.000000","806607","926654","764764","0.169617","0.048398","0.000000","902174","929449","817001","0.132173","0.043410","0.000000","882366","944282","864057","0.099968","0.039547","0.000000","742639","860781","950410","0.040786","0.008647","0.000000","2303","2171","2303","1512","1619","1512","1267","1822","1267","1201","2125","1201","555","668","555",""
"MA200-0416","19375","55","1","1.10","1.4","2023-05-03T16:19:00","120","2023/05/03","16:19:00","-15.795459151268005","34.99568718671799","4.1","16","30","64","37","-24600","-33","-6254","15","150","149.57","115.75","33.81","31.26","37.3","14.98","90716","30.56","DUALSPOT-UV-BLUE-GREEN-RED-IR","849755","740758","907410","0.321168","0.082244","0.000000","805875","925880","764231","0.191164","0.058616","0.000000","902348","929672","817280","0.147813","0.051712","0.000000","880539","942382","862380","0.110828","0.045961","0.000000","742498","860548","950237","0.044048","0.012318","0.000000","2112","2338","2112","1379","2240","1379","1121","2038","1121","941","1902","941","393","1516","393",""
"MA200-0416","19376","55","1","1.10","1.4","2023-05-03T16:19:30","120","2023/05/03","16:19:30","-15.795450747013092","34.99477583169937","4.2","16","30","64","37","-24472","-392","-6660","15","150","150.09","115.39","34.70","31.23","37.4","14.98","90728","30.56","DUALSPOT-UV-BLUE-GREEN-RED-IR","849554","740740","907512","0.356154","0.094120","0.000000","805515","925610","764050","0.210529","0.065822","0.000000","902408","929805","817420","0.162423","0.058252","0.000000","880388","942269","862335","0.122082","0.053179","0.000000","742657","860736","950468","0.046400","0.014136","0.000000","1780","2010","1780","1244","1539","1244","1051","1564","1051","978","2087","978","284","731","284",""
"MA200-0416","19377","55","1","1.10","1.4","2023-05-03T16:20:00","120","2023/05/03","16:20:00","-15.795299172401428","34.99375659227371","3.3","16","30","64","37","-24484","-3496","-7404","15","150","149.80","115.98","33.82","31.20","37.4","14.94","90780","30.50","DUALSPOT-UV-BLUE-GREEN-RED-IR","846811","738520","904853","0.389215","0.103378","0.000000","804486","924524","763221","0.229239","0.074256","0.000000","900471","927893","815813","0.177311","0.065881","0.000000","879715","941568","861745","0.133293","0.059575","0.000000","746408","865109","955273","0.049541","0.015782","0.000000","1674","1608","1674","1195","1849","1195","1065","1873","1065","969","1897","969","378","680","378",""
"MA200-0416","19378","55","1","1.10","1.4","2023-05-03T16:20:30","120","2023/05/03","16:20:30","-15.795952022075653","34.99310553073883","4.1","16","30","64","37","-24375","-1100","-7525","15","150","150.03","116.03","34.00","31.15","37.4","14.90","90728","30.44","DUALSPOT-UV-BLUE-GREEN-RED-IR","846539","738473","904894","0.420453","0.111572","0.000000","803877","923912","762753","0.247770","0.080240","0.000000","900823","928281","816235","0.190872","0.071746","0.000000","877712","939473","859860","0.143390","0.065368","0.000000","746288","864992","955145","0.051223","0.015979","0.000000","1581","1415","1581","1183","1304","1183","970","1432","970","873","1709","873","202","81","202",""
"MA200-0416","19379","55","1","1.10","1.4","2023-05-03T16:21:00","120","2023/05/03","16:21:00","-15.79678726196289","34.99257105588913","2.6","16","30","64","37","-24540","-1592","-6611","15","150","150.36","116.31","34.05","31.11","37.4","14.86","90784","30.44","DUALSPOT-UV-BLUE-GREEN-RED-IR","852117","743521","911178","0.456047","0.123126","0.000000","802532","922477","761631","0.266570","0.088489","0.000000","899104","926624","814780","0.204068","0.077135","0.000000","877076","938857","859367","0.152885","0.070399","0.000000","745592","864205","954328","0.056056","0.018520","0.000000","1797","1993","1797","1198","1796","1198","941","1313","941","819","1482","819","580","1042","580",""
"MA200-0416","19380","55","1","1.10","1.4","2023-05-03T16:21:30","120","2023/05/03","16:21:30","-15.797540545463562","34.992228865623474","4.3","16","30","64","36","-24472","-1360","-6643","15","150","149.63","115.71","33.92","31.07","37.3","14.80","90772","30.38","DUALSPOT-UV-BLUE-GREEN-RED-IR","848991","741018","908176","0.497441","0.134202","0.000000","799163","918725","758597","0.288182","0.095470","0.000000","897684","925244","813612","0.220817","0.083869","0.000000","882789","945033","865052","0.163728","0.074995","0.000000","744232","862648","952611","0.058498","0.019442","0.000000","2101","1917","2101","1384","1525","1384","1201","1648","1201","940","1359","940","294","379","294",""
"MA200-0416","19381","55","1","1.10","1.4","2023-05-03T16:22:00","120","2023/05/03","16:22:00","-15.798581659793854","34.99191188812256","4.0","16","30","64","36","-24660","-1428","-6172","15","150","149.39","115.31","34.07","31.04","37.3","14.76","90788","30.38","DUALSPOT-UV-BLUE-GREEN-RED-IR","849311","741520","908915","0.537769","0.145803","0.000000","805919","926633","765171","0.310492","0.103944","0.000000","897818","925457","813881","0.235605","0.089628","0.000000","883349","945676","865674","0.173860","0.080508","0.000000","744704","863223","953221","0.063215","0.020455","0.000000","2054","1999","2054","1434","1843","1434","1064","1403","1064","881","1623","881","571","415","571",""
"MA200-0416","19382","55","1","1.10","1.4","2023-05-03T16:22:30","120","2023/05/03","16:22:30","-15.79959750175476","34.99191218614578","4.0","16","30","64","36","-24452","-392","-6764","15","150","149.45","115.67","33.77","30.98","37.2","14.68","90852","30.31","DUALSPOT-UV-BLUE-GREEN-RED-IR","847380","740040","907212","0.577425","0.157302","0.000000","804943","925646","764419","0.332272","0.110572","0.000000","901698","929565","817534","0.254964","0.098109","0.000000","881585","943858","864039","0.188165","0.087845","0.000000","743902","862312","952239","0.067226","0.022508","0.000000","2013","1999","2013","1395","1454","1395","1389","2084","1389","1240","2179","1240","484","849","484",""
"MA200-0416","19383","55","1","1.10","1.4","2023-05-03T16:23:00","120","2023/05/03","16:23:00","-15.800419390201569","34.99195557832718","2.7","16","30","64","36","-24528","-2188","-5968","15","150","150.08","115.88","34.20","30.94","37.2","14.65","90828","30.25","DUALSPOT-UV-BLUE-GREEN-RED-IR","844910","738136","904954","0.621564","0.168787","0.000000","803381","924008","763135","0.358337","0.118906","0.000000","900676","928645","816766","0.272065","0.104612","0.000000","880027","942262","862660","0.202310","0.093019","0.000000","743208","861532","951403","0.071180","0.023153","0.000000","2237","1972","2237","1667","1806","1667","1225","1578","1225","1224","1517","1224","476","263","476",""
"MA200-0416","19384","55","1","1.10","1.4","2023-05-03T16:23:30","120","2023/05/03","16:23:30","-15.801028072834015","34.992226243019104","2.6","16","30","64","36","-24300","-4728","-6376","15","150","149.90","116.27","33.63","30.90","37.2","14.61","90788","30.19","DUALSPOT-UV-BLUE-GREEN-RED-IR","843502","737059","903755","0.659337","0.180789","0.000000","802395","922987","762325","0.378930","0.126266","0.000000","899624","927624","815939","0.286364","0.109571","0.000000","879057","941262","861801","0.212770","0.098371","0.000000","742646","860903","950730","0.074888","0.024601","0.000000","1908","2096","1908","1313","1622","1313","1021","1224","1021","902","1596","902","445","601","445",""
"MA200-0416","19385","55","1","1.10","1.4","2023-05-03T16:24:00","120","2023/05/03","16:24:00","-15.80090618133545","34.992944061756134","3.4","16","30","64","36","-24312","-3366","-6970","15","150","150.36","115.95","34.41","30.85","37.2","14.56","90708","30.19","DUALSPOT-UV-BLUE-GREEN-RED-IR","842698","736583","903238","0.696817","0.190202","0.000000","801760","922386","761888","0.399428","0.133968","0.000000","899270","927368","815777","0.303596","0.116890","0.000000","877089","939209","859971","0.224435","0.105047","0.000000","746856","865808","956156","0.079513","0.026667","0.000000","1898","1606","1898","1310","1659","1310","1233","1766","1233","1009","1946","1009","557","838","557",""
"MA200-0416","19386","55","1","1.10","1.4","2023-05-03T16:24:30","120","2023/05/03","16:24:30","-15.800574660301208","34.99390035867691","3.9","16","30","64","36","-24656","-2408","-6736","15","150","150.29","116.35","33.94","30.82","37.2","14.53","90712","30.13","DUALSPOT-UV-BLUE-GREEN-RED-IR","850070","743202","911495","0.734171","0.201326","0.000000","801260","921947","761581","0.420421","0.140209","0.000000","898978","927115","815607","0.319016","0.123030","0.000000","883293","945947","866166","0.236082","0.109893","0.000000","741827","859968","949721","0.082122","0.027550","0.000000","1885","1924","1885","1337","1362","1337","1100","1501","1100","1004","1432","1004","313","363","313",""
"MA200-0416","19387","55","1","1.10","1.4","2023-05-03T16:25:00","120","2023/05/03","16:25:00","-15.800431966781616","34.99451285600662","3.0","16","30","64","36","-24488","-2252","-7528","15","150","149.90","115.79","34.10","30.78","37.1","14.47","90684","30.13","DUALSPOT-UV-BLUE-GREEN-RED-IR","847862","741483","909468","0.770222","0.211982","0.000000","805034","926420","765332","0.440544","0.148141","0.000000","897655","925866","814542","0.333774","0.128663","0.000000","882532","945156","865505","0.247251","0.115240","0.000000","745559","864352","954575","0.085617","0.028683","0.000000","1828","1835","1828","1288","1724","1288","1058","1371","1058","967","1572","967","421","464","421",""
"MA200-0416","19388","55","1","1.10","1.4","2023-05-03T16:25:30","120","2023/05/03","16:25:30","-15.801056027412415","34.99490034580231","3.0","16","30","64","36","-24296","-3984","-7100","15","150","149.70","115.75","33.95","30.72","37.1","14.38","90632","30.06","DUALSPOT-UV-BLUE-GREEN-RED-IR","845126","739367","906976","0.819754","0.225553","0.000000","803123","924417","763743","0.469595","0.157077","0.000000","896361","924626","813508","0.355773","0.137365","0.000000","881683","944344","864832","0.262361","0.122100","0.000000","745053","863818","953991","0.093050","0.031579","0.000000","2513","2348","2513","1860","1951","1860","1577","2128","1577","1309","2027","1309","897","1191","897",""
"MA200-0416","19389","55","1","1.10","1.4","2023-05-03T16:26:00","120","2023/05/03","16:26:00","-15.801637411117554","34.995466113090515","3.8","16","30","64","36","-24548","-1580","-7043","15","150","149.35","115.69","33.66","30.72","37.0","14.35","90608","30.06","DUALSPOT-UV-BLUE-GREEN-RED-IR","844427","738976","906607","0.860328","0.235994","0.000000","802944","924317","763727","0.492042","0.164264","0.000000","895535","923904","812951","0.374239","0.143796","0.000000","879791","942390","863046","0.276297","0.128006","0.000000","744326","862976","953071","0.097673","0.033105","0.000000","2059","1822","2059","1438","1583","1438","1325","1586","1325","1208","1760","1208","558","633","558",""
"MA200-0416","19390","55","1","1.10","1.4","2023-05-03T16:26:30","120","2023/05/03","16:26:30","-15.801955044269562","34.99627602100372","2.6","16","30","64","36","-23820","-5820","-7324","15","150","150.43","116.31","34.12","30.68","37.0","14.32","90588","30.00","DUALSPOT-UV-BLUE-GREEN-RED-IR","843259","738215","905795","0.906128","0.247186","0.000000","800996","922265","762099","0.519263","0.172639","0.000000","900781","929427","817869","0.394696","0.150728","0.000000","879194","941826","862611","0.291460","0.134284","0.000000","744537","863244","953407","0.102832","0.034186","0.000000","2312","1926","2312","1735","1819","1735","1460","1686","1460","1307","1845","1307","619","442","619",""
"MA200-0416","19391","55","1","1.10","1.4","2023-05-03T16:27:00","120","2023/05/03","16:27:00","-15.801550030708313","34.996929347515106","2.4","16","30","64","36","-24076","-3576","-7688","15","150","150.29","115.91","34.38","30.64","37.0","14.29","90528","29.94","DUALSPOT-UV-BLUE-GREEN-RED-IR","841046","736434","903694","0.940601","0.256797","0.000000","800126","921373","761401","0.539195","0.178575","0.000000","899208","927876","816527","0.408887","0.155901","0.000000","876799","939317","860346","0.301980","0.138647","0.000000","743032","861507","951503","0.106372","0.035225","0.000000","1746","1641","1746","1274","1279","1274","1016","1249","1016","910","1273","910","426","422","426",""
"MA200-0416","19392","55","1","1.10","1.4","2023-05-03T16:27:30","120","2023/05/03","16:27:30","-15.801115989685059","34.997589349746704","1.7","16","30","64","36","-24204","-2744","-7204","15","150","149.45","115.87","33.57","30.59","37.1","14.26","90472","29.94","DUALSPOT-UV-BLUE-GREEN-RED-IR","847495","742256","910906","0.971103","0.265310","0.000000","804701","926768","765926","0.557846","0.184888","0.000000","898196","926926","815734","0.422710","0.161427","0.000000","876022","938531","859674","0.312322","0.144059","0.000000","742725","861179","951148","0.109884","0.037384","0.000000","1546","1489","1546","1193","1394","1193","990","1366","990","895","1617","895","423","897","423",""
"MA200-0416","19393","55","1","1.10","1.4","2023-05-03T16:28:00","120","2023/05/03","16:28:00","-15.800412833690643","34.99702721834183","4.1","16","30","64","36","-24592","-1308","-6964","15","150","150.09","116.31","33.79","30.55","37.1","14.23","0","0.00","DUALSPOT-UV-BLUE-GREEN-RED-IR","846434","741527","910090","1.006969","0.275693","0.000000","803360","925345","764799","0.577622","0.192153","0.000000","897692","926463","815372","0.438702","0.167888","0.000000","882986","946037","866587","0.323998","0.148767","0.000000","742617","861065","951039","0.111902","0.038070","0.000000","1811","1805","1811","1260","1594","1260","1141","1587","1141","1007","1398","1007","242","283","242",""
"MA200-0416","19394","55","1","1.10","1.4","2023-05-03T16:28:30","120","2023/05/03","16:28:30","-15.799855172634125","34.996101796627045","3.9","16","30","64","36","-24664","-944","-7108","15","150","149.96","115.99","33.97","30.52","37.1","14.22","0","0.00","DUALSPOT-UV-BLUE-GREEN-RED-IR","844826","740260","908637","1.039145","0.285512","0.000000","802550","924534","764179","0.597650","0.198722","0.000000","896817","925668","814748","0.453167","0.173670","0.000000","881704","944743","865460","0.334155","0.154025","0.000000","741962","860331","950232","0.117366","0.039886","0.000000","1629","1697","1629","1279","1433","1279","1035","1413","1035","878","1552","878","658","746","658",""
"MA200-0416","19395","55","1","1.10","1.4","2023-05-03T16:29:00","120","2023/05/03","16:29:00","-15.799173355102539","34.99564749002457","2.8","16","30","64","36","-24488","-1248","-7132","15","150","149.76","116.07","33.69","30.48","37.1","14.17","90516","29.88","DUALSPOT-UV-BLUE-GREEN-RED-IR","844412","740103","908554","1.075882","0.296268","0.000000","801981","924001","763777","0.617897","0.205404","0.000000","896787","925758","814841","0.469458","0.179648","0.000000","880776","943809","864635","0.347191","0.160158","0.000000","746279","865378","955821","0.121641","0.041531","0.000000","1859","1874","1859","1293","1470","1293","1165","1472","1165","1126","1826","1126","514","682","514",""
"MA200-0416","19396","55","1","1.10","1.4","2023-05-03T16:29:30","120","2023/05/03","16:29:30","-15.798260986804962","34.99504768848419","4.4","16","30","64","35","-24600","-796","-8212","15","150","150.56","116.07","34.49","30.46","37.1","14.15","90568","29.81","DUALSPOT-UV-BLUE-GREEN-RED-IR","840923","737318","905220","1.110929","0.305870","0.000000","798959","920691","761107","0.638353","0.213087","0.000000","894802","923780","813158","0.483942","0.185293","0.000000","878503","941449","862531","0.358796","0.165993","0.000000","740292","858479","948219","0.125701","0.042307","0.000000","1773","1635","1773","1306","1651","1306","1035","1358","1035","1003","1697","1003","488","314","488",""
"MA200-0416","19397","55","1","1.10","1.4","2023-05-03T16:30:00","120","2023/05/03","16:30:00","-15.797600388526917","34.99476432800293","2.7","16","30","64","36","-24312","-2252","-7564","15","150","150.42","116.21","34.21","30.42","37.0","14.11","90612","29.81","DUALSPOT-UV-BLUE-GREEN-RED-IR","842101","738616","906950","1.178051","0.324167","0.000000","800108","922123","762357","0.668740","0.222749","0.000000","896308","925466","814706","0.505953","0.192726","0.000000","880147","943283","864263","0.372469","0.170887","0.000000","741806","860208","950144","0.130619","0.045627","0.000000","3392","3141","3392","1938","2093","1938","1572","1803","1572","1180","1434","1180","591","1355","591",""
"MA200-0416","19398","55","1","1.10","1.4","2023-05-03T16:30:30","120","2023/05/03","16:30:30","-15.797422468662262","34.99562323093414","4.2","16","30","64","36","-23992","-2019","-7824","15","150","150.29","116.39","33.90","30.39","37.0","14.06","90592","29.81","DUALSPOT-UV-BLUE-GREEN-RED-IR","841142","737939","906205","1.210602","0.333501","0.000000","799780","921910","762228","0.687557","0.228090","0.000000","895015","924201","813645","0.521052","0.197709","0.000000","877831","940845","862088","0.384545","0.176757","0.000000","745438","864502","954915","0.135112","0.046218","0.000000","1642","1617","1642","1198","1167","1198","1077","1220","1077","1040","1737","1040","539","243","539",""
"MA200-0416","19399","55","1","1.10","1.4","2023-05-03T16:31:00","120","2023/05/03","16:31:00","-15.79741656780243","34.99640679359436","1.9","16","30","64","36","-24616","-3928","-5724","15","150","149.83","115.99","33.84","30.36","37.0","14.05","90600","29.75","DUALSPOT-UV-BLUE-GREEN-RED-IR","839001","736276","904244","1.244062","0.341600","0.000000","803386","926186","765777","0.706845","0.233489","0.000000","894349","923604","813120","0.535517","0.201839","0.000000","876986","940018","861344","0.395983","0.180953","0.000000","745153","864145","954534","0.137870","0.047260","0.000000","1694","1405","1694","1232","1182","1232","1035","1013","1035","989","1244","989","332","429","332",""
"MA200-0416","19400","55","1","1.10","1.4","2023-05-03T16:31:30","120","2023/05/03","16:31:30","-15.797430455684662","34.997235894203186","3.1","16","30","64","36","-24508","-4248","-6704","15","150","149.83","116.31","33.52","30.33","37.0","14.03","90520","29.75","DUALSPOT-UV-BLUE-GREEN-RED-IR","837976","735527","903422","1.278640","0.351324","0.000000","803311","926223","765862","0.726532","0.238609","0.000000","898261","927743","816840","0.550055","0.208146","0.000000","876326","939357","860793","0.405132","0.184185","0.000000","744452","863362","953649","0.141613","0.048590","0.000000","1746","1703","1746","1254","1132","1254","1037","1561","1037","789","967","789","449","554","449",""
"MA200-0416","19401","55","1","1.10","1.4","2023-05-03T16:32:00","120","2023/05/03","16:32:00","-15.797741115093231","34.997678399086","3.6","16","30","64","35","-24444","-2856","-6772","15","150","149.45","115.95","33.49","30.31","37.1","14.03","90452","29.75","DUALSPOT-UV-BLUE-GREEN-RED-IR","837235","735058","902894","1.310285","0.360269","0.000000","801938","924753","764725","0.745642","0.246341","0.000000","898706","928309","817359","0.564259","0.212282","0.000000","875953","938988","860501","0.415289","0.188810","0.000000","744663","863682","953997","0.145004","0.048984","0.000000","1603","1568","1603","1221","1711","1221","1017","1025","1017","878","1385","878","408","164","408",""
"MA200-0416","19402","55","1","1.10","1.4","2023-05-03T16:32:30","120","2023/05/03","16:32:30","-15.798701167106628","34.997967064380646","2.7","16","30","64","35","-24556","-2896","-6368","15","150","150.69","116.11","34.58","30.27","37.0","13.98","90436","29.69","DUALSPOT-UV-BLUE-GREEN-RED-IR","843319","740549","909806","1.345733","0.370344","0.000000","801042","923842","764026","0.767678","0.254232","0.000000","897636","927288","816536","0.580609","0.219697","0.000000","874542","937541","859227","0.427591","0.194824","0.000000","744282","863241","953524","0.150487","0.051356","0.000000","1793","1711","1793","1406","1691","1406","1169","1780","1169","1063","1744","1063","659","958","659",""
"MA200-0416","19403","55","1","1.10","1.4","2023-05-03T16:33:00","120","2023/05/03","16:33:00","-15.79953783750534","34.998027205467224","3.8","16","30","64","35","-24412","-2936","-6556","15","150","149.83","115.95","33.88","30.24","37.0","13.94","90380","29.69","DUALSPOT-UV-BLUE-GREEN-RED-IR","842962","740453","909754","1.383034","0.381988","0.000000","800685","923574","763847","0.789618","0.260837","0.000000","896740","926477","815891","0.598896","0.226706","0.000000","881301","944889","865967","0.440830","0.198507","0.000000","743160","861943","952147","0.156353","0.052593","0.000000","1889","2018","1889","1402","1445","1402","1309","1717","1309","1145","1090","1145","706","510","706",""
"MA200-0416","19404","55","1","1.10","1.4","2023-05-03T16:33:30","120","2023/05/03","16:33:30","-15.800616145133972","34.997827231884","4.0","16","30","64","35","-24500","-256","-6116","15","150","149.96","116.11","33.85","30.21","36.9","13.88","90428","29.63","DUALSPOT-UV-BLUE-GREEN-RED-IR","840782","739011","908201","1.468840","0.405067","0.000000","799131","922189","762861","0.850349","0.279075","0.000000","895279","925287","814936","0.646913","0.240010","0.000000","878695","942336","863743","0.478625","0.211889","0.000000","742358","861159","951323","0.176849","0.058084","0.000000","4340","4004","4340","3877","3993","3877","3433","3262","3433","3265","3966","3265","2465","2266","2465",""
"MA200-0416","19405","55","1","1.10","1.4","2023-05-03T16:34:00","120","2023/05/03","16:34:00","-15.80118590593338","34.997770845890045","3.1","16","30","64","35","-24620","-2100","-6248","15","150","150.21","116.25","33.96","30.18","36.9","13.83","90456","29.50","DUALSPOT-UV-BLUE-GREEN-RED-IR","838277","736951","905730","1.497198","0.412792","0.000000","802135","925760","765864","0.869554","0.285339","0.000000","893614","923606","813497","0.660735","0.245512","0.000000","877101","940671","862250","0.488591","0.216258","0.000000","745977","865404","956031","0.181432","0.059007","0.000000","1432","1335","1432","1224","1367","1224","987","1344","987","860","1290","860","550","379","550",""
"MA200-0416","19406","55","1","1.10","1.4","2023-05-03T16:34:30","120","2023/05/03","16:34:30","-15.801816165447235","34.99843215942383","4.2","16","30","64","35","-24472","-1184","-6892","15","150","149.51","116.19","33.32","30.12","36.9","13.79","90468","29.44","DUALSPOT-UV-BLUE-GREEN-RED-IR","844025","742154","912173","1.523282","0.419822","0.000000","800325","923783","764259","0.885325","0.290836","0.000000","897871","928119","817491","0.674944","0.251299","0.000000","874889","938313","860179","0.498777","0.220984","0.000000","745026","864266","954777","0.184106","0.060178","0.000000","1318","1239","1318","1006","1223","1006","1015","1442","1015","879","1423","879","321","491","321",""
"MA200-0416","19407","55","1","1.10","1.4","2023-05-03T16:35:00","120","2023/05/03","16:35:00","-15.801688075065613","34.99934285879135","3.6","16","30","64","35","-24504","-2745","-6483","15","150","149.85","116.13","33.72","30.08","36.9","13.73","90452","29.38","DUALSPOT-UV-BLUE-GREEN-RED-IR","838967","737841","906912","1.547506","0.426183","0.000000","797245","920337","761393","0.900274","0.295639","0.000000","894656","924825","814669","0.686335","0.255996","0.000000","878682","942461","863986","0.507152","0.225264","0.000000","742619","861509","951754","0.186553","0.061100","0.000000","1225","1108","1225","954","1055","954","814","1156","814","723","1273","723","294","381","294",""
"MA200-0416","19408","55","1","1.10","1.4","2023-05-03T16:35:30","120","2023/05/03","16:35:30","-15.80210131406784","35.00023166665051","3.3","16","30","64","35","-24828","-2596","-5684","15","150","149.66","116.29","33.37","30.04","36.8","13.67","90452","29.31","DUALSPOT-UV-BLUE-GREEN-RED-IR","839017","737999","907245","1.576013","0.435720","0.000000","796898","919980","761208","0.917285","0.302434","0.000000","895078","925311","815143","0.698619","0.261181","0.000000","878092","941884","863503","0.516533","0.230050","0.000000","742556","861468","951693","0.189069","0.062403","0.000000","1439","1678","1439","1084","1509","1084","876","1290","876","809","1438","809","302","545","302",""
"MA200-0416","19409","55","1","1.10","1.4","2023-05-03T16:36:00","120","2023/05/03","16:36:00","-15.802841782569885","35.0007794998819","3.6","16","30","64","35","-24420","-4044","-6360","15","150","149.66","115.59","34.07","29.98","36.8","13.61","90392","29.25","DUALSPOT-UV-BLUE-GREEN-RED-IR","837690","737058","906170","1.613541","0.444911","0.000000","800812","924694","765122","0.943166","0.309713","0.000000","894193","924554","814499","0.717049","0.267428","0.000000","877298","941098","862825","0.531035","0.235671","0.000000","742072","860942","951156","0.197263","0.064854","0.000000","1907","1584","1907","1659","1583","1659","1323","1521","1323","1258","1655","1258","990","1004","990",""
"MA200-0416","19410","55","1","1.10","1.4","2023-05-03T16:36:30","120","2023/05/03","16:36:30","-15.803449094295502","35.001497166464105","3.3","16","30","64","35","-24228","-4092","-7279","15","150","150.29","116.27","34.02","29.94","36.9","13.61","90312","29.25","DUALSPOT-UV-BLUE-GREEN-RED-IR","835983","735912","904916","1.667997","0.459096","0.000000","799417","923359","764141","0.976473","0.318033","0.000000","893076","923586","813729","0.744092","0.275892","0.000000","875279","939089","861063","0.552266","0.243127","0.000000","741285","860111","950282","0.206747","0.066473","0.000000","2750","2448","2750","2123","1812","2123","1931","2065","1931","1832","2198","1832","1139","664","1139",""
"MA200-0416","19411","55","1","1.10","1.4","2023-05-03T16:37:00","120","2023/05/03","16:37:00","-15.803484559059143","35.00224149948917","3.3","16","30","64","35","-24764","-5852","-5092","15","150","150.14","115.96","34.18","29.89","36.9","13.58","90240","29.19","DUALSPOT-UV-BLUE-GREEN-RED-IR","832987","733784","902469","1.753946","0.479343","0.000000","797596","921640","762831","1.030332","0.333625","0.000000","896564","927507","817333","0.786280","0.288599","0.000000","873727","937637","859818","0.581538","0.252348","0.000000","740621","859462","949597","0.222843","0.070807","0.000000","4353","3478","4353","3443","3381","3443","3020","3086","3020","2532","2706","2532","1939","1770","1939",""
"MA200-0416","19412","55","1","1.10","1.4","2023-05-03T16:37:30","120","2023/05/03","16:37:30","-15.8025683760643","35.00247166631743","3.7","16","30","64","35","-24388","-1432","-7796","15","150","149.96","116.51","33.45","29.86","37.0","13.58","90232","29.19","DUALSPOT-UV-BLUE-GREEN-RED-IR","839587","739962","910250","1.839258","0.502626","0.000000","796567","920790","762236","1.090204","0.350727","0.000000","896651","927864","817739","0.836586","0.302422","0.000000","873523","937632","859895","0.622642","0.265407","0.000000","740686","859647","949856","0.245998","0.078090","0.000000","4300","4087","4300","3809","3789","3809","3584","3430","3584","3539","3916","3539","2776","3041","2776",""
"MA200-0416","19413","55","1","1.10","1.4","2023-05-03T16:38:00","120","2023/05/03","16:38:00","-15.801483929157257","35.00265266629867","4.2","16","30","64","35","-24272","-859","-7964","15","150","149.33","115.95","33.38","29.81","37.0","13.54","90284","29.19","DUALSPOT-UV-BLUE-GREEN-RED-IR","838269","739085","909299","1.884138","0.513994","0.000000","795886","920222","761854","1.121884","0.359893","0.000000","895035","926367","816490","0.860857","0.310343","0.000000","880149","944837","866586","0.641047","0.273305","0.000000","739594","858464","948572","0.256700","0.081106","0.000000","2273","2000","2273","2025","2036","2025","1737","1970","1737","1592","2374","1592","1289","1262","1289",""
"MA200-0416","19414","55","1","1.10","1.4","2023-05-03T16:38:30","120","2023/05/03","16:38:30","-15.800530850887299","35.002805332886055","3.0","16","30","64","35","-24568","-1596","-7043","15","150","149.90","116.19","33.71","29.77","37.0","13.50","90304","29.13","DUALSPOT-UV-BLUE-GREEN-RED-IR","837137","738447","908652","1.944848","0.530931","0.000000","794937","919424","761309","1.163244","0.372547","0.000000","894537","926054","816309","0.894493","0.321668","0.000000","878770","943587","865483","0.667244","0.281394","0.000000","743900","863562","954240","0.271455","0.084742","0.000000","3069","2951","3069","2638","2782","2638","2403","2789","2403","2261","2407","2261","1774","1507","1774",""
"MA200-0416","19415","55","1","1.10","1.4","2023-05-03T16:39:00","120","2023/05/03","16:39:00","-15.799546658992767","35.00272499979474","3.4","16","30","64","35","-24560","-2016","-7136","15","150","150.29","116.27","34.02","29.74","37.0","13.47","90308","29.13","DUALSPOT-UV-BLUE-GREEN-RED-IR","827951","734891","906434","2.768415","0.756280","0.000000","792678","921560","764569","1.852208","0.561578","0.000000","888495","923977","815867","1.491439","0.484651","0.000000","874301","942279","865558","1.163882","0.418669","0.000000","741220","862779","954311","0.624088","0.177968","0.000000","41604","38902","41604","43928","41187","43928","42625","39770","42625","42854","40479","42854","42368","38277","42368",""
"MA200-0416","19416","55","1","1.10","1.4","2023-05-03T16:39:30","120","2023/05/03","16:39:30","-15.798509240150452","35.00287816626951","4.0","16","30","64","35","-24504","-2091","-7020","15","150","149.64","116.22","33.42","29.71","37.0","13.46","90308","29.06","DUALSPOT-UV-BLUE-GREEN-RED-IR","822020","731877","903705","3.190007","0.870355","-0.027722","787774","918190","762471","2.199119","0.656604","0.000000","884053","921347","814185","1.792878","0.567883","0.000000","869202","938457","862612","1.413101","0.487607","0.000000","738383","860556","952281","0.797262","0.224072","0.000000","21307","20048","19576","22129","21078","22129","21534","20676","21534","21514","20695","21514","20816","19271","20816",""
"MA200-0416","19417","55","1","1.10","1.4","2023-05-03T16:40:00","120","2023/05/03","16:40:00","-15.797397673130035","35.003212333191186","4.6","16","30","64","35","-24308","-124","-7479","15","150","150.49","116.15","34.34","29.66","37.0","13.43","90344","29.06","DUALSPOT-UV-BLUE-GREEN-RED-IR","821537","732902","905650","3.467733","0.944721","-0.042972","787748","919566","764044","2.416706","0.715351","0.000000","883385","921882","815078","1.978373","0.618536","0.000000","868288","938464","862978","1.563274","0.529259","0.000000","738166","860948","952959","0.898674","0.250417","0.000000","14044","12719","12222","13887","12681","13887","13259","12245","13259","12971","12168","12971","12196","10716","12196",""
"MA200-0416","19418","55","1","1.10","1.4","2023-05-03T16:40:30","120","2023/05/03","16:40:30","-15.79641330242157","35.0034629998263","2.6","16","30","64","35","-24828","1128","-5380","15","150","149.90","116.47","33.43","29.63","37.0","13.41","90452","29.00","DUALSPOT-UV-BLUE-GREEN-RED-IR","819601","731994","904883","3.626436","0.986679","-0.033506","786444","918862","763735","2.541011","0.748378","0.000000","882531","921689","815096","2.082336","0.645525","0.000000","866952","937602","862383","1.651638","0.552338","0.000000","737938","861029","953157","0.958278","0.265249","0.000000","8003","7372","7136","7912","7324","7912","7410","6703","7410","7611","6926","7611","7149","6198","7149",""
"MA200-0416","19419","55","1","1.10","1.4","2023-05-03T16:41:00","120","2023/05/03","16:41:00","-15.796193242073059","35.00326266651973","1.3","16","30","64","35","-24258","-2991","-6579","15","150","149.92","116.47","33.45","29.60","37.1","13.40","90440","29.00","DUALSPOT-UV-BLUE-GREEN-RED-IR","817267","730720","903663","3.795616","1.033857","-0.010894","784818","917607","762877","2.652621","0.779294","0.000000","880810","920380","814153","2.176583","0.672716","0.000000","865475","936444","861447","1.725894","0.572848","0.000000","736862","860013","952138","1.003912","0.277061","0.000000","8531","8284","8192","7103","6852","7103","6717","6749","6717","6396","6152","6396","5473","4933","5473",""
"MA200-0416","19420","55","1","1.10","1.4","2023-05-03T16:41:30","120","2023/05/03","16:41:30","-15.796172738075256","35.002995333168656","1.2","16","30","64","35","-24724","-2780","-5856","15","150","149.70","116.07","33.63","29.57","37.0","13.35","90416","28.94","DUALSPOT-UV-BLUE-GREEN-RED-IR","821924","735237","909489","3.875196","1.057283","0.005577","782747","915397","761150","2.697969","0.793428","0.000000","879300","918995","812974","2.210015","0.682432","0.000000","871133","942717","867313","1.752322","0.582599","0.000000","735654","858674","950746","1.020288","0.282208","0.000000","4027","4091","4116","2896","3115","2896","2391","2398","2391","2284","2909","2284","1970","2138","1970",""
"MA200-0416","19421","55","1","1.10","1.4","2023-05-03T16:42:00","120","2023/05/03","16:42:00","-15.796061336994171","35.002543333219364","2.3","16","30","64","35","-24196","0","-6808","15","150","149.76","116.03","33.73","29.53","37.0","13.31","90408","28.94","DUALSPOT-UV-BLUE-GREEN-RED-IR","821512","735185","909582","3.937564","1.075597","0.003467","782516","915417","761226","2.735931","0.804752","0.000000","884070","924156","817647","2.239907","0.692004","0.000000","869546","941141","865925","1.776039","0.590503","0.000000","735567","858654","950743","1.032239","0.286142","0.000000","3157","3188","3200","2425","2488","2425","2138","2355","2138","2050","2350","2050","1438","1629","1438",""
"MA200-0416","19422","55","1","1.10","1.4","2023-05-03T16:42:30","120","2023/05/03","16:42:30","-15.79575902223587","35.002255499595776","1.6","16","30","64","35","-24556","-1816","-6664","15","150","150.16","115.83","34.33","29.50","37.0","13.29","90432","28.94","DUALSPOT-UV-BLUE-GREEN-RED-IR","818013","732378","906242","3.989681","1.090128","-0.022264","784960","918516","763903","2.770096","0.813789","0.000000","881477","921652","815492","2.268231","0.701212","0.000000","866287","937783","862884","1.798027","0.597405","0.000000","733781","856657","948511","1.042953","0.288318","0.000000","2642","2486","2427","2186","1951","2186","2030","2227","2030","1904","2017","1904","1292","885","1292",""
"MA200-0416","19423","55","1","1.10","1.4","2023-05-03T16:43:00","120","2023/05/03","16:43:00","-15.795212984085083","35.00246849958785","2.0","16","30","64","35","-24428","-412","-6868","15","150","149.39","115.63","33.75","29.47","37.1","13.29","90440","28.94","DUALSPOT-UV-BLUE-GREEN-RED-IR","819921","734280","908717","4.038919","1.102546","-0.056943","781342","914417","760542","2.800751","0.821584","0.000000","883181","923569","817262","2.292973","0.706637","0.000000","867616","939301","864354","1.817566","0.602859","0.000000","735383","858577","950698","1.053983","0.291316","0.000000","2501","2161","2033","1965","1712","1965","1776","1334","1776","1695","1621","1695","1332","1240","1332",""
"MA200-0416","19424","55","1","1.10","1.4","2023-05-03T16:43:30","120","2023/05/03","16:43:30","-15.794637441635132","35.00243666651659","1.2","16","30","64","35","-24996","-1619","-3539","15","150","149.66","115.92","33.74","29.44","37.1","13.27","90480","28.88","DUALSPOT-UV-BLUE-GREEN-RED-IR","818607","733334","907650","4.079062","1.114130","-0.002961","785655","919647","764961","2.827519","0.830192","0.000000","882166","922663","816475","2.313256","0.713056","0.000000","867401","939174","864281","1.833272","0.608284","0.000000","734745","857888","949909","1.060163","0.291804","0.000000","2034","2016","2009","1711","1891","1711","1452","1579","1452","1359","1612","1359","744","202","744",""
"MA200-0416","19425","55","1","1.10","1.4","2023-05-03T16:44:00","120","2023/05/03","16:44:00","-15.795115768909454","35.001737499726005","3.3","16","30","64","34","-24356","372","-7400","15","150","149.73","115.64","34.09","29.42","37.2","13.28","90492","28.88","DUALSPOT-UV-BLUE-GREEN-RED-IR","815653","730928","904769","4.121138","1.125238","-0.040765","783368","917170","762931","2.855021","0.837171","0.000000","880311","920860","814964","2.337259","0.721025","0.000000","864624","936267","861652","1.850920","0.615275","0.000000","733178","856112","948005","1.070726","0.295474","0.000000","2137","1913","1829","1763","1517","1763","1723","1940","1723","1531","2057","1531","1276","1503","1276",""
"MA200-0416","19426","55","1","1.10","1.4","2023-05-03T16:44:30","120","2023/05/03","16:44:30","-15.795370280742645","35.00074683321873","3.5","16","30","64","34","-24588","-119","-6324","15","150","149.63","116.03","33.60","29.39","37.3","13.32","90596","28.88","DUALSPOT-UV-BLUE-GREEN-RED-IR","817180","732473","906719","4.158775","1.134328","-0.071093","784469","918620","764209","2.880800","0.843597","0.000000","881750","922489","816441","2.357090","0.726396","0.000000","866758","938648","863870","1.867652","0.619924","0.000000","734621","857850","949921","1.078912","0.297849","0.000000","1905","1589","1470","1647","1417","1647","1418","1327","1418","1446","1388","1446","985","987","985",""
"MA200-0416","19427","55","1","1.10","1.4","2023-05-03T16:45:00","120","2023/05/03","16:45:00","-15.795573472976685","34.99971950054169","3.5","16","30","64","35","-24580","-3444","-6632","15","150","150.23","116.43","33.80","29.37","37.5","13.37","90692","28.88","DUALSPOT-UV-BLUE-GREEN-RED-IR","816498","732043","906296","4.189507","1.144512","0.038886","783215","917329","763175","2.902561","0.851787","0.000000","881461","922338","816334","2.373016","0.730717","0.000000","866082","938071","863363","1.879924","0.623381","0.000000","734472","857711","949813","1.082874","0.299275","0.000000","1550","1769","1852","1385","1796","1385","1135","1061","1135","1057","1026","1057","475","589","475",""
"MA200-0416","19428","55","1","1.10","1.4","2023-05-03T16:45:30","120","2023/05/03","16:45:30","-15.795552670955658","34.99893665313721","2.1","16","30","64","34","-24292","-3952","-7228","15","150","150.05","116.21","33.84","29.35","37.6","13.38","90604","28.81","DUALSPOT-UV-BLUE-GREEN-RED-IR","813472","730239","904481","4.337922","1.184692","-0.024679","781613","916314","762586","3.008711","0.878763","-0.072874","879881","921338","815655","2.459091","0.753933","0.000000","864837","937207","862767","1.944106","0.642007","0.000000","738144","862313","955009","1.123683","0.309202","0.000000","7501","6974","6775","6771","5909","5553","6149","5695","6149","5541","5522","5541","4905","4097","4905",""
"MA200-0416","19429","55","1","1.10","1.4","2023-05-03T16:46:00","120","2023/05/03","16:46:00","-15.795529067516327","34.99799120426178","2.9","16","30","64","34","-24464","-2076","-6588","15","150","150.09","116.98","33.11","29.32","37.6","13.37","90552","28.81","DUALSPOT-UV-BLUE-GREEN-RED-IR","813035","730195","904597","4.423903","1.207199","-0.026044","781727","916673","762988","3.066474","0.893934","-0.036894","879248","920900","815374","2.506983","0.767254","0.000000","862996","935373","861172","1.981073","0.652254","0.000000","737863","862074","954763","1.143503","0.314721","0.000000","4316","3992","3870","3660","3396","3288","3398","3340","3398","3170","3104","3170","2366","2328","2366",""
"MA200-0416","19430","55","1","1.10","1.4","2023-05-03T16:46:30","120","2023/05/03","16:46:30","-15.796224653720856","34.997765958309174","3.4","16","30","64","34","-24446","-2715","-7296","15","150","149.63","115.75","33.88","29.30","37.6","13.36","90520","28.81","DUALSPOT-UV-BLUE-GREEN-RED-IR","816443","733616","909012","4.491191","1.225509","-0.023817","778389","913020","759997","3.103435","0.904644","-0.004618","877254","918987","813732","2.532703","0.773818","0.000000","860733","933075","859087","2.000624","0.657755","0.000000","736248","860227","952760","1.154501","0.318351","0.000000","3414","3174","3084","2367","2343","2333","1844","1608","1844","1694","1629","1694","1327","1497","1327",""
"MA200-0416","19431","55","1","1.10","1.4","2023-05-03T16:47:00","120","2023/05/03","16:47:00","-15.797102510929108","34.99773323535919","3.5","16","30","64","34","-24480","-2928","-7428","15","150","150.03","116.07","33.96","29.28","37.7","13.36","90464","28.75","DUALSPOT-UV-BLUE-GREEN-RED-IR","811201","729204","903665","4.549506","1.241935","-0.011858","780238","915367","761976","3.130776","0.912197","-0.027266","878590","920543","815133","2.554679","0.780523","0.000000","868267","941317","866722","2.018129","0.664127","0.000000","737006","861184","953855","1.163089","0.319779","0.000000","2950","2841","2799","1746","1648","1608","1571","1639","1571","1513","1882","1513","1033","587","1033",""
"MA200-0416","19432","55","1","1.10","1.4","2023-05-03T16:47:30","120","2023/05/03","16:47:30","-15.797402381896973","34.99716365337372","3.5","17","30","64","34","-24608","1044","-6904","15","150","149.95","115.97","33.97","29.26","37.7","13.34","90540","28.75","DUALSPOT-UV-BLUE-GREEN-RED-IR","816758","734438","910289","4.593150","1.254667","-0.001281","783902","919793","765751","3.155971","0.920940","0.065503","877602","919568","814353","2.572835","0.788134","0.000000","861638","934201","860216","2.030873","0.668668","0.000000","736964","861183","953852","1.169977","0.321613","0.000000","2210","2201","2197","1610","1907","2030","1299","1859","1299","1102","1341","1102","829","754","829",""
"MA200-0416","19433","55","1","1.10","1.4","2023-05-03T16:48:00","120","2023/05/03","16:48:00","-15.797388851642609","34.996213555336","4.3","17","30","64","34","-24652","-1284","-7164","15","150","149.61","116.59","33.02","29.23","37.7","13.33","90640","28.69","DUALSPOT-UV-BLUE-GREEN-RED-IR","815723","733720","909500","4.635577","1.265543","-0.032354","778560","913664","760711","3.179789","0.926757","-0.075738","876272","918293","813251","2.590060","0.792080","0.000000","866332","939385","865013","2.043062","0.671875","0.000000","735677","859690","952204","1.176086","0.322657","0.000000","2137","1934","1858","1514","1306","1220","1226","992","1226","1048","974","1048","732","441","732",""
"MA200-0416","19434","55","1","1.10","1.4","2023-05-03T16:48:30","120","2023/05/03","16:48:30","-15.797424912452698","34.9951074719429","4.8","16","30","64","34","-24504","-867","-6960","15","150","150.63","115.92","34.71","29.20","37.8","13.33","90624","28.69","DUALSPOT-UV-BLUE-GREEN-RED-IR","814261","732596","908209","4.672744","1.275709","-0.028916","782131","918010","764375","3.200781","0.933862","0.048531","880627","922977","817438","2.606892","0.796640","0.000000","864983","937988","863757","2.055412","0.675756","0.000000","735117","859121","951623","1.182350","0.324135","0.000000","1883","1720","1659","1342","1517","1589","1205","1090","1205","1068","1121","1068","754","594","754",""
"MA200-0416","19435","55","1","1.10","1.4","2023-05-03T16:49:00","120","2023/05/03","16:49:00","-15.797800064086914","34.9941371679306","4.1","16","30","64","34","-24576","-1952","-6472","15","150","149.70","115.95","33.75","29.17","37.8","13.30","90628","28.63","DUALSPOT-UV-BLUE-GREEN-RED-IR","812580","731325","906693","4.717532","1.289426","0.014243","781021","916897","763498","3.227538","0.942117","0.024225","879923","922352","816953","2.627414","0.804370","0.000000","863551","936548","862495","2.069932","0.682610","0.000000","734796","858767","951247","1.189289","0.326881","0.000000","2268","2387","2432","1710","1813","1855","1469","1901","1469","1256","2037","1256","835","1136","835",""
"MA200-0416","19436","55","1","1.10","1.4","2023-05-03T16:49:30","120","2023/05/03","16:49:30","-15.798531651496887","34.993601977825165","3.4","16","30","64","34","-24572","-1960","-6172","15","150","149.96","116.55","33.41","29.15","37.8","13.28","90632","28.56","DUALSPOT-UV-BLUE-GREEN-RED-IR","810749","729894","905067","4.759877","1.301355","-0.005172","779558","915292","762241","3.252053","0.950086","0.048875","878700","921185","815983","2.647066","0.810360","0.000000","862533","935527","861595","2.085632","0.686955","0.000000","733931","857788","950148","1.196992","0.328321","0.000000","2134","2096","2082","1559","1767","1854","1399","1488","1399","1351","1304","1351","923","602","923",""
"MA200-0416","19437","55","1","1.10","1.4","2023-05-03T16:50:00","120","2023/05/03","16:50:00","-15.799436807632446","34.99373435974121","3.3","16","30","64","34","-24264","-1568","-6947","15","150","150.56","115.99","34.57","29.12","37.7","13.23","90636","28.56","DUALSPOT-UV-BLUE-GREEN-RED-IR","811197","730466","905875","4.796037","1.311967","-0.004455","779732","915631","762575","3.274995","0.956529","-0.027053","879108","921760","816511","2.664030","0.815367","0.000000","867957","941446","867096","2.097469","0.692469","0.000000","734047","857997","950390","1.202592","0.329932","0.000000","1831","1803","1792","1466","1381","1346","1214","1202","1214","1023","1600","1023","674","650","674",""
"MA200-0416","19438","55","1","1.10","1.4","2023-05-03T16:50:30","120","2023/05/03","16:50:30","-15.800182402133942","34.994288861751556","4.0","15","30","64","34","-24540","728","-6828","15","150","150.40","116.24","34.16","29.08","37.8","13.22","90716","28.56","DUALSPOT-UV-BLUE-GREEN-RED-IR","810290","729840","905196","4.833118","1.322507","-0.009729","779132","915097","762175","3.297377","0.962991","-0.007630","877973","920667","815592","2.682245","0.821918","0.000000","867371","940933","866669","2.110427","0.696468","0.000000","738011","862632","955546","1.208309","0.331345","0.000000","1873","1812","1789","1427","1402","1392","1300","1592","1300","1118","1174","1118","686","578","686",""
"MA200-0416","19439","55","1","1.10","1.4","2023-05-03T16:51:00","120","2023/05/03","16:51:00","-15.800839126110077","34.994781136512756","2.1","15","30","64","34","-24436","-4116","-6792","15","150","149.53","116.04","33.48","29.06","37.8","13.20","90688","28.50","DUALSPOT-UV-BLUE-GREEN-RED-IR","814860","734199","910682","4.874393","1.334013","-0.010047","782227","918941","765430","3.324819","0.971670","0.035949","877232","920022","815087","2.703023","0.827878","0.000000","867112","940736","866504","2.126240","0.701612","0.000000","737890","862550","955494","1.215236","0.333182","0.000000","2089","2018","1991","1753","1921","1991","1486","1477","1486","1367","1541","1367","833","766","833",""
"MA200-0416","19440","55","1","1.10","1.4","2023-05-03T16:51:30","120","2023/05/03","16:51:30","-15.801536679267883","34.99534100294113","3.7","15","30","64","34","-24572","-1911","-6352","15","150","150.14","115.96","34.18","29.04","37.8","13.18","90624","28.50","DUALSPOT-UV-BLUE-GREEN-RED-IR","807568","727938","903064","4.926736","1.348932","-0.009697","782319","919241","765762","3.354674","0.980152","-0.016107","876753","919684","814853","2.726721","0.836962","0.000000","865765","939399","865327","2.143013","0.707799","0.000000","737261","861879","954788","1.224294","0.336019","0.000000","2651","2563","2530","1908","1839","1810","1696","2206","1696","1451","1815","1451","1091","1159","1091",""
"MA200-0416","19441","55","1","1.10","1.4","2023-05-03T16:52:00","120","2023/05/03","16:52:00","-15.801927506923676","34.99619698524475","2.4","15","30","64","34","-23928","-5504","-7640","15","150","149.66","115.88","33.78","29.02","37.8","13.17","90628","28.44","DUALSPOT-UV-BLUE-GREEN-RED-IR","812744","732863","909342","4.984346","1.364683","-0.018798","780897","917762","764601","3.390372","0.990432","-0.005156","875489","918476","813858","2.754581","0.844907","0.000000","864253","937874","863983","2.164381","0.714325","0.000000","736337","860862","953652","1.235353","0.338686","0.000000","2920","2738","2670","2283","2255","2244","1996","1952","1996","1850","1938","1850","1333","1103","1333",""
"MA200-0416","19442","55","1","1.10","1.4","2023-05-03T16:52:30","120","2023/05/03","16:52:30","-15.801541030406952","34.99694353342056","3.3","15","30","64","34","-24256","-3755","-7632","15","150","149.45","115.99","33.45","28.99","37.7","13.12","90536","28.44","DUALSPOT-UV-BLUE-GREEN-RED-IR","812330","732633","909120","5.016493","1.374979","0.026322","780814","917794","764671","3.409863","0.996084","0.002180","875476","918573","813993","2.770227","0.850582","0.000000","862491","936013","862304","2.176219","0.719416","0.000000","736250","860773","953584","1.239671","0.340285","0.000000","1627","1807","1875","1245","1252","1255","1119","1408","1119","1023","1526","1023","520","667","520",""
"MA200-0416","19443","55","1","1.10","1.4","2023-05-03T16:53:00","120","2023/05/03","16:53:00","-15.801127076148987","34.99753987789154","0.8","15","30","64","34","-24533","-3466","-7145","15","150","150.49","116.19","34.30","28.97","37.8","13.12","90476","28.44","DUALSPOT-UV-BLUE-GREEN-RED-IR","811670","732210","908695","5.048276","1.383424","-0.031606","779966","916956","764027","3.429103","1.002866","0.062772","875258","918460","813906","2.783751","0.854427","0.000000","862577","936191","862521","2.186185","0.723755","0.000000","735871","860361","953124","1.242948","0.340258","0.000000","1606","1446","1385","1227","1465","1564","966","930","966","860","1269","860","393","-10","393",""
"MA200-0416","19444","55","1","1.10","1.4","2023-05-03T16:53:30","120","2023/05/03","16:53:30","-15.801380038261414","34.997812032699585","4.0","15","30","64","34","-24748","-1864","-6200","15","150","149.39","116.35","33.04","28.94","37.8","13.13","90464","28.44","DUALSPOT-UV-BLUE-GREEN-RED-IR","807979","730540","907418","5.236044","1.436075","-0.003346","777193","915322","763210","3.577089","1.042671","-0.022484","872632","917088","813162","2.904600","0.887203","0.000000","860653","935225","862015","2.281534","0.750124","0.000000","734889","859934","952937","1.308015","0.358102","0.000000","9479","9360","9315","9429","8931","8727","8623","8236","8623","8221","8007","8221","7812","7545","7812",""
"MA200-0416","19445","55","1","1.10","1.4","2023-05-03T16:54:00","120","2023/05/03","16:54:00","-15.801820755004883","34.99869614839554","2.6","16","30","64","34","-24592","-1876","-6526","15","150","149.45","115.91","33.53","28.92","37.9","13.12","90484","28.38","DUALSPOT-UV-BLUE-GREEN-RED-IR","805292","729747","907230","5.652107","1.555072","-0.002831","775014","914399","762992","3.913379","1.139904","-0.000221","870670","916436","813077","3.196478","0.970775","-0.004705","858633","934235","861560","2.524123","0.818616","0.000000","734087","859810","953125","1.477909","0.403854","0.000000","21083","20842","20751","21507","21494","21489","20906","20690","20596","20997","20491","20997","20475","19058","20475",""
"MA200-0416","19446","55","1","1.10","1.4","2023-05-03T16:54:30","120","2023/05/03","16:54:30","-15.801770031452179","34.999631345272064","4.6","16","30","64","34","-24826","-1288","-5753","15","150","149.96","116.27","33.69","28.90","37.9","13.10","90460","28.38","DUALSPOT-UV-BLUE-GREEN-RED-IR","801733","728082","905961","5.971885","1.646492","-0.003172","772608","913153","762432","4.168975","1.211513","-0.011775","872730","919973","816713","3.417110","1.032812","-0.013015","863008","940171","867453","2.705133","0.870097","0.000000","732283","858425","951932","1.605007","0.438734","0.000000","16154","15936","15853","16296","15755","15534","15754","15286","15083","15619","15329","15619","15270","14461","15270",""
"MA200-0416","19447","55","1","1.10","1.4","2023-05-03T16:55:00","120","2023/05/03","16:55:00","-15.801472246646881","34.99989527463913","2.9","16","30","64","33","-24124","-4804","-7128","15","150","151.95","114.88","37.07","28.88","37.9","13.10","90412","28.31","DUALSPOT-UV-BLUE-GREEN-RED-IR","798147","725224","902533","6.042933","1.665460","-0.051766","769745","910089","760000","4.220635","1.225883","-0.057181","871030","918507","815528","3.457433","1.044893","-0.033019","859967","937079","864692","2.738292","0.880158","0.000000","730867","856912","950292","1.624378","0.442923","0.000000","3632","3005","2767","3333","2873","2685","2914","2705","2615","2895","2723","2895","2355","1578","2355",""
"MA200-0416","19448","55","1","1.10","1.4","2023-05-03T16:55:30","120","2023/05/03","16:55:30","-15.800648391246796","34.999941527843475","3.3","16","30","64","34","-24304","-1832","-6920","15","150","150.23","116.23","34.00","28.86","38.0","13.10","90348","28.31","DUALSPOT-UV-BLUE-GREEN-RED-IR","799123","726383","904140","6.100663","1.681099","-0.018618","775330","916936","765783","4.261792","1.237655","-0.007551","872186","919924","816850","3.493023","1.054752","-0.023488","861656","939060","866603","2.765287","0.886947","0.000000","731982","858308","951869","1.640621","0.447285","0.000000","2917","2701","2619","2625","2566","2543","2542","2407","2349","2330","2003","2330","1952","1792","1952",""
"MA200-0416","19449","55","1","1.10","1.4","2023-05-03T16:56:00","120","2023/05/03","16:56:00","-15.800236880779266","35.00008999999409","2.7","16","30","64","33","-24760","-3548","-4940","15","150","149.87","116.13","33.74","28.84","38.0","13.08","90356","28.31","DUALSPOT-UV-BLUE-GREEN-RED-IR","798812","726343","904224","6.150359","1.697898","0.029956","774517","916191","765275","4.294574","1.247753","0.018188","871625","919489","816521","3.519303","1.062757","0.018424","860985","938483","866104","2.785826","0.894946","0.000000","731720","858091","951649","1.653072","0.451278","0.000000","2513","2924","3081","2092","2218","2270","1878","1969","2009","1774","2378","1774","1497","1653","1497",""
"MA200-0416","19450","55","1","1.10","1.4","2023-05-03T16:56:30","120","2023/05/03","16:56:30","-15.800911724567413","34.99999362230301","2.1","16","30","64","33","-24708","156","-6280","15","150","149.83","116.15","33.68","28.80","38.0","13.06","90368","28.25","DUALSPOT-UV-BLUE-GREEN-RED-IR","796695","724662","902260","6.199405","1.711418","-0.011818","773617","915368","764644","4.328054","1.258564","0.031894","870458","918415","815648","3.546238","1.071471","0.040089","858647","936080","863941","2.806094","0.900840","0.000000","730335","856541","949968","1.663572","0.453275","0.000000","2480","2357","2310","2136","2379","2479","1925","2147","2244","1750","1755","1750","1262","828","1262",""
"MA200-0416","19451","55","1","1.10","1.4","2023-05-03T16:57:00","120","2023/05/03","16:57:00","-15.801592707633972","34.999952495098114","2.6","16","30","64","33","-24624","1252","-6296","15","150","149.39","115.99","33.40","28.78","38.1","13.07","90460","28.25","DUALSPOT-UV-BLUE-GREEN-RED-IR","803423","731089","910429","6.258361","1.728609","0.002773","772557","914364","763927","4.370099","1.271040","0.009471","869784","917940","815307","3.579551","1.081574","0.019849","858822","936414","864310","2.831896","0.908077","0.000000","730449","856735","950230","1.678535","0.457810","0.000000","2985","3023","3038","2687","2769","2803","2384","2511","2566","2231","2174","2231","1802","1896","1802",""
"MA200-0416","19452","55","1","1.10","1.4","2023-05-03T16:57:30","120","2023/05/03","16:57:30","-15.802199959754944","35.00038949993905","3.5","16","30","64","33","-24860","-3271","-5280","15","150","150.03","116.15","33.88","28.75","38.1","13.06","90456","28.19","DUALSPOT-UV-BLUE-GREEN-RED-IR","800995","729179","908172","6.311580","1.743867","-0.003818","771405","913249","763061","4.403222","1.278949","-0.077932","868421","916683","814257","3.606081","1.088464","-0.051625","857337","934947","863023","2.853528","0.915158","0.000000","733973","860998","954994","1.691991","0.460521","0.000000","2691","2645","2627","2114","1730","1573","1896","1688","1598","1868","2096","1868","1618","1117","1618",""
"MA200-0416","19453","55","1","1.10","1.4","2023-05-03T16:58:00","120","2023/05/03","16:58:00","-15.802950084209442","35.00091133324895","2.9","16","30","64","34","-24623","-4434","-6626","15","150","150.29","116.07","34.22","28.73","38.1","13.05","0","0.00","DUALSPOT-UV-BLUE-GREEN-RED-IR","799631","728313","907286","6.375176","1.761034","-0.020737","770625","912659","762643","4.446179","1.291173","-0.011617","867706","916169","813865","3.641480","1.098335","-0.023152","856003","933678","861923","2.878394","0.923062","0.000000","733645","860667","954661","1.705375","0.464711","0.000000","3218","2946","2842","2743","2648","2608","2532","2394","2335","2149","2317","2149","1610","1710","1610",""
"MA200-0416","19454","55","1","1.10","1.4","2023-05-03T16:58:30","120","2023/05/03","16:58:30","-15.803434669971466","35.00165933324024","3.3","16","30","64","33","-24228","-4312","-7720","15","150","149.76","116.07","33.69","28.70","38.2","13.04","0","0.00","DUALSPOT-UV-BLUE-GREEN-RED-IR","798208","727765","906878","6.506778","1.792253","-0.051851","769203","911588","761935","4.538065","1.312238","-0.092564","866814","915755","813642","3.715551","1.115894","-0.095582","860705","939211","867167","2.936191","0.937641","0.000000","732986","860147","954128","1.739227","0.471879","0.000000","6659","5442","4979","5868","4634","4132","5298","4326","3909","4995","4341","4995","4074","2971","4074",""
"MA200-0416","19455","55","1","1.10","1.4","2023-05-03T16:59:00","120","2023/05/03","16:59:00","-15.803762137889862","35.00218716613017","4.4","16","30","64","33","-24444","-1124","-6972","15","150","149.49","116.09","33.40","28.67","38.1","13.00","90252","28.13","DUALSPOT-UV-BLUE-GREEN-RED-IR","797392","727411","906620","6.588450","1.813554","-0.022500","768637","911274","761808","4.599231","1.328762","-0.020462","865878","915098","813154","3.766060","1.129085","-0.040341","859667","938336","866441","2.976045","0.947720","0.000000","732418","859638","953644","1.763374","0.477128","0.000000","4132","3745","3598","3906","3667","3570","3612","3278","3135","3444","3027","3444","2905","2195","2905",""
"MA200-0416","19456","55","1","1.10","1.4","2023-05-03T16:59:30","120","2023/05/03","16:59:30","-15.804748594760895","35.00206883298233","2.5","16","30","64","33","-24568","-1592","-6036","15","150","150.03","116.31","33.72","28.64","38.2","13.01","90276","28.06","DUALSPOT-UV-BLUE-GREEN-RED-IR","795100","725812","904835","6.676820","1.837093","-0.018900","771934","915662","765579","4.661006","1.344759","-0.037882","870286","920099","817727","3.817767","1.142520","-0.045552","859161","938092","866299","3.015508","0.958413","-0.035127","732296","859655","953733","1.789070","0.483555","0.000000","4462","4100","3962","3937","3516","3346","3690","3307","3144","3403","3181","3077","3086","2662","3086",""
"MA200-0416","19457","55","1","1.10","1.4","2023-05-03T17:00:00","120","2023/05/03","17:00:00","-15.80483078956604","35.00215783296153","0.1","16","30","64","33","-24740","-1772","-5944","15","150","150.16","115.95","34.21","28.61","38.2","12.98","90280","28.06","DUALSPOT-UV-BLUE-GREEN-RED-IR","800408","731322","912066","6.795702","1.871040","-0.006830","769570","913530","763992","4.753912","1.371158","-0.011497","867198","917370","815527","3.894723","1.164872","-0.005812","854686","933662","862380","3.080503","0.976807","-0.020612","729691","856860","950744","1.829580","0.493927","0.000000","6022","5828","5754","5939","5720","5632","5510","5424","5388","5623","5394","5288","4880","4235","4880",""
"MA200-0416","19458","55","1","1.10","1.4","2023-05-03T17:00:30","120","2023/05/03","17:00:30","-15.804836332798004","35.00218016654253","0.0","16","30","64","33","-24876","-1700","-5220","15","150","150.01","116.09","33.92","28.59","38.2","12.97","90280","28.06","DUALSPOT-UV-BLUE-GREEN-RED-IR","792236","724456","903753","6.914996","1.902725","-0.020773","769457","913939","764506","4.843444","1.395006","-0.029292","867864","918578","816717","3.970796","1.184505","-0.050280","857163","936706","865357","3.140510","0.993777","-0.015748","731165","858832","953034","1.870758","0.504706","0.000000","6035","5486","5277","5717","5211","5007","5440","4805","4535","5186","5019","4941","4955","4439","4955",""
"MA200-0416","19459","55","1","1.10","1.4","2023-05-03T17:01:00","120","2023/05/03","17:01:00","-15.804984331130981","35.00227133277804","2.4","16","30","64","33","-24680","-1630","-6165","15","150","149.40","116.42","32.98","28.57","38.2","12.95","90280","28.06","DUALSPOT-UV-BLUE-GREEN-RED-IR","783297","721646","902939","7.959041","2.200103","0.000969","763143","911826","764517","5.666376","1.627500","-0.000633","861880","916826","816754","4.664659","1.378321","-0.004286","852087","935004","865116","3.703487","1.149601","-0.009227","728335","857981","953062","2.260015","0.609089","0.000000","52673","52969","53082","52401","52268","52214","49481","48797","48511","48515","47409","46912","46707","44220","46707",""
"MA200-0416","19460","55","1","1.10","1.4","2023-05-03T17:01:30","120","2023/05/03","17:01:30","-15.805190026760101","35.00312299979851","3.5","16","30","64","33","-24632","-628","-7460","15","150","149.96","116.31","33.65","28.56","38.3","12.96","90308","28.06","DUALSPOT-UV-BLUE-GREEN-RED-IR","776802","720257","903583","8.517035","2.362169","0.000614","757005","909563","764355","6.149435","1.764638","-0.004411","855990","915095","816808","5.080110","1.494902","-0.008792","847027","933377","865025","4.047481","1.244879","-0.016255","724973","856675","952767","2.511627","0.677704","0.000000","28178","28285","28326","30789","30209","29976","29655","28760","28387","29672","28404","27841","30220","28482","30220",""
"MA200-0416","19461","55","1","1.10","1.4","2023-05-03T17:02:00","120","2023/05/03","17:02:00","-15.80546486377716","35.00376733322628","4.2","16","30","64","33","-24532","-959","-6864","15","150","150.03","115.95","34.08","28.54","38.3","12.94","90340","28.06","DUALSPOT-UV-BLUE-GREEN-RED-IR","777850","724503","910671","9.518215","2.659328","0.001426","751856","906792","763221","6.994433","2.011657","-0.001076","850507","912279","815406","5.835146","1.710284","-0.007431","840329","928631","861588","4.689418","1.424992","-0.014846","721449","854275","950799","2.976110","0.803813","0.000000","50715","51218","51413","54024","53737","53621","54061","52473","51815","55544","53027","51928","55959","51696","55959",""
"MA200-0416","19462","55","1","1.10","1.4","2023-05-03T17:02:30","120","2023/05/03","17:02:30","-15.806539952754974","35.004126499872655","4.1","16","30","64","33","-24744","-668","-5356","15","150","150.29","115.99","34.30","28.53","38.2","12.90","90400","28.00","DUALSPOT-UV-BLUE-GREEN-RED-IR","774841","723608","910536","9.586646","2.679498","-0.000481","749029","905586","762936","7.054130","2.028478","-0.010059","848680","911974","815690","5.880416","1.724059","0.006686","840487","930006","863288","4.723815","1.434708","-0.014597","721218","854882","951820","2.999582","0.809066","0.000000","3465","3453","3449","3815","3635","3562","3240","3334","3372","2975","2841","2783","2826","2139","2826",""
"MA200-0416","19463","55","1","1.10","1.4","2023-05-03T17:03:00","120","2023/05/03","17:03:00","-15.807701051235199","35.00447916565463","4.4","16","30","64","33","-24388","4","-7396","15","150","149.90","115.91","33.98","28.49","38.2","12.87","90472","27.94","DUALSPOT-UV-BLUE-GREEN-RED-IR","759826","718489","909177","11.697472","3.330593","0.005798","737308","900896","762531","8.858231","2.573419","0.004611","836225","907453","815056","7.479168","2.198416","0.002228","828495","924594","861316","6.077104","1.829684","-0.001078","714667","852483","951496","3.990823","1.086784","-0.016293","106962","112528","114744","115384","118870","120298","114512","115882","116453","117134","116601","116372","119463","114156","112169",""
"MA200-0416","19464","55","1","1.10","1.4","2023-05-03T17:03:30","120","2023/05/03","17:03:30","-15.808660745620728","35.00473849941045","3.2","16","30","64","32","-24264","-3416","-7947","15","150","149.86","116.06","33.80","28.46","38.2","12.84","90464","27.88","DUALSPOT-UV-BLUE-GREEN-RED-IR","753323","714170","904776","12.041718","3.435773","0.005332","732107","896567","759622","9.152565","2.661264","0.003678","835885","908888","817033","7.739943","2.274978","0.001451","828820","926521","863714","6.293538","1.891225","-0.005582","710407","848430","947407","4.145473","1.129448","-0.018877","17422","18276","18617","18801","19265","19456","18655","18804","18866","18710","18265","18075","18614","17632","17263",""
"MA200-0416","19465","55","1","1.10","1.4","2023-05-03T17:04:00","120","2023/05/03","17:04:00","-15.809454560279846","35.00509399920702","2.7","16","30","64","33","-24628","-3152","-7572","15","150","149.76","116.11","33.65","28.43","38.2","12.81","90416","27.88","DUALSPOT-UV-BLUE-GREEN-RED-IR","753272","714465","905371","12.151394","3.471279","0.011574","736845","902740","764971","9.244029","2.690477","0.013600","831275","904163","812888","7.819105","2.299136","0.008912","829473","927491","864752","6.361843","1.914704","0.033022","710821","849129","948255","4.192690","1.142322","-0.021171","5548","6196","6456","5839","6435","6679","5660","5959","6084","5902","6999","7471","5680","5343","5217",""
"MA200-0416","19466","55","1","1.10","1.4","2023-05-03T17:04:30","120","2023/05/03","17:04:30","-15.810123085975647","35.00529549922794","2.9","16","30","64","33","-24330","-3238","-6096","15","150","150.21","115.84","34.38","28.41","38.2","12.80","90392","27.81","DUALSPOT-UV-BLUE-GREEN-RED-IR","752685","714074","904956","12.181284","3.479587","-0.007999","736251","902139","764527","9.266766","2.696777","-0.011149","831524","904599","813355","7.839227","2.305883","0.019812","829388","927509","864803","6.377677","1.918579","-0.052572","711097","849492","948680","4.201103","1.144413","-0.068616","1515","1419","1381","1455","1358","1318","1442","1629","1707","1371","1130","1027","1014","849","787",""
"MA200-0416","19467","55","1","1.10","1.4","2023-05-03T17:05:00","120","2023/05/03","17:05:00","-15.810691595077515","35.00546799879521","1.9","16","30","64","32","-24600","-2627","-4391","15","150","149.63","115.79","33.84","28.37","38.2","12.77","90388","27.75","DUALSPOT-UV-BLUE-GREEN-RED-IR","755234","716653","908299","12.213423","3.489153","0.002057","733839","899323","762211","9.292194","2.706092","0.028353","833442","906782","815376","7.860882","2.313125","0.021607","824801","922495","860167","6.394198","1.924670","0.042603","713247","852099","951641","4.208896","1.146423","-0.045682","1630","1660","1672","1628","2040","2210","1552","1776","1870","1431","1806","1967","940","829","788",""
"MA200-0416","19468","55","1","1.10","1.4","2023-05-03T17:05:30","120","2023/05/03","17:05:30","-15.811186075210571","35.005627665203065","1.7","16","30","64","33","-24396","-2540","-6132","15","150","149.34","116.09","33.25","28.33","38.2","12.74","90384","27.75","DUALSPOT-UV-BLUE-GREEN-RED-IR","755637","717238","909188","12.253330","3.502252","0.013848","733979","899671","762571","9.318930","2.713180","-0.012602","834364","907923","816482","7.883984","2.320272","0.012910","826647","924716","862302","6.413880","1.930898","0.020320","714254","853374","953085","4.220442","1.150017","0.025280","2019","2313","2431","1707","1580","1527","1652","1784","1839","1701","1879","1955","1389","1510","1555",""
"MA200-0416","19469","55","1","1.10","1.4","2023-05-03T17:06:00","120","2023/05/03","17:06:00","-15.811505496501923","35.005692332517356","1.1","16","30","64","33","-25336","-3120","-6824","15","150","149.80","115.94","33.85","28.31","38.2","12.71","90384","27.75","DUALSPOT-UV-BLUE-GREEN-RED-IR","754923","716935","908968","12.311617","3.519195","-0.000509","733518","899446","762495","9.359673","2.726324","0.013771","833632","907361","816069","7.914597","2.330411","0.020199","825376","923384","861142","6.435618","1.938969","0.043487","713871","853040","952735","4.235012","1.153625","-0.062337","2952","2939","2934","2605","2878","2990","2192","2486","2609","1881","2391","2612","1755","1488","1388",""
"MA200-0416","19470","55","1","1.10","1.4","2023-05-03T17:06:30","120","2023/05/03","17:06:30","-15.811925828456879","35.00557383149862","2.4","16","30","64","33","-24856","-1724","-7288","15","150","149.89","115.96","33.93","28.29","38.2","12.70","90384","27.75","DUALSPOT-UV-BLUE-GREEN-RED-IR","753024","716312","908666","12.535492","3.576034","-0.018143","732195","898646","762062","9.487979","2.758272","-0.028062","833352","907665","816496","8.002150","2.353024","-0.024930","825417","923829","861664","6.491139","1.954461","-0.010995","713831","853209","952994","4.268364","1.161349","-0.094133","11339","9838","9238","8202","6979","6477","6268","5532","5226","4803","4580","4483","4017","3179","2866",""
"MA200-0416","19471","55","1","1.10","1.4","2023-05-03T17:07:00","120","2023/05/03","17:07:00","-15.812418162822723","35.00513899931684","2.0","17","30","64","32","-24503","19","-6707","15","150","149.76","115.10","34.67","28.27","38.2","12.68","90416","27.69","DUALSPOT-UV-BLUE-GREEN-RED-IR","752124","716122","908801","12.666040","3.613906","-0.004295","731549","898491","762154","9.583302","2.786666","-0.001652","832324","907055","816150","8.079756","2.375501","-0.007124","830230","929693","867279","6.551660","1.970971","-0.023796","713745","853367","953324","4.310068","1.172653","-0.037004","6662","6416","6318","6139","6071","6044","5597","5382","5293","5275","4778","4564","5061","4554","4365",""
"MA200-0416","19472","55","1","1.10","1.4","2023-05-03T17:07:30","120","2023/05/03","17:07:30","-15.812853872776031","35.004719832446426","2.5","17","30","64","33","-24552","-1248","-6852","15","150","150.09","116.31","33.79","28.25","38.3","12.68","90432","27.69","DUALSPOT-UV-BLUE-GREEN-RED-IR","750597","714858","907328","12.718189","3.629289","0.001667","735301","903240","766237","9.619445","2.797277","0.001537","831419","906233","815456","8.111179","2.385151","0.009243","829074","928494","866223","6.576467","1.979333","0.028392","712642","852096","951889","4.323890","1.177033","0.025682","2633","2674","2690","2303","2328","2338","2243","2371","2424","2139","2483","2631","1660","1811","1867",""
"MA200-0416","19473","55","1","1.10","1.4","2023-05-03T17:08:00","120","2023/05/03","17:08:00","-15.813189625740051","35.00466449884698","2.0","17","30","64","32","-24304","-2016","-7608","15","150","150.29","116.15","34.14","28.21","38.3","12.66","90432","27.63","DUALSPOT-UV-BLUE-GREEN-RED-IR","746685","711295","902905","12.755211","3.642194","0.016183","732357","899808","763375","9.642193","2.805650","0.027210","829128","903819","813346","8.130295","2.391988","0.028897","826513","925692","863687","6.591787","1.984423","0.023835","711038","850228","949863","4.331838","1.178737","-0.136574","1872","2220","2359","1451","1818","1968","1366","1662","1785","1323","1495","1570","955","697","600",""
"MA200-0416","19474","55","1","1.10","1.4","2023-05-03T17:08:30","120","2023/05/03","17:08:30","-15.813535869121552","35.004945166409016","1.7","17","30","64","32","-24280","-172","-6915","15","150","150.36","116.15","34.21","28.18","38.3","12.63","90432","27.63","DUALSPOT-UV-BLUE-GREEN-RED-IR","747768","712489","904479","12.783495","3.650474","-0.000671","732869","900535","764048","9.663180","2.811742","-0.002156","829698","904539","814058","8.147818","2.397096","-0.001823","827552","926926","864900","6.604668","1.989543","0.050492","711890","851291","951043","4.338329","1.180563","-0.015251","1430","1421","1418","1339","1320","1312","1252","1239","1234","1112","1501","1669","780","745","732",""
"MA200-0416","19475","55","1","1.10","1.4","2023-05-03T17:09:00","120","2023/05/03","17:09:00","-15.814074337482452","35.004392832517624","3.5","17","30","64","33","-24624","-1368","-6280","15","150","150.04","116.08","33.96","28.15","38.3","12.62","90452","27.56","DUALSPOT-UV-BLUE-GREEN-RED-IR","752451","717078","910350","12.810074","3.658523","0.003670","731438","898885","762699","9.681836","2.818323","0.023238","833254","908513","817670","8.163255","2.403855","0.050608","825738","924976","863067","6.616753","1.994532","0.055995","710994","850319","949920","4.344175","1.180870","2.047040","1344","1392","1411","1191","1436","1537","1104","1652","1881","1044","1473","1659","703","126","-89",""
"MA200-0416","19476","55","1","1.10","1.4","2023-05-03T17:09:30","120","2023/05/03","17:09:30","-15.81454622745514","35.00388866616413","2.5","17","30","64","33","-24728","-1540","-6420","15","150","150.28","115.88","34.41","28.12","38.3","12.58","90464","27.50","DUALSPOT-UV-BLUE-GREEN-RED-IR","751755","716502","909709","12.832054","3.665485","0.006657","731516","899054","762869","9.697487","2.823133","0.004871","832643","907905","817176","8.174492","2.407741","0.023180","823856","922914","861188","6.627569","1.998950","0.052750","714933","855011","955228","4.350536","1.183854","0.101927","1114","1188","1218","1001","1036","1050","804","937","993","936","1287","1439","766","1211","1377",""
"MA200-0416","19477","55","1","1.10","1.4","2023-05-03T17:10:00","120","2023/05/03","17:10:00","-15.815064489841461","35.00336949946359","3.6","17","30","64","32","-24232","-2360","-7788","15","150","149.45","115.79","33.65","28.09","38.3","12.55","90448","27.50","DUALSPOT-UV-BLUE-GREEN-RED-IR","748129","713178","905558","12.853453","3.672451","0.011191","728815","895820","760196","9.713837","2.829671","0.035685","830913","906113","815576","8.188498","2.412755","0.030177","827597","927147","865194","6.637601","2.002710","0.044197","713244","853026","953004","4.354038","1.184599","-0.133247","1085","1215","1267","1046","1440","1602","1004","1236","1333","869","1121","1230","422","309","267",""
"MA200-0416","19478","55","1","1.10","1.4","2023-05-03T17:10:30","120","2023/05/03","17:10:30","-15.815840542316437","35.002726666396484","3.8","17","30","64","32","-24652","-1580","-6972","15","150","150.16","115.95","34.21","28.05","38.3","12.54","90460","27.50","DUALSPOT-UV-BLUE-GREEN-RED-IR","749563","715080","908260","12.954483","3.703544","0.004398","729904","897641","761892","9.782421","2.850086","0.001263","831084","906641","816201","8.241088","2.428168","-0.001145","828337","928245","866303","6.676452","2.015179","0.016736","714030","854102","954289","4.376480","1.191203","-0.000851","5117","5338","5427","4384","4423","4439","3765","3740","3730","3361","3656","3784","2703","2696","2693",""
"MA200-0416","19479","55","1","1.10","1.4","2023-05-03T17:11:00","120","2023/05/03","17:11:00","-15.816436111927032","35.00227166642435","1.3","17","30","64","32","-24792","744","-5796","15","150","149.89","116.01","33.88","28.02","38.4","12.53","90484","27.44","DUALSPOT-UV-BLUE-GREEN-RED-IR","745927","711815","904263","13.003229","3.720535","0.016393","731975","900387","764260","9.812524","2.858585","-0.005025","829093","904627","814438","8.265513","2.434886","-0.010913","825617","925302","863620","6.696875","2.022249","0.031300","712367","852179","952162","4.386821","1.193496","-0.112580","2468","2945","3136","1923","1859","1833","1748","1646","1603","1766","2093","2234","1245","945","833",""
"MA200-0416","19480","55","1","1.10","1.4","2023-05-03T17:11:30","120","2023/05/03","17:11:30","-15.816822230815887","35.00269016623497","3.4","17","30","64","32","-24636","-2472","-6611","15","150","150.03","115.83","34.20","27.99","38.4","12.51","90480","27.44","DUALSPOT-UV-BLUE-GREEN-RED-IR","745908","711987","904560","13.040833","3.730499","-0.012850","732107","900677","764571","9.837619","2.867126","0.018034","830048","905780","815524","8.286477","2.442605","0.031327","827364","927371","865620","6.712888","2.027696","0.026699","713446","853504","953653","4.395124","1.195400","-0.100742","1906","1711","1633","1606","1851","1952","1502","1874","2029","1386","1598","1689","1001","777","694",""
"MA200-0416","19481","55","1","1.10","1.4","2023-05-03T17:12:00","120","2023/05/03","17:12:00","-15.816304922103882","35.00352566619404","3.2","17","30","64","32","-24616","-808","-6643","15","150","149.70","115.95","33.75","27.98","38.4","12.50","90516","27.38","DUALSPOT-UV-BLUE-GREEN-RED-IR","746101","712307","905074","13.073771","3.743116","0.023481","731458","899980","764058","9.859009","2.874197","0.016311","829666","905461","815245","8.302969","2.448428","0.027956","826193","926123","864473","6.724736","2.031309","0.009467","712916","852935","953034","4.400650","1.197104","0.017227","1668","2196","2407","1367","1553","1629","1180","1432","1537","1025","1073","1094","665","705","720",""
"MA200-0416","19482","55","1","1.10","1.4","2023-05-03T17:12:30","120","2023/05/03","17:12:30","-15.816612124443054","35.00403233245015","3.7","17","30","64","32","-24428","-528","-7075","15","150","149.51","115.99","33.51","27.96","38.4","12.49","90560","27.31","DUALSPOT-UV-BLUE-GREEN-RED-IR","750463","716587","910584","13.098383","3.750339","0.001641","730946","899470","763661","9.875534","2.879066","0.002758","828502","904276","814251","8.317840","2.453851","0.032590","824092","923865","862420","6.737797","2.037114","0.064649","712238","852157","952179","4.406643","1.198171","-0.252849","1246","1265","1273","1056","1077","1085","1064","1343","1460","1129","1737","2001","721","444","341",""
"MA200-0416","19483","55","1","1.10","1.4","2023-05-03T17:13:00","120","2023/05/03","17:13:00","-15.817626774311066","35.00416883267462","4.2","17","30","64","32","-24632","-967","-6656","15","150","149.70","115.71","33.99","27.91","38.4","12.45","90592","27.25","DUALSPOT-UV-BLUE-GREEN-RED-IR","747965","714318","907809","13.123972","3.758247","0.005193","729185","897415","761958","9.892722","2.885683","0.030820","831327","907478","817159","8.331025","2.457339","-0.019693","828659","929008","867238","6.747390","2.041161","0.057037","710652","850307","950108","4.412380","1.199663","-0.042444","1298","1366","1393","1101","1443","1584","945","851","812","831","1194","1352","692","613","583",""
"MA200-0416","19484","55","1","1.10","1.4","2023-05-03T17:13:30","120","2023/05/03","17:13:30","-15.818582475185394","35.004300999455154","3.4","17","30","64","32","-24561","-522","-7277","15","150","150.09","115.87","34.22","27.88","38.5","12.43","90644","27.25","DUALSPOT-UV-BLUE-GREEN-RED-IR","747597","714151","907651","13.159903","3.770383","0.012733","728602","896831","761523","9.919781","2.894771","0.016361","831260","907453","817263","8.353174","2.466661","0.045038","827449","927767","866153","6.765083","2.048248","0.049983","710303","849920","949704","4.420843","1.202392","0.025369","1821","2082","2187","1731","1968","2066","1587","2261","2544","1531","2077","2314","1020","1114","1149",""
"MA200-0416","19485","55","1","1.10","1.4","2023-05-03T17:14:00","120","2023/05/03","17:14:00","-15.81915158033371","35.0044374987483","1.4","17","30","64","32","-24036","1116","-7575","15","150","149.87","115.71","34.16","27.84","38.5","12.41","90692","27.25","DUALSPOT-UV-BLUE-GREEN-RED-IR","745958","712763","905994","13.194557","3.781429","0.007618","731648","900780","764946","9.943731","2.902902","0.017588","830539","906839","816740","8.373458","2.472782","0.003652","827456","927832","866270","6.781081","2.053315","0.013940","710263","849936","949766","4.429519","1.205670","0.062681","1759","1899","1955","1534","1764","1859","1455","1487","1501","1387","1488","1531","1047","1340","1450",""
"MA200-0416","19486","55","1","1.10","1.4","2023-05-03T17:14:30","120","2023/05/03","17:14:30","-15.819084882736206","35.00496333325282","2.1","17","30","64","32","-24208","-1216","-6628","15","150","150.35","116.04","34.31","27.81","38.5","12.38","90728","27.19","DUALSPOT-UV-BLUE-GREEN-RED-IR","749691","716430","910749","13.218575","3.788566","0.000541","730632","899612","764017","9.963536","2.909870","0.021228","829867","906204","816198","8.389605","2.479088","0.037315","826121","926386","864978","6.794011","2.059436","0.068176","714337","854829","955245","4.437166","1.207760","-0.026017","1215","1221","1224","1265","1505","1604","1155","1526","1681","1117","1790","2082","920","851","825",""
"MA200-0416","19487","55","1","1.10","1.4","2023-05-03T17:15:00","120","2023/05/03","17:15:00","-15.81902414560318","35.005446498747915","1.9","17","30","64","32","-24372","-3684","-5956","15","150","149.42","116.03","33.39","27.78","38.5","12.35","0","0.00","DUALSPOT-UV-BLUE-GREEN-RED-IR","748539","715443","909553","13.241182","3.795871","0.011092","729674","898517","763094","9.979044","2.915043","0.018386","828744","905044","815223","8.403701","2.484530","0.038847","824469","924616","863360","6.804346","2.063358","0.046120","708693","848111","947739","4.439268","1.206975","0.329769","1144","1285","1341","990","1148","1213","1008","1353","1497","893","1178","1302","253","-328","-545",""
"MA200-0416","19488","55","1","1.10","1.4","2023-05-03T17:15:30","120","2023/05/03","17:15:30","-15.818841934204102","35.00599516509101","2.3","17","30","64","32","-24846","-3073","-6273","15","150","149.63","116.27","33.36","27.74","38.5","12.33","0","0.00","DUALSPOT-UV-BLUE-GREEN-RED-IR","747600","714673","908647","13.265524","3.803012","0.002296","728975","897781","762540","9.997322","2.921589","0.025963","827974","904303","814554","8.419276","2.488774","-0.009151","823369","923476","862325","6.817105","2.066899","-0.007264","712848","853116","953383","4.447948","1.210106","0.058665","1229","1257","1268","1165","1454","1573","1112","1056","1032","1100","1064","1048","1042","1310","1411",""
"MA200-0416","19489","55","1","1.10","1.4","2023-05-03T17:16:00","120","2023/05/03","17:16:00","-15.81854099035263","35.0065078320913","2.0","17","30","64","32","-24860","-1856","-5752","15","150","149.90","116.27","33.63","27.71","38.5","12.31","90688","27.06","DUALSPOT-UV-BLUE-GREEN-RED-IR","747483","714667","908714","13.290619","3.810388","0.001674","728807","897630","762469","10.014182","2.926410","-0.001600","828058","904464","814745","8.430744","2.493161","0.037268","828234","929009","867499","6.827967","2.071643","0.061921","712808","853104","953355","4.451435","1.211000","-0.041645","1267","1288","1296","1074","1062","1058","818","1083","1194","937","1415","1623","418","371","353",""
"MA200-0416","19490","55","1","1.10","1.4","2023-05-03T17:16:30","120","2023/05/03","17:16:30","-15.818243205547333","35.00677033280954","0.6","17","30","64","32","-24616","-1136","-5328","15","150","149.76","115.99","33.77","27.67","38.5","12.27","90680","27.06","DUALSPOT-UV-BLUE-GREEN-RED-IR","745098","712906","906674","13.384174","3.833812","-0.018254","727078","895893","761089","10.068772","2.940822","-0.015078","827253","903821","814297","8.470512","2.505553","0.010700","827816","928679","867274","6.849844","2.078164","0.004796","712451","852717","952981","4.463487","1.214262","-0.024064","4737","4073","3807","3489","3163","3029","2846","3046","3130","1892","1937","1956","1451","1349","1310",""
"MA200-0416","19491","55","1","1.10","1.4","2023-05-03T17:17:00","120","2023/05/03","17:17:00","-15.818171083927155","35.0068419999443","0.1","18","30","64","32","-24292","-3312","-8075","15","150","149.80","115.87","33.93","27.65","38.6","12.27","90684","27.06","DUALSPOT-UV-BLUE-GREEN-RED-IR","743273","711545","905197","13.463118","3.860286","0.012564","730663","900707","765347","10.131058","2.961635","0.016411","826108","902901","813592","8.521003","2.521593","0.012621","827095","928094","866868","6.889229","2.092010","0.032456","712070","852444","952723","4.482528","1.219577","-0.015271","4001","4582","4816","3985","4547","4779","3617","3924","4053","3410","4094","4392","2295","2188","2148",""
"MA200-0416","19492","55","1","1.10","1.4","2023-05-03T17:17:30","120","2023/05/03","17:17:30","-15.818148851394653","35.006843832787126","0.1","18","30","64","31","-24236","-2620","-8492","15","150","150.27","116.16","34.11","27.63","38.6","12.25","90676","27.06","DUALSPOT-UV-BLUE-GREEN-RED-IR","742496","710971","904524","13.497528","3.870126","-0.002831","729597","899531","764396","10.153285","2.968866","0.013015","829995","907264","817552","8.540333","2.527768","0.012985","825208","926033","864956","6.902774","2.097518","0.051556","711356","851581","951772","4.488641","1.221657","0.039863","1740","1694","1675","1418","1571","1634","1381","1502","1553","1169","1619","1816","735","851","895",""
"MA200-0416","19493","55","1","1.10","1.4","2023-05-03T17:18:00","120","2023/05/03","17:18:00","-15.817869424819946","35.006975332740694","1.5","18","30","64","32","-24760","-3248","-4820","15","150","149.90","116.03","33.87","27.60","38.7","12.26","90668","27.06","DUALSPOT-UV-BLUE-GREEN-RED-IR","745136","713651","908046","13.527199","3.879547","0.008104","727142","896617","761954","10.172332","2.973842","-0.017099","826375","903359","814093","8.554238","2.533030","0.034655","826793","927922","866779","6.915769","2.101248","-0.003464","712494","852982","953356","4.493889","1.223815","0.080096","1501","1633","1686","1216","1089","1036","994","1290","1414","1123","1105","1097","631","890","986",""
"MA200-0416","19494","55","1","1.10","1.4","2023-05-03T17:18:30","120","2023/05/03","17:18:30","-15.81750339269638","35.00700549921021","1.5","18","30","64","32","-25000","-6280","-5264","15","150","149.73","116.04","33.69","27.58","38.7","12.25","90636","27.13","DUALSPOT-UV-BLUE-GREEN-RED-IR","743977","712792","907077","13.572517","3.893348","0.004749","726746","896312","761775","10.199991","2.982360","0.007774","825855","902956","813753","8.575380","2.538055","-0.040422","820459","920911","860267","6.928766","2.106869","0.059622","712301","852804","953177","4.500728","1.224388","-9.789458","2293","2406","2451","1766","1874","1919","1512","1238","1123","1123","1674","1914","823","237","18",""
"MA200-0416","19495","55","1","1.10","1.4","2023-05-03T17:19:00","120","2023/05/03","17:19:00","-15.817176461219788","35.00682666618377","1.9","18","30","64","32","-23928","-3264","-8772","15","150","149.76","116.35","33.42","27.57","38.7","12.26","90596","27.13","DUALSPOT-UV-BLUE-GREEN-RED-IR","744337","713567","908316","13.661451","3.919899","0.003841","726837","896734","762228","10.249495","2.996315","-0.002621","826286","903686","814481","8.614517","2.548933","-0.005569","820229","920827","860258","6.957968","2.114194","-0.031931","712124","852693","953086","4.516489","1.228053","-0.078351","4489","4666","4738","3154","3095","3071","2792","2702","2664","2518","2199","2060","1892","1532","1397",""
"MA200-0416","19496","55","1","1.10","1.4","2023-05-03T17:19:30","120","2023/05/03","17:19:30","-15.816827595233917","35.00665816524997","1.4","18","30","64","32","-24744","-2924","-6992","15","150","149.76","116.23","33.53","27.56","38.8","12.26","90564","27.13","DUALSPOT-UV-BLUE-GREEN-RED-IR","742247","711994","906526","13.744282","3.943981","0.000777","725525","895426","761207","10.298785","3.008836","-0.019722","825501","903088","814031","8.652061","2.558112","-0.031975","820266","921087","860547","6.987678","2.120745","-0.073244","711865","852510","952853","4.534137","1.230504","-0.544863","4185","4218","4230","3143","2768","2613","2681","2272","2100","2564","1959","1696","2121","1020","611",""
"MA200-0416","19497","55","1","1.10","1.4","2023-05-03T17:20:00","120","2023/05/03","17:20:00","-15.81639015674591","35.00647249864414","1.7","18","30","64","32","-25072","-2840","-6456","15","150","150.21","115.88","34.34","27.55","38.8","12.26","90536","27.13","DUALSPOT-UV-BLUE-GREEN-RED-IR","742549","712538","907351","13.799526","3.959221","-0.007770","726147","896420","762131","10.333135","3.017068","-0.035812","825603","903366","814354","8.677733","2.564681","-0.027690","820366","921324","860800","7.007539","2.126044","-0.023833","712134","852938","953374","4.545883","1.232914","-0.160389","2800","2606","2529","2197","1777","1603","1839","1588","1482","1719","1548","1473","1415","980","818",""
"MA200-0416","19498","55","1","1.10","1.4","2023-05-03T17:20:30","120","2023/05/03","17:20:30","-15.81593668460846","35.006467998959124","2.8","18","30","64","32","-24420","-1700","-7696","15","150","149.76","116.07","33.69","27.55","38.8","12.29","90512","27.13","DUALSPOT-UV-BLUE-GREEN-RED-IR","743086","713321","908482","13.850271","3.975069","0.006944","726488","897096","762761","10.365857","3.025890","-0.010801","825908","903933","814893","8.703912","2.569598","-0.115251","821282","922528","861932","7.025340","2.129466","-0.133977","712792","853811","954395","4.558233","1.236434","-0.005686","2567","2762","2841","2089","1940","1879","1872","1211","934","1538","1018","792","1486","1459","1448",""
"MA200-0416","19499","55","1","1.10","1.4","2023-05-03T17:21:00","120","2023/05/03","17:21:00","-15.815653562545776","35.00708866631612","2.1","18","30","64","32","-25612","-1444","-4296","15","150","150.16","115.99","34.17","27.56","38.9","12.33","90516","27.19","DUALSPOT-UV-BLUE-GREEN-RED-IR","743962","714366","909922","13.896025","3.988233","-0.002431","727317","898290","763822","10.394785","3.033842","-0.010037","826433","904610","815569","8.726455","2.576398","0.003784","821540","922885","862342","7.043707","2.134937","0.002255","712925","854013","954619","4.568302","1.237606","-1.065814","2316","2262","2241","1848","1725","1674","1613","1652","1668","1588","1606","1614","1212","479","206",""
"MA200-0416","19500","55","1","1.10","1.4","2023-05-03T17:21:30","120","2023/05/03","17:21:30","-15.81537276506424","35.00749533297494","1.9","18","30","64","32","-25663","-2035","-5372","15","150","149.70","116.35","33.35","27.56","39.0","12.35","90528","27.19","DUALSPOT-UV-BLUE-GREEN-RED-IR","743059","713605","909066","13.922182","3.996326","0.007199","726351","897188","762936","10.412701","3.038383","-0.018745","826166","904403","815420","8.741510","2.581060","0.011686","821922","923395","862849","7.053830","2.136743","-0.167462","713179","854361","955054","4.576349","1.240949","0.083369","1320","1425","1467","1141","1009","955","1074","1160","1196","872","543","400","966","1400","1562",""
"MA200-0416","19501","55","1","1.10","1.4","2023-05-03T17:22:00","120","2023/05/03","17:22:00","-15.815030217170715","35.00789049919695","1.5","18","30","64","32","-24780","-2508","-5256","15","150","150.03","115.95","34.08","27.56","39.0","12.35","90512","27.25","DUALSPOT-UV-BLUE-GREEN-RED-IR","743957","714612","910420","13.946499","4.005439","0.019972","727063","898153","763792","10.429029","3.044885","0.032018","826314","904647","815665","8.755351","2.584756","-0.017035","822527","924173","863579","7.066484","2.140904","0.020602","713318","854557","955276","4.582065","1.241975","-0.249998","1231","1570","1707","1043","1414","1567","990","900","862","1094","1224","1281","688","420","320",""
"MA200-0416","19502","55","1","1.10","1.4","2023-05-03T17:22:30","120","2023/05/03","17:22:30","-15.814645230770111","35.008294333703816","2.2","18","30","64","32","-25064","-1816","-5084","15","150","149.57","116.03","33.53","27.56","39.0","12.37","90504","27.25","DUALSPOT-UV-BLUE-GREEN-RED-IR","743710","714629","910548","13.996296","4.017254","-0.023975","727133","898480","764147","10.458739","3.051294","-0.053348","826166","904679","815736","8.777607","2.590114","-0.035351","822618","924328","863822","7.080689","2.145785","0.030122","708885","849312","949420","4.590385","1.244161","-0.031066","2520","2069","1887","1898","1416","1218","1592","1326","1215","1228","1460","1561","1001","910","876",""
"MA200-0416","19503","55","1","1.10","1.4","2023-05-03T17:23:00","120","2023/05/03","17:23:00","-15.814316630363464","35.00861399900168","2.0","18","30","64","31","-24464","-1700","-6120","15","150","149.87","115.92","33.95","27.57","39.1","12.40","90504","27.25","DUALSPOT-UV-BLUE-GREEN-RED-IR","742073","713304","908981","14.041460","4.030426","-0.000418","725761","896990","762907","10.488244","3.059768","-0.002669","825091","903619","814831","8.801634","2.596473","-0.017972","820626","922249","861881","7.098779","2.149546","-0.100363","707365","847568","947524","4.602918","1.246374","-0.259942","2288","2278","2275","1886","1850","1835","1720","1555","1485","1565","1111","914","1510","910","687",""
"MA200-0416","19504","55","1","1.10","1.4","2023-05-03T17:23:30","120","2023/05/03","17:23:30","-15.813860893249512","35.00908083003014","1.8","18","30","64","31","-24656","-1588","-5876","15","150","149.51","115.71","33.79","27.57","39.1","12.42","90508","27.25","DUALSPOT-UV-BLUE-GREEN-RED-IR","737460","709205","903902","14.105553","4.048702","-0.002427","726887","898693","764457","10.529792","3.070516","-0.018258","826456","905358","816469","8.833910","2.605098","-0.015512","823931","926079","865516","7.122194","2.155924","-0.015007","709013","849630","949841","4.618120","1.250985","0.010894","3253","3176","3145","2661","2357","2232","2315","2118","2036","2030","1893","1834","1835","1906","1932",""
"MA200-0416","19505","55","1","1.10","1.4","2023-05-03T17:24:00","120","2023/05/03","17:24:00","-15.813640236854553","35.00942149758339","1.9","18","30","64","31","-24284","-2616","-7047","15","150","150.09","116.11","33.98","27.58","39.2","12.45","90500","27.31","DUALSPOT-UV-BLUE-GREEN-RED-IR","738728","710610","905788","14.146160","4.059957","-0.005679","722791","893736","760304","10.557851","3.078289","-0.007753","827115","906216","817293","8.856214","2.610695","-0.028626","824419","926812","866197","7.141005","2.159870","-0.095786","709652","850494","950822","4.631202","1.253089","-0.348408","2054","1945","1901","1791","1695","1655","1594","1367","1272","1625","1164","965","1573","865","602",""
"MA200-0416","19506","55","1","1.10","1.4","2023-05-03T17:24:30","120","2023/05/03","17:24:30","-15.813375771045685","35.00977133214474","1.8","18","30","64","31","-25468","-2408","-5740","15","150","149.76","116.03","33.73","27.59","39.2","12.46","90468","27.31","DUALSPOT-UV-BLUE-GREEN-RED-IR","739347","711363","906904","14.180981","4.071571","0.012071","723438","894720","761168","10.581165","3.085304","0.004449","827132","906367","817466","8.874929","2.615410","-0.026300","823848","926245","865726","7.152491","2.163196","-0.000816","710016","850981","951394","4.638988","1.256424","0.084808","1762","2022","2126","1489","1541","1563","1339","1160","1085","993","989","987","937","1380","1545",""
"MA200-0416","19507","55","1","1.10","1.4","2023-05-03T17:25:00","120","2023/05/03","17:25:00","-15.813037693500519","35.010195665992796","1.8","18","30","64","31","-24532","-3448","-6979","15","150","150.09","116.27","33.83","27.60","39.1","12.46","90408","27.31","DUALSPOT-UV-BLUE-GREEN-RED-IR","736798","709250","904320","14.245089","4.089716","-0.002776","726463","898678","764620","10.618736","3.095483","-0.010111","825886","905175","816456","8.903111","2.623129","-0.010177","822318","924672","864292","7.173137","2.168149","-0.046805","708153","848837","949002","4.651827","1.258901","-0.184261","3238","3150","3115","2395","2230","2163","2012","1894","1845","1781","1469","1333","1542","1023","830",""
"MA200-0416","19508","55","1","1.10","1.4","2023-05-03T17:25:30","120","2023/05/03","17:25:30","-15.81269496679306","35.01049316301942","1.5","18","30","64","31","-23692","-3964","-8032","15","150","149.94","116.13","33.81","27.61","39.2","12.48","90340","27.31","DUALSPOT-UV-BLUE-GREEN-RED-IR","738156","710718","906321","14.277880","4.099535","0.002692","727898","900634","766349","10.640783","3.100986","-0.023706","826841","906373","817552","8.920295","2.627200","-0.040212","824371","927061","866574","7.185817","2.169610","-0.897475","709945","851032","951500","4.658403","1.259714","-0.802721","1658","1705","1724","1407","1206","1123","1228","999","904","1095","433","147","791","335","166",""
"MA200-0416","19509","55","1","1.10","1.4","2023-05-03T17:26:00","120","2023/05/03","17:26:00","-15.812272787094116","35.010285664349794","1.2","18","30","64","31","-24352","-2788","-8376","15","150","149.63","115.99","33.64","27.63","39.2","12.49","90316","27.31","DUALSPOT-UV-BLUE-GREEN-RED-IR","738644","711431","907370","14.325369","4.115133","0.010943","723481","895320","761898","10.670368","3.110254","0.009521","826847","906482","817738","8.942372","2.634031","0.009679","824895","927781","867264","7.202935","2.175778","0.035795","710031","851226","951781","4.672989","1.263646","-0.022891","2404","2723","2851","1890","2042","2104","1580","1685","1729","1480","1839","1995","1756","1632","1586",""
"MA200-0416","19510","55","1","1.10","1.4","2023-05-03T17:26:30","120","2023/05/03","17:26:30","-15.81185120344162","35.010131331160665","1.9","18","30","64","31","-23928","-1192","-7728","15","150","149.45","116.55","32.90","27.64","39.2","12.52","90308","27.38","DUALSPOT-UV-BLUE-GREEN-RED-IR","738829","711836","907997","14.374855","4.129636","0.003547","723575","895638","762215","10.700337","3.118063","-0.011382","822242","901575","813345","8.966488","2.640533","-0.007567","824889","927876","867390","7.220796","2.179802","-0.056361","710035","851275","951830","4.682260","1.266032","-0.029397","2493","2589","2627","1906","1759","1699","1717","1640","1608","1537","1227","1092","1111","1013","976",""
"MA200-0416","19511","55","1","1.10","1.4","2023-05-03T17:27:00","120","2023/05/03","17:27:00","-15.811476171016693","35.00995099823922","1.2","18","30","64","31","-23744","-536","-8976","15","150","150.55","116.13","34.42","27.65","39.2","12.53","0","0.00","DUALSPOT-UV-BLUE-GREEN-RED-IR","739211","712425","908880","14.415882","4.141998","0.001573","723598","895829","762440","10.726121","3.125072","-0.012334","822755","902301","814037","8.985103","2.644474","-0.075749","819025","921377","861380","7.235513","2.183426","-0.044213","710111","851423","952027","4.692745","1.268938","-0.020823","2075","2109","2123","1645","1509","1453","1330","950","791","1271","1056","963","1261","1179","1148",""
"MA200-0416","19512","55","1","1.10","1.4","2023-05-03T17:27:30","120","2023/05/03","17:27:30","-15.81137752532959","35.00974416453391","1.1","18","30","64","31","-24372","696","-8108","15","150","149.32","115.75","33.56","27.66","39.2","12.54","0","0.00","DUALSPOT-UV-BLUE-GREEN-RED-IR","739814","713219","910004","14.459669","4.155716","0.007014","724134","896651","763203","10.752652","3.132415","-0.006377","823265","902982","814701","9.006745","2.650654","-0.002426","820163","922745","862676","7.250910","2.187229","-0.037151","710871","852447","953177","4.702572","1.270950","-0.143303","2221","2400","2472","1699","1621","1590","1552","1528","1519","1334","1136","1051","1185","837","708",""
"MA200-0416","19513","55","1","1.10","1.4","2023-05-03T17:28:00","120","2023/05/03","17:28:00","-15.811579644680023","35.00950433220714","1.0","18","30","64","31","-24207","-2300","-7988","15","150","149.45","115.95","33.49","27.68","39.2","12.54","90368","27.44","DUALSPOT-UV-BLUE-GREEN-RED-IR","738234","711895","908414","14.498035","4.167688","0.006983","722855","895240","762035","10.777267","3.138816","-0.015204","821850","901595","813470","9.026266","2.654541","-0.087156","818145","920600","860656","7.264541","2.189791","-0.137500","709858","851270","951863","4.713812","1.274189","-0.000738","1943","2099","2162","1573","1416","1352","1397","963","782","1179","767","590","1354","1350","1349",""
"MA200-0416","19514","55","1","1.10","1.4","2023-05-03T17:28:30","120","2023/05/03","17:28:30","-15.811303913593292","35.00917999818921","1.9","18","30","64","31","-24676","-2340","-6316","15","150","149.57","116.23","33.34","27.69","39.2","12.55","90352","27.44","DUALSPOT-UV-BLUE-GREEN-RED-IR","740003","713939","911149","14.559702","4.181305","-0.032745","724402","897498","764002","10.815704","3.147859","-0.031401","823227","903281","815066","9.054071","2.660793","-0.048679","820435","923319","863246","7.283116","2.192938","-0.194031","711304","853118","953993","4.726236","1.275695","-0.798534","3116","2399","2110","2451","2010","1830","1986","1557","1378","1603","947","664","1493","631","312",""
"MA200-0416","19515","55","1","1.10","1.4","2023-05-03T17:29:00","120","2023/05/03","17:29:00","-15.811051666736603","35.00890166498721","1.5","18","30","64","31","-24564","-2640","-6400","15","150","149.64","115.86","33.78","27.71","39.2","12.56","90320","27.44","DUALSPOT-UV-BLUE-GREEN-RED-IR","734721","709092","905067","14.608675","4.193596","-0.016615","724230","897438","764015","10.843957","3.153556","-0.070958","823898","904157","815880","9.075148","2.665061","-0.084000","821512","924641","864526","7.299247","2.195996","-0.137287","712019","854045","955080","4.737795","1.278868","-0.018401","2482","2137","1997","1807","1250","1021","1510","1048","857","1396","908","697","1393","1312","1281",""
"MA200-0416","19516","55","1","1.10","1.4","2023-05-03T17:29:30","120","2023/05/03","17:29:30","-15.810758829116821","35.0086183315143","1.7","18","30","64","31","-24580","-3680","-6176","15","150","149.83","115.79","34.04","27.72","39.1","12.56","90284","27.44","DUALSPOT-UV-BLUE-GREEN-RED-IR","734354","709155","905353","14.681887","4.214061","-0.005031","724755","898391","764904","10.886245","3.165001","-0.011575","824417","904951","816649","9.104807","2.673101","-0.013591","822510","925927","865761","7.317314","2.201474","0.005881","708208","849532","950006","4.748550","1.281736","-0.030736","3713","3531","3458","2707","2492","2404","2126","1961","1892","1565","1614","1635","1297","1176","1132",""
"MA200-0416","19517","55","1","1.10","1.4","2023-05-03T17:30:00","120","2023/05/03","17:30:00","-15.810453653335571","35.00899983011186","3.4","18","30","64","31","-24616","-1496","-7228","15","150","150.08","115.88","34.20","27.74","39.1","12.58","90296","27.50","DUALSPOT-UV-BLUE-GREEN-RED-IR","734114","709377","905824","14.756401","4.232996","-0.016408","724596","898588","765204","10.935183","3.176761","-0.032425","823848","904604","816471","9.139735","2.681309","-0.044321","822547","926196","866071","7.341231","2.206117","-0.130474","707968","849401","949930","4.766401","1.285361","-0.156418","3776","3251","3040","3130","2549","2311","2502","1992","1781","2070","1362","1057","2152","1480","1232",""
"MA200-0416","19518","55","1","1.10","1.4","2023-05-03T17:30:30","120","2023/05/03","17:30:30","-15.810136437416077","35.00976283289492","2.7","18","30","64","31","-24208","-3620","-7579","15","150","150.25","116.14","34.11","27.76","39.1","12.60","90300","27.50","DUALSPOT-UV-BLUE-GREEN-RED-IR","732985","709271","906252","14.864765","4.265697","0.002505","719423","893214","761027","11.016954","3.199781","-0.005627","822385","903905","816137","9.206874","2.699125","-0.017159","821279","925520","865696","7.394332","2.219612","-0.032226","711345","853988","955273","4.805511","1.295160","-0.052360","5480","5631","5692","5219","5003","4914","4799","4336","4144","4587","3969","3704","4704","4013","3758",""
"MA200-0416","19519","55","1","1.10","1.4","2023-05-03T17:31:00","120","2023/05/03","17:31:00","-15.809811890125275","35.01038049720228","3.3","18","30","64","31","-24395","-3333","-7320","15","150","150.20","116.22","33.98","27.78","39.1","12.59","90272","27.50","DUALSPOT-UV-BLUE-GREEN-RED-IR","720976","704644","904594","16.300037","4.720623","0.006489","709253","888227","759741","12.247368","3.580339","0.006166","812692","900238","815589","10.294877","3.028387","0.004590","812076","921280","864122","8.315148","2.491081","0.001406","706088","851902","954818","5.480909","1.485000","-0.010225","72537","78632","81117","78484","83021","84895","77723","80444","81578","79490","80149","80430","81183","78041","76874",""
"MA200-0416","19520","55","1","1.10","1.4","2023-05-03T17:31:30","120","2023/05/03","17:31:30","-15.809536397457123","35.01109866425395","3.2","18","30","64","31","-24220","-2316","-8020","15","150","149.63","116.11","33.52","27.79","39.1","12.59","90236","27.50","DUALSPOT-UV-BLUE-GREEN-RED-IR","718676","704905","906476","16.937014","4.932527","0.010443","711195","893511","765381","12.804183","3.760160","0.011228","810208","900059","816498","10.796637","3.186726","0.010801","811814","923278","866992","8.746975","2.624529","0.010449","700568","846842","949916","5.803013","1.580062","0.005113","32222","37129","39145","35551","39767","41520","35877","39216","40614","37313","39940","41066","38753","39615","39938",""
"MA200-0416","19521","55","1","1.10","1.4","2023-05-03T17:32:00","120","2023/05/03","17:32:00","-15.809107661247253","35.011939665302634","0.9","18","30","64","31","-24820","412","-5520","15","150","150.66","116.01","34.65","27.80","39.0","12.57","90240","27.50","DUALSPOT-UV-BLUE-GREEN-RED-IR","717957","704921","906965","17.099842","4.984714","0.005460","706493","888257","761143","12.930606","3.798671","0.002109","809203","899572","816303","10.906743","3.218674","-0.003882","809733","921452","865477","8.837181","2.649182","-0.015652","704178","851534","955296","5.868971","1.598091","-0.022522","8244","8845","9093","8078","8238","8305","7879","7654","7559","7801","7137","6853","7942","7267","7015",""
"MA200-0416","19522","55","1","1.10","1.4","2023-05-03T17:32:30","120","2023/05/03","17:32:30","-15.809058010578156","35.01205933094025","0.0","18","30","64","30","-24576","-888","-6952","15","150","149.99","115.64","34.35","27.80","39.0","12.56","90248","27.44","DUALSPOT-UV-BLUE-GREEN-RED-IR","719433","706849","909747","17.222202","5.024063","0.006069","708038","890691","763416","13.025877","3.828163","0.004331","806490","897003","814094","10.986740","3.242380","-0.000303","806595","918253","862603","8.903714","2.668393","-0.004658","701594","848665","952199","5.913337","1.610085","-0.023811","6215","6728","6940","6107","6365","6472","5743","5730","5724","5772","5611","5542","5359","4878","4698",""
"MA200-0416","19523","55","1","1.10","1.4","2023-05-03T17:33:00","120","2023/05/03","17:33:00","-15.809021890163422","35.01210199762136","0.2","18","30","64","30","-24324","-620","-8088","15","150","149.53","116.00","33.52","27.80","38.9","12.54","90248","27.44","DUALSPOT-UV-BLUE-GREEN-RED-IR","713591","701492","903061","17.297294","5.047186","0.004896","707004","889779","762761","13.081287","3.842867","-0.010008","806860","897704","814870","11.034221","3.254497","-0.018011","806609","918504","862946","8.941558","2.678031","-0.022826","702021","849372","953075","5.941068","1.617001","-0.039029","3802","4051","4153","3541","3251","3131","3398","3000","2834","3273","2884","2718","3339","2881","2710",""
"MA200-0416","19524","55","1","1.10","1.4","2023-05-03T17:33:30","120","2023/05/03","17:33:30","-15.809036374092102","35.01217949856073","0.1","18","30","64","31","-24544","-460","-7404","15","150","150.03","115.99","34.04","27.80","38.9","12.52","90252","27.38","DUALSPOT-UV-BLUE-GREEN-RED-IR","718488","706919","910405","17.419580","5.085325","0.004678","707631","891192","764171","13.177075","3.872472","0.005321","805852","897119","814529","11.114332","3.278452","0.002360","806401","918710","863281","9.006757","2.696836","-0.002779","701778","849357","953145","5.984676","1.628090","-0.037499","6192","6581","6741","6122","6448","6583","5734","5843","5888","5639","5543","5501","5251","4551","4289",""
"MA200-0416","19525","55","1","1.10","1.4","2023-05-03T17:34:00","120","2023/05/03","17:34:00","-15.809026896953583","35.01234166510403","1.7","18","30","64","31","-24488","364","-6643","15","150","149.61","115.87","33.74","27.79","38.9","12.51","90256","27.38","DUALSPOT-UV-BLUE-GREEN-RED-IR","718014","706870","910624","17.509770","5.114525","0.007792","706896","890664","763886","13.242062","3.890766","-0.003743","805688","897266","814779","11.169817","3.293991","-0.005140","805767","918263","863000","9.050639","2.708590","-0.014271","701382","849079","952907","6.016496","1.636665","-0.018982","4571","5083","5294","4157","4019","3961","3975","3823","3759","3799","3495","3365","3836","3550","3443",""
"MA200-0416","19526","55","1","1.10","1.4","2023-05-03T17:34:30","120","2023/05/03","17:34:30","-15.809522569179535","35.01282416284084","4.3","16","30","64","31","-24530","-1076","-7042","15","150","150.04","115.86","34.18","27.78","38.8","12.49","90268","27.38","DUALSPOT-UV-BLUE-GREEN-RED-IR","714851","705528","909939","17.678018","5.166824","0.003999","703766","888734","762984","13.379669","3.933139","0.004381","803358","896404","814633","11.285295","3.326786","-0.004935","804328","918081","863326","9.142754","2.734226","-0.009587","700031","848473","952655","6.083275","1.653737","-0.036835","8529","8988","9178","8804","9191","9352","8274","7967","7838","7976","7525","7333","8051","6978","6577",""
"MA200-0416","19527","55","1","1.10","1.4","2023-05-03T17:35:00","120","2023/05/03","17:35:00","-15.809399664402008","35.01361466571689","3.3","16","30","64","31","-24864","-1684","-7072","15","150","150.42","116.25","34.17","27.78","38.8","12.47","90292","27.31","DUALSPOT-UV-BLUE-GREEN-RED-IR","704439","700113","906144","18.923722","5.583553","0.008659","695272","883552","760889","14.506072","4.300375","0.009262","794539","891888","812842","12.321795","3.657943","0.008935","794042","911256","859059","10.057872","3.018397","0.007424","693919","844660","950099","6.786739","1.860753","0.000243","62938","71633","75272","71829","79673","82978","74023","80461","83180","78976","83436","85349","84532","84633","84671",""
"MA200-0416","19528","55","1","1.10","1.4","2023-05-03T17:35:30","120","2023/05/03","17:35:30","-15.808752715587616","35.014697497710586","8.0","16","30","64","31","-24376","-2644","-7664","15","150","149.99","116.06","33.93","27.75","38.8","12.46","90296","27.25","DUALSPOT-UV-BLUE-GREEN-RED-IR","704011","700771","907671","19.153560","5.657902","0.006855","694134","883129","760878","14.671520","4.349615","0.001701","793970","892079","813359","12.460225","3.697449","-0.002812","800415","919293","866904","10.168347","3.049534","-0.005316","693888","845075","950731","6.862148","1.879525","-0.037462","11632","12870","13390","10568","10758","10838","9902","9667","9567","9550","9207","9060","9076","7729","7220",""
"MA200-0416","19529","55","1","1.10","1.4","2023-05-03T17:36:00","120","2023/05/03","17:36:00","-15.808921158313751","35.01621299982071","1.7","16","30","64","31","-24592","-1032","-7524","15","150","150.49","116.01","34.48","27.72","38.7","12.40","90256","27.19","DUALSPOT-UV-BLUE-GREEN-RED-IR","701500","698707","905275","19.254108","5.691658","0.008066","697075","887273","764667","14.744664","4.373003","0.006598","796239","895034","816194","12.522192","3.716886","0.005821","796988","915683","863619","10.218695","3.063792","-0.007088","696515","848500","954671","6.896438","1.887854","-0.048762","5090","5750","6026","4674","5028","5177","4434","4679","4783","4354","4148","4060","4129","3374","3090",""
"MA200-0416","19530","55","1","1.10","1.4","2023-05-03T17:36:30","120","2023/05/03","17:36:30","-15.8090318441391","35.01622399687767","0.7","16","30","64","30","-24788","-3068","-6032","15","150","149.51","115.43","34.07","27.69","38.8","12.38","90256","27.13","DUALSPOT-UV-BLUE-GREEN-RED-IR","702710","701496","909671","19.528762","5.764120","-0.009079","693922","884668","762804","14.932424","4.421135","-0.015386","794399","894085","815659","12.668008","3.750920","-0.033390","794962","914202","862452","10.328585","3.089500","-0.040695","695518","847888","954131","6.977749","1.903815","-0.122397","13975","12491","11870","12058","10472","9805","10487","8293","7370","9550","7569","6724","9839","6543","5307",""
"MA200-0416","19531","55","1","1.10","1.4","2023-05-03T17:37:00","120","2023/05/03","17:37:00","-15.809189558029175","35.01611666381359","0.2","17","30","64","31","-24680","-2027","-6372","15","150","149.44","115.29","34.15","27.67","38.8","12.38","90252","27.13","DUALSPOT-UV-BLUE-GREEN-RED-IR","701057","700432","908617","19.672374","5.806637","-0.000046","693375","884526","762868","15.033029","4.448082","-0.010481","792898","892835","814676","12.754314","3.776157","-0.001466","793479","912911","861391","10.394876","3.107875","-0.009713","694439","846821","953048","7.025114","1.916333","-0.024792","7316","7312","7310","6469","5849","5588","6215","6135","6101","5769","5398","5240","5739","5120","4888",""
