"Serial number","Datum ID","Session ID","Data format version","Firmware version","App version","Date / time local","Timezone offset (mins)","Date local (yyyy/MM/dd)","Time local (hh:mm:ss)","GPS lat (ddmm.mmmmm)","GPS long (dddmm.mmmmm)","GPS speed (km/h)","GPS sat count","Timebase (s)","Status","Battery remaining (%)","Accel X","Accel Y","Accel Z","Tape position","Flow setpoint (mL/min)","Flow total (mL/min)","Flow1 (mL/min)","Flow2 (mL/min)","Sample temp (C)","Sample RH (%)","Sample dewpoint (C)","Internal pressure (Pa)","Internal temp (C)","Optical config","UV Sen1","UV Sen2","UV Ref","UV ATN1","UV ATN2","UV K","Blue Sen1","Blue Sen2","Blue Ref","Blue ATN1","Blue ATN2","Blue K","Green Sen1","Green Sen2","Green Ref","Green ATN1","Green ATN2","Green K","Red Sen1","Red Sen2","Red Ref","Red ATN1","Red ATN2","Red K","IR Sen1","IR Sen2","IR Ref","IR ATN1","IR ATN2","IR K","UV BC1","UV BC2","UV BCc","Blue BC1","Blue BC2","Blue BCc","Green BC1","Green BC2","Green BCc","Red BC1","Red BC2","Red BCc","IR BC1","IR BC2","IR BCc","Readable status"
"MA200-0420","23609","55","1","1.10","1.4","2023-05-07T08:08:30","120","2023/05/07","08:08:30","0","0","0.0","11","30","66","82","652","23100","-7088","1","150","150.35","114.51","35.84","24.30","53.4","14.23","0","0.00","DUALSPOT-UV-BLUE-GREEN-RED-IR","809882","711044","907558","0.000000","0.000000","0.000000","907564","907481","840242","0.000000","0.000000","0.000000","886561","882912","834973","0.000000","0.000000","0.000000","895451","878234","886786","0.000000","0.000000","0.000000","781455","899465","966239","0.000000","0.000000","0.000000","","","","","","","","","","","","","","","","Start up"
"MA200-0420","23610","55","1","1.10","1.4","2023-05-07T08:09:00","120","2023/05/07","08:09:00","-15.795617759227753","35.0027366662398","0.2","11","30","66","82","612","23080","-6904","1","150","150.33","115.20","35.14","24.38","53.0","14.18","0","0.00","DUALSPOT-UV-BLUE-GREEN-RED-IR","807093","709225","905569","0.000000","0.000000","0.000000","904123","904515","837755","0.000000","0.000000","0.000000","882731","879472","831930","0.000000","0.000000","0.000000","898676","881670","890488","0.000000","0.000000","0.000000","778817","896775","963447","0.000000","0.000000","0.000000","","","","","","","","","","","","","","","","Start up"
"MA200-0420","23611","55","1","1.10","1.4","2023-05-07T08:09:30","120","2023/05/07","08:09:30","-15.79561197757721","35.00272799958475","0.1","11","30","66","81","540","23008","-6824","1","150","149.82","114.57","35.25","24.44","52.8","14.17","90432","24.25","DUALSPOT-UV-BLUE-GREEN-RED-IR","802864","706208","902025","0.000000","0.000000","0.000000","899796","900683","834373","0.000000","0.000000","0.000000","880632","877789","830521","0.000000","0.000000","0.000000","895792","879188","888150","0.000000","0.000000","0.000000","776893","894869","961494","0.000000","0.000000","0.000000","","","","","","","","","","","","","","","","Start up"
"MA200-0420","23612","55","1","1.10","1.4","2023-05-07T08:10:00","120","2023/05/07","08:10:00","-15.795651853084564","35.002724666148424","0.0","11","30","66","81","192","23032","-6924","1","150","149.44","114.69","34.75","24.50","52.5","14.16","90436","24.31","DUALSPOT-UV-BLUE-GREEN-RED-IR","804830","708629","905427","0.000000","0.000000","0.000000","902277","903732","837389","0.000000","0.000000","0.000000","880575","878207","831105","0.000000","0.000000","0.000000","896671","880404","889512","0.000000","0.000000","0.000000","782121","901181","968397","0.000000","0.000000","0.000000","","","","","","","","","","","","","","","","Start up"
"MA200-0420","23613","55","1","1.10","1.4","2023-05-07T08:10:30","120","2023/05/07","08:10:30","-15.795678675174713","35.002733833156526","0.0","11","30","66","82","200","23092","-7100","1","150","150.15","115.36","34.78","24.56","52.3","14.14","90440","24.44","DUALSPOT-UV-BLUE-GREEN-RED-IR","805127","709574","906957","0.000000","0.000000","0.000000","902540","904567","838375","0.000000","0.000000","0.000000","881094","879213","832217","0.000000","0.000000","0.000000","897215","881325","890631","0.000000","0.000000","0.000000","777490","896149","963058","0.000000","0.000000","0.000000","","","","","","","","","","","","","","","","Start up"
"MA200-0420","23614","55","1","1.10","1.4","2023-05-07T08:11:00","120","2023/05/07","08:11:00","-15.795705497264862","35.00273899966851","0.0","11","30","64","81","136","23056","-6892","1","150","149.76","114.77","34.99","24.60","52.1","14.12","90440","24.50","DUALSPOT-UV-BLUE-GREEN-RED-IR","803860","709158","906755","0.000000","0.000000","0.000000","901790","904401","838430","0.000000","0.000000","0.000000","880774","879410","832538","0.000000","0.000000","0.000000","896663","881171","890609","0.000000","0.000000","0.000000","777367","896326","963357","0.000000","0.000000","0.000000","","","","","","","","","","","","","","","",""
"MA200-0420","23615","55","1","1.10","1.4","2023-05-07T08:11:30","120","2023/05/07","08:11:30","-15.795683681964874","35.002760499715805","0.0","12","30","64","82","176","23092","-6911","1","150","150.15","115.17","34.98","24.66","52.0","14.14","90436","24.56","DUALSPOT-UV-BLUE-GREEN-RED-IR","805467","711285","909775","0.131988","0.033126","0.000000","903636","906842","840873","0.085592","0.021159","0.000000","882185","881292","834502","0.072270","0.017863","0.000000","892390","877360","886940","0.059682","0.016266","0.000000","778883","898375","965704","0.044885","0.011697","0.000000","6731","5562","6731","5509","4484","5509","5210","4239","5210","5199","4665","5199","5444","4671","5444",""
"MA200-0420","23616","55","1","1.10","1.4","2023-05-07T08:12:00","120","2023/05/07","08:12:00","-15.795660555362701","35.00277966633439","0.0","12","30","64","81","168","23072","-7056","1","150","150.21","114.57","35.64","24.71","51.8","14.14","90436","24.63","DUALSPOT-UV-BLUE-GREEN-RED-IR","799862","707537","905477","0.343871","0.085300","0.000000","898324","902387","837009","0.210135","0.050753","0.000000","877352","877145","830777","0.174254","0.042307","0.000000","893162","878716","888435","0.140869","0.033716","0.000000","779519","899506","966975","0.098001","0.021270","0.000000","10862","8598","10862","8058","6155","8058","7390","5694","7390","7109","4912","7109","6476","3752","6476",""
"MA200-0420","23617","55","1","1.10","1.4","2023-05-07T08:12:30","120","2023/05/07","08:12:30","-15.79564917087555","35.00278916629031","0.0","13","30","64","81","141","22975","-6933","1","150","149.67","114.38","35.28","24.76","51.7","14.15","90436","24.69","DUALSPOT-UV-BLUE-GREEN-RED-IR","797997","706744","904874","0.519437","0.131242","0.000000","896768","901577","836463","0.323349","0.080030","0.000000","876428","876868","830690","0.272250","0.066196","0.000000","893378","879434","889345","0.219321","0.054412","0.000000","779387","899724","967331","0.150434","0.033893","0.000000","9015","7647","9015","7337","6151","7337","7112","5621","7112","6881","5884","6881","6403","4997","6403",""
"MA200-0420","23618","55","1","1.10","1.4","2023-05-07T08:13:00","120","2023/05/07","08:13:00","-15.795645534992218","35.002796499757096","0.0","13","30","64","81","158","23125","-6875","1","150","150.54","114.93","35.61","24.82","51.5","14.15","90436","24.75","DUALSPOT-UV-BLUE-GREEN-RED-IR","800164","709432","908680","0.666215","0.168760","0.000000","899215","904771","839648","0.425922","0.105607","0.000000","877908","878934","832874","0.358998","0.087797","0.000000","896382","882878","892990","0.292700","0.072772","0.000000","776324","896549","964039","0.202568","0.045019","0.000000","7501","6188","7501","6616","5324","6616","6266","5036","6266","6405","5173","6405","6336","4364","6336",""
"MA200-0420","23619","55","1","1.10","1.4","2023-05-07T08:13:30","120","2023/05/07","08:13:30","-15.79563182592392","35.00280233263038","0.0","13","30","64","81","184","23056","-6511","1","150","149.67","114.55","35.12","24.86","51.4","14.16","90440","24.81","DUALSPOT-UV-BLUE-GREEN-RED-IR","800565","710612","910513","0.817477","0.207120","0.000000","900399","906625","841587","0.527250","0.130426","0.000000","877885","879465","833547","0.447589","0.109255","0.000000","895931","882885","893148","0.363779","0.090715","0.000000","776176","896685","964302","0.250892","0.056632","0.000000","7755","6415","7755","6557","5239","6557","6420","5072","6420","6225","5125","6225","5893","4619","5893",""
"MA200-0420","23620","55","1","1.10","1.4","2023-05-07T08:14:00","120","2023/05/07","08:14:00","-15.79563969373703","35.00280349957757","0.0","13","30","64","81","116","23108","-6932","1","150","149.76","114.38","35.38","24.90","51.3","14.15","90436","24.81","DUALSPOT-UV-BLUE-GREEN-RED-IR","799717","710651","910938","0.974870","0.250228","0.000000","899767","906641","841830","0.625193","0.156879","0.000000","877544","879679","833926","0.530046","0.130432","0.000000","889217","876691","887024","0.429153","0.107816","0.000000","776453","897326","965087","0.296588","0.066670","0.000000","8082","7156","8082","6348","5542","6348","5985","4969","5985","5734","4849","5734","5581","3963","5581",""
"MA200-0420","23621","55","1","1.10","1.4","2023-05-07T08:14:30","120","2023/05/07","08:14:30","-15.795637726783752","35.00279266643338","0.0","13","30","64","81","107","23028","-6843","1","150","149.77","114.40","35.37","24.94","51.2","14.16","90436","24.88","DUALSPOT-UV-BLUE-GREEN-RED-IR","794335","706614","906074","1.113980","0.285589","0.000000","893799","901231","836963","0.714474","0.178301","0.000000","872943","875566","830157","0.605917","0.149649","0.000000","889968","877826","888349","0.492072","0.122725","0.000000","776634","897833","965692","0.339460","0.075363","0.000000","7141","5872","7141","5785","4490","5785","5505","4510","5505","5517","4229","5517","5234","3433","5234",""
"MA200-0420","23622","55","1","1.10","1.4","2023-05-07T08:15:00","120","2023/05/07","08:15:00","-15.795628547668457","35.00279016653076","0.0","13","30","64","81","166","23037","-7008","1","150","146.10","114.18","31.92","25.00","51.1","14.17","90436","24.94","DUALSPOT-UV-BLUE-GREEN-RED-IR","792679","705811","905360","1.247174","0.319286","0.000000","892421","900370","836371","0.799763","0.199902","0.000000","872089","875171","829927","0.678086","0.166440","0.000000","889442","877702","888327","0.550383","0.137479","0.000000","776251","897668","965615","0.379056","0.085289","0.000000","6851","6199","6851","5537","5016","5537","5247","4366","5247","5123","4636","5123","4844","4343","4844",""
"MA200-0420","23623","55","1","1.10","1.4","2023-05-07T08:15:30","120","2023/05/07","08:15:30","-15.795636534690857","35.002789832884446","0.0","13","30","64","81","100","22991","-6737","1","150","150.15","114.88","35.27","25.03","51.0","14.17","90440","24.94","DUALSPOT-UV-BLUE-GREEN-RED-IR","794430","707996","908456","1.371003","0.352916","0.000000","895371","903871","839775","0.877815","0.220286","0.000000","873765","877267","832061","0.743276","0.182998","0.000000","892270","880801","891585","0.603514","0.152283","0.000000","778127","900081","968317","0.415023","0.093354","0.000000","6331","5601","6331","5036","4285","5036","4711","3898","4711","4640","4211","4640","4373","3194","4373",""
"MA200-0420","23624","55","1","1.10","1.4","2023-05-07T08:16:00","120","2023/05/07","08:16:00","-15.795635879039764","35.00279683317058","0.0","13","30","64","81","128","23112","-7047","1","150","149.44","114.45","34.98","25.08","50.9","14.20","0","0.00","DUALSPOT-UV-BLUE-GREEN-RED-IR","793970","708298","909133","1.499136","0.384336","0.000000","894766","903883","839937","0.960660","0.240224","0.000000","874030","878060","832942","0.812953","0.200086","0.000000","892596","881554","892476","0.659370","0.164833","0.000000","773450","894972","962867","0.451519","0.101139","0.000000","6575","5275","6575","5365","4225","5365","5054","4055","5054","4896","3599","4896","4454","3108","4454",""
"MA200-0420","23625","55","1","1.10","1.4","2023-05-07T08:16:30","120","2023/05/07","08:16:30","-15.795639038085938","35.002784833079204","0.0","13","30","64","81","162","23116","-6954","1","150","149.89","114.84","35.05","25.13","50.8","14.20","0","0.00","DUALSPOT-UV-BLUE-GREEN-RED-IR","792270","707340","908219","1.614356","0.414392","0.000000","893388","902899","839204","1.034712","0.258731","0.000000","872263","876648","831731","0.876379","0.214940","0.000000","891100","880419","891406","0.709870","0.176395","0.000000","772600","894201","962101","0.488151","0.108565","0.000000","5892","5036","5892","4780","3914","4780","4585","3518","4585","4411","3309","4411","4456","2959","4456",""
"MA200-0420","23626","55","1","1.10","1.4","2023-05-07T08:17:00","120","2023/05/07","08:17:00","-15.795648515224457","35.002773666288704","0.1","13","30","64","81","132","23036","-6992","1","150","149.47","114.80","34.67","25.16","50.7","14.20","90436","25.06","DUALSPOT-UV-BLUE-GREEN-RED-IR","788875","704913","905326","1.725017","0.442129","0.000000","890001","899987","836613","1.103389","0.274753","0.000000","874337","879115","834167","0.932508","0.228381","0.000000","886970","876578","887627","0.755799","0.188899","0.000000","774083","896145","964262","0.519399","0.116171","0.000000","5661","4698","5661","4434","3425","4434","4059","3218","4059","4013","3618","4013","3802","3064","3802",""
"MA200-0420","23627","55","1","1.10","1.4","2023-05-07T08:17:30","120","2023/05/07","08:17:30","-15.795697808265686","35.0027909995988","0.0","13","30","64","81","-544","23016","-7196","1","150","149.69","114.18","35.51","25.20","50.6","14.22","90440","25.13","DUALSPOT-UV-BLUE-GREEN-RED-IR","788647","705671","906691","1.869739","0.478494","0.000000","890262","901009","837762","1.189464","0.294613","0.000000","870438","875807","831200","1.005131","0.244742","0.000000","887723","877781","889009","0.811703","0.201406","0.000000","774908","897392","965718","0.554643","0.123368","0.000000","7444","6014","7444","5588","4145","5588","5280","3824","5280","4912","3533","4912","4312","2831","4312",""
"MA200-0420","23628","55","1","1.10","1.4","2023-05-07T08:18:00","120","2023/05/07","08:18:00","-15.795637011528015","35.00286083295941","2.2","13","30","64","81","-650","23429","-4470","1","150","149.95","114.61","35.34","25.25","50.6","14.27","90440","25.13","DUALSPOT-UV-BLUE-GREEN-RED-IR","788506","706186","907601","2.028595","0.516187","0.000000","890842","902113","838955","1.287752","0.316047","0.000000","869615","875401","830945","1.086461","0.262611","0.000000","888441","878876","890188","0.874459","0.215012","0.000000","775059","897795","966187","0.594358","0.130230","0.000000","8141","6264","8141","6357","4496","6357","5891","4198","5891","5493","3862","5493","4840","2712","4840",""
"MA200-0420","23629","55","1","1.10","1.4","2023-05-07T08:18:30","120","2023/05/07","08:18:30","-15.795988202095032","35.00286633265205","0.8","13","30","64","81","-1084","23200","-5636","1","150","149.69","114.22","35.47","25.29","50.6","14.31","90444","25.19","DUALSPOT-UV-BLUE-GREEN-RED-IR","788874","707257","909310","2.160443","0.548828","0.000000","891261","903138","840055","1.365578","0.332427","0.000000","871386","877665","833206","1.150721","0.275278","0.000000","889200","879979","891412","0.923869","0.224901","0.000000","776076","899234","967819","0.628614","0.137518","0.000000","6780","5404","6780","5051","3422","5051","4670","2964","4670","4340","2796","4340","4189","2869","4189",""
"MA200-0420","23630","55","1","1.10","1.4","2023-05-07T08:19:00","120","2023/05/07","08:19:00","-15.796061635017395","35.002861166140065","0.2","13","30","64","80","228","23404","-5404","1","150","149.56","114.89","34.67","25.34","50.6","14.36","90444","25.25","DUALSPOT-UV-BLUE-GREEN-RED-IR","787505","706613","908694","2.274998","0.576263","0.000000","890199","902589","839672","1.442587","0.350618","0.000000","869496","876206","831929","1.215523","0.289958","0.000000","887967","879117","890638","0.977656","0.236748","0.000000","774579","897765","966322","0.665489","0.144537","0.000000","5856","4647","5856","4969","3889","4969","4682","3515","4682","4696","3427","4696","4483","2828","4483",""
"MA200-0420","23631","55","1","1.10","1.4","2023-05-07T08:19:30","120","2023/05/07","08:19:30","-15.796183586120605","35.003325833240524","1.9","13","30","64","81","-1784","22448","-6632","1","150","149.69","114.49","35.20","25.37","50.7","14.40","90476","25.25","DUALSPOT-UV-BLUE-GREEN-RED-IR","782858","703219","904688","2.416659","0.612236","0.000000","884187","897207","834870","1.541834","0.373953","0.000000","871832","879182","834930","1.301282","0.308578","0.000000","883819","875499","887124","1.049093","0.253862","0.000000","771567","894597","963010","0.713697","0.154661","0.000000","7267","6003","7267","6426","4914","6426","6218","4392","6218","6259","4878","6259","5881","4017","5881",""
"MA200-0420","23632","55","1","1.10","1.4","2023-05-07T08:20:00","120","2023/05/07","08:20:00","-15.795869529247284","35.00421016570181","0.5","13","30","64","81","-3812","22708","-6879","1","150","150.54","114.97","35.57","25.42","50.5","14.39","90568","25.31","DUALSPOT-UV-BLUE-GREEN-RED-IR","783047","704002","905989","2.541977","0.647264","0.000000","885942","899466","837147","1.624250","0.396746","0.000000","870328","878039","834009","1.371914","0.328230","0.000000","883489","875569","887287","1.106885","0.267693","0.000000","771199","894438","962910","0.753740","0.163874","0.000000","6402","5784","6402","5314","4750","5314","5100","4586","5100","5043","3901","5043","4865","3618","4865",""
"MA200-0420","23633","55","1","1.10","1.4","2023-05-07T08:20:30","120","2023/05/07","08:20:30","-15.794018387794495","35.004234165884554","12.8","13","30","64","81","-1476","23676","-5760","1","150","150.67","114.81","35.86","25.45","50.5","14.41","90652","25.31","DUALSPOT-UV-BLUE-GREEN-RED-IR","782040","704275","906880","2.723328","0.693740","0.000000","885480","900087","838051","1.748585","0.426739","0.000000","870091","878731","834926","1.476240","0.352829","0.000000","883411","876175","888165","1.188635","0.289573","0.000000","771169","894937","963580","0.808883","0.176054","0.000000","9277","7612","9277","8028","6200","8028","7544","5695","7544","7143","6121","7143","6709","4744","6709",""
"MA200-0420","23634","55","1","1.10","1.4","2023-05-07T08:21:00","120","2023/05/07","08:21:00","-15.790845572948456","35.00431599933654","11.9","13","30","64","80","244","23016","-6452","1","150","150.08","114.57","35.51","25.49","50.2","14.35","90440","25.31","DUALSPOT-UV-BLUE-GREEN-RED-IR","778230","702275","904910","3.026838","0.769899","-0.113259","881642","897448","836064","1.967608","0.484275","0.000000","867937","877630","834235","1.664805","0.401931","0.000000","880549","874217","886536","1.343670","0.329250","0.000000","769744","893907","962723","0.915479","0.202048","0.000000","15559","12597","11587","14171","12012","14171","13664","11480","13664","13575","11210","13575","12996","10226","12996",""
"MA200-0420","23635","55","1","1.10","1.4","2023-05-07T08:21:30","120","2023/05/07","08:21:30","-15.789641380310059","35.00457999948412","0.0","13","30","64","80","-1057","23420","-3491","1","150","149.60","114.34","35.26","25.52","49.9","14.30","90416","25.31","DUALSPOT-UV-BLUE-GREEN-RED-IR","778438","703144","906369","3.173344","0.810653","-0.047684","882280","898657","837381","2.063053","0.512135","0.000000","868591","878762","835484","1.747876","0.425201","0.000000","882166","876212","888698","1.410170","0.347758","0.000000","770328","894848","963840","0.962598","0.214091","0.000000","7525","6789","6536","6188","5857","6188","6031","5479","6031","5834","5266","5834","5756","4771","5756",""
"MA200-0420","23636","55","1","1.10","1.4","2023-05-07T08:22:00","120","2023/05/07","08:22:00","-15.789126932621002","35.004786333069205","4.4","13","30","64","80","-2464","23172","-6008","1","150","149.96","114.67","35.29","25.54","49.7","14.26","90396","25.31","DUALSPOT-UV-BLUE-GREEN-RED-IR","777993","703460","907117","3.302850","0.843433","-0.094809","881347","898344","837264","2.145552","0.530958","0.000000","866884","877542","834483","1.815086","0.440901","0.000000","881423","875867","888437","1.463678","0.360115","0.000000","769812","894546","963591","0.997953","0.221409","0.000000","6633","5455","5051","5333","3954","5333","4866","3693","4866","4681","3512","4681","4307","2896","4307",""
"MA200-0420","23637","55","1","1.10","1.4","2023-05-07T08:22:30","120","2023/05/07","08:22:30","-15.787189662456512","35.00513666588813","10.4","13","30","64","80","-491","22895","-6137","1","150","149.93","114.92","35.02","25.58","49.5","14.24","90352","25.31","DUALSPOT-UV-BLUE-GREEN-RED-IR","775347","702391","906350","3.551736","0.907827","-0.071574","880194","898402","837655","2.322542","0.573921","0.000000","865746","877449","834678","1.967549","0.476443","0.000000","881112","876403","889235","1.586645","0.388873","0.000000","769232","894449","963677","1.081808","0.240557","0.000000","12721","10801","10142","11417","9095","11417","11014","8427","11014","10735","8239","10735","10193","7639","10193",""
"MA200-0420","23638","55","1","1.10","1.4","2023-05-07T08:23:00","120","2023/05/07","08:23:00","-15.785669207572937","35.00535416509956","6.1","13","30","64","80","1175","23362","-5937","1","150","149.50","114.65","34.85","25.60","49.3","14.19","90268","25.31","DUALSPOT-UV-BLUE-GREEN-RED-IR","771211","701977","907328","3.855218","0.986433","-0.064283","876465","897881","838269","2.542150","0.630450","0.000000","863575","877865","835986","2.150482","0.523507","0.000000","877410","874805","888374","1.731240","0.425636","0.000000","766927","893281","962963","1.180893","0.263638","0.000000","15547","13249","12459","14199","12026","14199","13246","11213","13246","12652","10584","12652","12072","9252","12072",""
"MA200-0420","23639","55","1","1.10","1.4","2023-05-07T08:23:30","120","2023/05/07","08:23:30","-15.784818291664124","35.00610349839553","9.0","13","30","64","80","-1724","23248","-5256","1","150","149.84","114.86","34.98","25.61","49.2","14.16","90244","25.31","DUALSPOT-UV-BLUE-GREEN-RED-IR","762863","699896","907259","4.820196","1.243391","-0.042264","868998","895915","838310","3.295296","0.828087","-0.068748","855610","874570","834411","2.806819","0.694709","0.000000","871839","873113","888044","2.273753","0.567555","0.000000","763564","892080","962705","1.553148","0.361792","0.000000","49347","43149","40995","48610","41888","39632","47442","40636","47442","47388","40707","47388","45275","39201","45275",""
"MA200-0420","23640","55","1","1.10","1.4","2023-05-07T08:24:00","120","2023/05/07","08:24:00","-15.785882830619812","35.00836149882525","9.3","14","30","64","80","-1756","23088","-5208","1","150","149.67","114.47","35.20","25.63","49.1","14.14","90360","25.31","DUALSPOT-UV-BLUE-GREEN-RED-IR","757366","698098","906377","5.910362","1.531881","-0.039247","864106","894006","837597","4.161674","1.053512","-0.062375","847106","868833","829962","3.581715","0.894725","-0.076085","869259","873204","889065","2.923780","0.734129","0.000000","762045","892133","963423","1.999393","0.474768","0.000000","55939","48136","45406","56109","47473","44546","56203","47173","44166","56973","47474","56973","54459","44833","54459",""
"MA200-0420","23641","55","1","1.10","1.4","2023-05-07T08:24:30","120","2023/05/07","08:24:30","-15.78680008649826","35.011052996851504","12.9","14","30","64","80","-1562","23400","-5387","1","150","149.81","114.18","35.63","25.65","48.9","14.11","90308","25.31","DUALSPOT-UV-BLUE-GREEN-RED-IR","746074","694600","905299","7.259256","1.902866","-0.026382","853037","890030","836418","5.282098","1.353144","-0.045044","842169","870315","833640","4.584146","1.162153","-0.052605","859106","868557","886398","3.773429","0.960313","-0.065016","755808","888895","961499","2.601225","0.635387","0.000000","69390","61160","58237","72746","62346","58764","72890","62318","58728","74658","63693","59950","73633","62978","73633",""
"MA200-0420","23642","55","1","1.10","1.4","2023-05-07T08:25:00","120","2023/05/07","08:25:00","-15.787640810012817","35.01382016483694","7.8","14","30","64","80","3707","22860","-9956","1","150","150.30","114.86","35.43","25.66","48.9","14.12","90436","25.31","DUALSPOT-UV-BLUE-GREEN-RED-IR","746276","696082","907760","7.510921","1.966434","-0.043310","853720","891986","838634","5.474424","1.399904","-0.072691","842654","871940","835516","4.755557","1.201832","-0.105466","860713","871099","889260","3.916347","0.992480","-0.144975","756544","890451","963404","2.702188","0.658419","0.000000","12868","10537","9710","12412","9782","8879","12389","9297","8251","12483","9108","7962","12279","9080","12279",""
"MA200-0420","23643","55","1","1.10","1.4","2023-05-07T08:25:30","120","2023/05/07","08:25:30","-15.785660207271576","35.01673883013427","15.0","14","30","64","80","312","23224","-5716","1","150","150.07","114.35","35.72","25.67","48.9","14.11","90200","25.31","DUALSPOT-UV-BLUE-GREEN-RED-IR","740144","693135","905291","8.092460","2.124893","-0.025900","847201","888055","835914","5.940098","1.523333","-0.043096","837248","868802","833424","5.167723","1.310783","-0.050245","855621","868054","886921","4.263838","1.083175","-0.066366","753552","888441","961783","2.946619","0.718588","0.000000","29870","26053","24694","30189","25614","24036","29924","25320","23756","30487","25471","23763","29860","23529","29860",""
"MA200-0420","23644","55","1","1.10","1.4","2023-05-07T08:26:00","120","2023/05/07","08:26:00","-15.785443186759949","35.02121716178954","17.2","14","30","64","80","-1260","23396","-7456","1","150","150.21","115.38","34.84","25.68","48.8","14.10","90072","25.31","DUALSPOT-UV-BLUE-GREEN-RED-IR","740392","694337","907307","8.282097","2.175506","-0.022556","847775","889592","837637","6.076169","1.558101","-0.042909","838169","870548","835298","5.286205","1.340061","-0.060815","856741","869855","888940","4.359340","1.104857","-0.114189","753953","889364","962909","3.011327","0.733778","-0.138470","9653","8533","8134","8742","7398","6934","8525","6977","6451","8304","6243","5544","7834","6090","5529",""
"MA200-0420","23645","55","1","1.10","1.4","2023-05-07T08:26:30","120","2023/05/07","08:26:30","-15.784335255622864","35.023523496463895","11.9","14","30","64","80","-3305","22800","-6697","1","150","150.15","115.05","35.10","25.67","48.8","14.10","90168","25.31","DUALSPOT-UV-BLUE-GREEN-RED-IR","736187","693331","907441","8.868431","2.332098","-0.022948","844721","889400","838480","6.541753","1.678574","-0.039248","834370","869261","834952","5.697605","1.445048","-0.049251","852957","868220","888049","4.705101","1.192715","-0.061311","751743","888379","962407","3.251648","0.791578","-0.119468","29934","26203","24872","30000","25444","23871","29688","24833","23183","30152","25112","23401","29180","23004","21016",""
"MA200-0420","23646","55","1","1.10","1.4","2023-05-07T08:27:00","120","2023/05/07","08:27:00","-15.785524189472198","35.026404328644276","9.6","14","30","64","80","-2712","22964","-5856","1","150","149.89","114.77","35.12","25.67","48.7","14.06","90148","25.31","DUALSPOT-UV-BLUE-GREEN-RED-IR","734634","692793","907169","9.043346","2.380035","-0.018230","842599","888030","837477","6.668544","1.712649","-0.029342","833534","869132","835034","5.805308","1.472532","-0.049264","852603","868421","888486","4.791150","1.214737","-0.058560","751337","888280","962452","3.308263","0.805460","-0.107583","8951","8018","7684","8189","7193","6849","7791","6497","6058","7522","6291","5874","6891","5522","5082",""
"MA200-0420","23647","55","1","1.10","1.4","2023-05-07T08:27:30","120","2023/05/07","08:27:30","-15.786495208740234","35.028846165165305","9.6","14","30","64","80","-2412","23056","-5812","1","150","149.71","114.44","35.27","25.67","48.6","14.04","90020","25.31","DUALSPOT-UV-BLUE-GREEN-RED-IR","732256","691791","906453","9.286493","2.444067","-0.026490","840419","886851","836769","6.840211","1.756751","-0.042170","831695","868137","834440","5.954124","1.510405","-0.051132","851263","867870","888155","4.911278","1.243645","-0.084575","750780","888121","962444","3.385587","0.823986","-0.123115","12479","10663","10015","11120","9270","8630","10795","8915","8276","10531","8223","7440","9438","7337","6661",""
"MA200-0420","23648","55","1","1.10","1.4","2023-05-07T08:28:00","120","2023/05/07","08:28:00","-15.78637444972992","35.03070333041251","9.7","14","30","64","80","-2360","23352","-4756","1","150","149.69","114.85","34.84","25.68","48.5","14.00","89924","25.25","DUALSPOT-UV-BLUE-GREEN-RED-IR","731181","691238","905996","9.401125","2.476028","-0.013128","840456","887324","837333","6.918061","1.777577","-0.027340","831392","868185","834580","6.021494","1.528555","-0.029322","850992","867869","888257","4.965525","1.257150","-0.063653","750582","888122","962493","3.422159","0.832187","-0.153604","5862","5388","5218","5025","4431","4225","4870","4324","4139","4738","3888","3600","4448","3288","2915",""
"MA200-0420","23649","55","1","1.10","1.4","2023-05-07T08:28:30","120","2023/05/07","08:28:30","-15.78659301996231","35.033051162958145","7.4","14","30","64","79","-9854","21587","-4712","1","150","149.62","114.64","34.98","25.68","48.4","13.97","89780","25.25","DUALSPOT-UV-BLUE-GREEN-RED-IR","731177","691544","906528","9.462893","2.492899","-0.017570","840296","887375","837475","6.956732","1.787704","-0.033940","830914","867906","834390","6.053365","1.536250","-0.064200","849749","866756","887158","4.992565","1.263994","-0.059267","754519","892881","967715","3.437723","0.835328","-0.235671","3164","2832","2713","2500","2145","2023","2308","1826","1662","2366","1962","1826","1896","1254","1047",""
"MA200-0420","23650","55","1","1.10","1.4","2023-05-07T08:29:00","120","2023/05/07","08:29:00","-15.787185370922089","35.0350408218801","5.9","14","30","64","80","-7543","22408","-1876","1","150","150.28","114.72","35.57","25.68","48.3","13.96","89628","25.25","DUALSPOT-UV-BLUE-GREEN-RED-IR","730664","691471","906629","9.532745","2.511314","-0.026760","839824","887295","837481","7.005882","1.798284","-0.099720","830399","867692","834278","6.093892","1.544296","-0.152494","849667","866972","887467","5.024904","1.269583","-0.289090","754587","893146","968053","3.458776","0.838867","-0.441742","3576","3041","2849","3176","2205","1869","2933","1878","1520","2828","1576","1153","2563","1390","1014",""
"MA200-0420","23651","55","1","1.10","1.4","2023-05-07T08:29:30","120","2023/05/07","08:29:30","-15.787171185016632","35.03519182652235","1.6","14","30","64","80","-2920","23516","-1583","1","150","149.81","114.80","35.01","25.68","48.4","13.98","89632","25.25","DUALSPOT-UV-BLUE-GREEN-RED-IR","729588","691049","906328","9.655909","2.542120","-0.033431","838240","886177","836609","7.094240","1.817393","-0.090476","830149","867952","834646","6.173113","1.561194","-0.109014","849618","867340","887933","5.088069","1.282615","-0.149730","749939","887935","962454","3.498787","0.847422","-0.186052","6301","5168","4763","5705","4046","3475","5729","4007","3424","5520","3734","3133","4868","3414","2949",""
"MA200-0420","23652","55","1","1.10","1.4","2023-05-07T08:30:00","120","2023/05/07","08:30:00","-15.787136018276215","35.03520115837455","0.0","14","30","64","80","-5820","22745","-3066","1","150","150.15","114.89","35.26","25.68","48.6","14.05","89632","25.31","DUALSPOT-UV-BLUE-GREEN-RED-IR","728648","691062","906678","9.810713","2.575439","-0.069367","838112","886895","837421","7.203960","1.836663","-0.187095","829068","867517","834350","6.266058","1.577341","-0.220287","848797","867074","887772","5.163764","1.295028","-0.318080","754211","893354","968409","3.546011","0.854812","-0.514047","7914","5550","4709","7079","4051","3015","6716","3802","2821","6610","3531","2501","5742","2927","2034",""
"MA200-0420","23653","55","1","1.10","1.4","2023-05-07T08:30:30","120","2023/05/07","08:30:30","-15.787133514881134","35.03520465642214","0.1","14","30","64","80","-5736","22844","-3132","1","150","149.95","114.77","35.18","25.68","48.7","14.08","89632","25.31","DUALSPOT-UV-BLUE-GREEN-RED-IR","728849","691589","907490","9.891348","2.596027","-0.029607","838548","887692","838292","7.259589","1.849532","-0.067599","829072","867786","834672","6.313643","1.586968","-0.131827","848601","867100","887870","5.204539","1.302815","-0.194346","749657","888111","962748","3.571554","0.858962","-0.454690","4126","3437","3191","3593","2711","2410","3442","2271","1878","3564","2220","1771","3109","1647","1184",""
"MA200-0420","23654","55","1","1.10","1.4","2023-05-07T08:31:00","120","2023/05/07","08:31:00","-15.787140786647797","35.03519365936518","0.0","14","30","64","80","-5784","22884","-3100","1","150","149.65","114.67","34.98","25.69","48.8","14.11","89632","25.31","DUALSPOT-UV-BLUE-GREEN-RED-IR","727911","691009","906982","9.956938","2.616718","0.004444","837811","887182","837922","7.302963","1.861375","-0.022437","829139","868083","835054","6.350194","1.596415","-0.040343","849599","868307","889182","5.233977","1.310346","-0.052391","749458","888026","962716","3.591352","0.864402","-0.041811","3359","3474","3515","2804","2509","2409","2646","2242","2106","2575","2160","2021","2411","2172","2097",""
"MA200-0420","23655","55","1","1.10","1.4","2023-05-07T08:31:30","120","2023/05/07","08:31:30","-15.787147343158722","35.035182159394026","0.1","15","30","64","79","-5833","22808","-2870","1","150","150.28","114.38","35.90","25.71","48.8","14.13","89632","25.31","DUALSPOT-UV-BLUE-GREEN-RED-IR","728299","691849","908294","10.044392","2.641931","-0.012356","837828","887626","838472","7.365237","1.878541","-0.026501","828749","868052","835134","6.404618","1.610750","-0.042699","849418","868457","889440","5.279124","1.322029","-0.057893","749788","888599","963393","3.621368","0.871057","-0.173995","4490","4125","3994","4035","3544","3376","3950","3315","3101","3959","3265","3032","3665","2589","2248",""
"MA200-0420","23656","55","1","1.10","1.4","2023-05-07T08:32:00","120","2023/05/07","08:32:00","-15.787144124507904","35.03518749028444","0.0","14","30","64","79","-5836","22780","-2992","1","150","150.49","114.84","35.65","25.72","48.9","14.16","89628","25.38","DUALSPOT-UV-BLUE-GREEN-RED-IR","727361","691368","907872","10.130871","2.666425","-0.013311","837679","887882","838814","7.426487","1.893961","-0.045766","823119","862474","829928","6.457004","1.624465","-0.040978","848689","867990","889051","5.322993","1.332358","-0.089258","749089","887982","962785","3.652345","0.877701","-0.187747","4423","4035","3897","3953","3206","2950","3787","3194","2994","3832","2907","2598","3768","2603","2235",""
"MA200-0420","23657","55","1","1.10","1.4","2023-05-07T08:32:30","120","2023/05/07","08:32:30","-15.787137806415558","35.03519516065717","0.0","15","30","64","80","-5776","22856","-3044","1","150","149.38","114.22","35.16","25.74","49.0","14.20","89628","25.38","DUALSPOT-UV-BLUE-GREEN-RED-IR","727386","691753","908562","10.205700","2.688766","-0.004177","837738","888273","839304","7.477933","1.907074","-0.040137","822654","862259","829789","6.502348","1.635212","-0.068246","848538","868048","889191","5.359086","1.342199","-0.033550","749301","888440","963335","3.676483","0.883271","-0.133737","3848","3732","3690","3339","2764","2568","3295","2537","2282","3170","2808","2687","2952","2212","1979",""
"MA200-0420","23658","55","1","1.10","1.4","2023-05-07T08:33:00","120","2023/05/07","08:33:00","-15.787135004997253","35.03519465774298","0.0","16","30","64","79","-5820","22804","-3124","1","150","149.52","114.37","35.16","25.75","49.0","14.23","89624","25.38","DUALSPOT-UV-BLUE-GREEN-RED-IR","727520","692172","909319","10.272034","2.708778","-0.002526","838389","889209","840288","7.521664","1.920169","-0.004792","822907","862764","830358","6.539881","1.645076","-0.036756","849185","868897","890129","5.389482","1.349135","-0.097206","749382","888638","963624","3.697212","0.887899","-0.152282","3406","3343","3320","2834","2761","2736","2724","2329","2196","2666","1979","1749","2531","1838","1619",""
"MA200-0420","23659","55","1","1.10","1.4","2023-05-07T08:33:30","120","2023/05/07","08:33:30","-15.787135183811188","35.03518482670188","0.0","16","30","64","79","-5762","22788","-2951","1","150","149.69","114.65","35.04","25.77","49.0","14.25","89628","25.44","DUALSPOT-UV-BLUE-GREEN-RED-IR","726416","691431","908504","10.334522","2.726677","-0.009020","836790","887749","839032","7.560704","1.930635","-0.026108","827996","868340","835782","6.573097","1.653880","-0.032803","847340","867185","888438","5.415713","1.355974","-0.045000","748392","887590","962521","3.716104","0.893510","-0.010342","3201","3000","2928","2524","2214","2108","2405","2085","1978","2295","1958","1845","2301","2237","2216",""
"MA200-0420","23660","55","1","1.10","1.4","2023-05-07T08:34:00","120","2023/05/07","08:34:00","-15.787140667438507","35.03517482802272","0.0","16","30","64","79","-5741","22891","-2825","1","150","150.36","114.96","35.40","25.78","49.0","14.25","89628","25.44","DUALSPOT-UV-BLUE-GREEN-RED-IR","727516","692759","910426","10.396782","2.745363","-0.003435","838258","889567","840819","7.600274","1.941585","-0.020750","823855","864156","831854","6.605710","1.662785","-0.027020","844447","864380","885623","5.443138","1.363693","-0.023840","750783","890552","965757","3.731708","0.895422","-1.021317","3181","3100","3071","2551","2292","2204","2355","2088","1998","2393","2187","2118","1896","754","394",""
"MA200-0420","23661","55","1","1.10","1.4","2023-05-07T08:34:30","120","2023/05/07","08:34:30","-15.787139475345612","35.03516449034214","0.0","16","30","64","79","-5776","22952","-2976","1","150","149.84","114.67","35.17","25.80","48.9","14.25","89624","25.44","DUALSPOT-UV-BLUE-GREEN-RED-IR","726744","692317","910031","10.457170","2.766439","0.015112","830861","881913","833732","7.637072","1.953601","0.010486","822587","863048","830862","6.636467","1.671850","-0.008260","848486","868686","890102","5.468145","1.371888","0.015359","748783","888309","963366","3.751262","0.902042","0.032060","3093","3520","3673","2379","2533","2586","2226","2140","2111","2187","2338","2388","2382","2629","2707",""
"MA200-0420","23662","55","1","1.10","1.4","2023-05-07T08:35:00","120","2023/05/07","08:35:00","-15.787151038646698","35.03516682609916","0.0","16","30","64","79","-5824","22724","-3064","1","150","150.08","114.73","35.35","25.82","48.8","14.24","89624","25.50","DUALSPOT-UV-BLUE-GREEN-RED-IR","722125","688235","904793","10.517891","2.783954","-0.009036","831922","883330","835144","7.676529","1.964515","-0.020769","824659","865417","833203","6.668643","1.681423","-0.007240","844411","864651","886046","5.492444","1.378314","-0.042526","750610","890591","965883","3.769098","0.905054","-0.389450","3108","2910","2838","2549","2288","2198","2328","2248","2221","2124","1823","1722","2171","1190","879",""
"MA200-0420","23663","55","1","1.10","1.4","2023-05-07T08:35:30","120","2023/05/07","08:35:30","-15.787154138088226","35.035173658281565","0.0","15","30","64","79","-5762","22841","-2945","1","150","149.63","114.97","34.66","25.84","48.7","14.23","89624","25.50","DUALSPOT-UV-BLUE-GREEN-RED-IR","722034","688410","905201","10.577005","2.802360","0.004044","832698","884362","836170","7.711620","1.972627","-0.059147","824042","864944","832818","6.697745","1.689553","-0.016226","850965","871504","893121","5.516738","1.384116","-0.069538","750404","890469","965789","3.784153","0.908740","-0.086769","3020","3119","3155","2262","1735","1553","2101","1947","1895","2119","1679","1532","1829","1485","1377",""
"MA200-0420","23664","55","1","1.10","1.4","2023-05-07T08:36:00","120","2023/05/07","08:36:00","-15.787153601646423","35.03517082706094","0.0","15","30","64","79","-5733","22775","-3066","1","150","149.50","114.65","34.85","25.87","48.7","14.22","89624","25.50","DUALSPOT-UV-BLUE-GREEN-RED-IR","720292","687052","903597","10.638325","2.818882","-0.017166","830598","882417","834429","7.751441","1.983857","-0.013855","822734","863779","831751","6.730772","1.695978","-0.137760","843497","864071","885536","5.543015","1.389589","-0.130670","749876","889935","965244","3.801902","0.911726","-0.374386","3141","2784","2656","2574","2389","2325","2391","1530","1240","2299","1575","1333","2162","1197","892",""
"MA200-0420","23665","55","1","1.10","1.4","2023-05-07T08:36:30","120","2023/05/07","08:36:30","-15.787151992321014","35.035170659422874","0.0","15","30","64","79","-5779","22933","-2958","1","150","150.54","115.01","35.53","25.90","48.6","14.23","89624","25.56","DUALSPOT-UV-BLUE-GREEN-RED-IR","722608","689625","907114","10.703905","2.837083","-0.014987","833000","885269","837208","7.792248","1.994538","-0.033156","824370","865751","833735","6.765547","1.704567","-0.054127","845500","866310","887907","5.571000","1.398275","0.001128","751225","891701","967207","3.821575","0.916406","-0.113407","3349","3008","2886","2630","2228","2090","2510","2006","1837","2441","2452","2456","2389","1840","1667",""
"MA200-0420","23666","55","1","1.10","1.4","2023-05-07T08:37:00","120","2023/05/07","08:37:00","-15.787143349647522","35.035170659422874","0.1","15","30","64","79","-5800","22800","-2991","1","150","149.38","114.49","34.88","25.94","48.6","14.27","89624","25.56","DUALSPOT-UV-BLUE-GREEN-RED-IR","722219","689651","907340","10.780348","2.857912","-0.015582","832971","885557","837591","7.843416","2.006608","-0.055524","824552","866240","834256","6.806303","1.713168","-0.102396","845727","866749","888445","5.605230","1.404604","-0.196879","751197","891852","967404","3.845182","0.920336","-0.384141","3921","3507","3357","3313","2565","2307","2955","2047","1741","2999","1820","1425","2880","1573","1162",""
"MA200-0420","23667","55","1","1.10","1.4","2023-05-07T08:37:30","120","2023/05/07","08:37:30","-15.787144005298615","35.03516682609916","0.0","15","30","64","79","-5858","22787","-2829","1","150","149.44","114.18","35.26","25.95","48.6","14.27","89624","25.56","DUALSPOT-UV-BLUE-GREEN-RED-IR","721898","689703","907672","10.860834","2.882846","0.000400","833439","886382","838445","7.895029","2.021378","-0.013849","825056","867049","835173","6.853736","1.727050","-0.010965","845457","866731","888507","5.641938","1.414086","-0.049477","751018","891772","967396","3.871881","0.927191","-0.073553","4140","4153","4158","3351","3105","3020","3449","3268","3207","3225","2698","2521","3266","2715","2542",""
"MA200-0420","23668","55","1","1.10","1.4","2023-05-07T08:38:00","120","2023/05/07","08:38:00","-15.787148296833038","35.03516515344381","0.0","15","30","64","78","-5708","22891","-3004","1","150","149.69","114.57","35.12","25.95","48.5","14.26","89624","25.63","DUALSPOT-UV-BLUE-GREEN-RED-IR","720833","689077","906987","10.936228","2.903074","-0.018697","832349","885549","837813","7.945217","2.033692","-0.046113","823654","865851","834078","6.895566","1.738250","-0.029518","844516","865986","887789","5.677583","1.423166","-0.051274","750396","891230","966856","3.894945","0.931626","-0.246547","3865","3383","3208","3247","2599","2376","3031","2647","2518","3121","2593","2417","2812","1764","1434",""
"MA200-0420","23669","55","1","1.10","1.4","2023-05-07T08:38:30","120","2023/05/07","08:38:30","-15.78715568780899","35.03516649082303","0.0","15","30","64","79","-5780","22868","-3136","1","150","150.15","114.61","35.53","25.95","48.5","14.25","89628","25.63","DUALSPOT-UV-BLUE-GREEN-RED-IR","722251","690778","909414","11.009115","2.924478","-0.007040","834245","887887","840104","7.993931","2.046322","-0.035291","824348","866830","835122","6.935143","1.746887","-0.094478","846044","867773","889679","5.708953","1.430988","-0.061953","751403","892566","968345","3.917818","0.937665","-0.061830","3735","3537","3466","3150","2635","2457","2866","2017","1732","2746","2208","2028","2787","2374","2244",""
"MA200-0420","23670","55","1","1.10","1.4","2023-05-07T08:39:00","120","2023/05/07","08:39:00","-15.787154853343964","35.03515448793769","0.0","15","30","64","79","-5792","22800","-2920","1","150","149.96","114.56","35.40","25.96","48.5","14.27","89624","25.63","DUALSPOT-UV-BLUE-GREEN-RED-IR","722071","690939","909819","11.078403","2.943575","-0.015604","833929","887849","840162","8.035582","2.056765","-0.042303","819139","861629","830176","6.972767","1.756489","-0.043533","846333","868262","890263","5.739481","1.437967","-0.092709","746959","887439","962807","3.938051","0.941519","-0.258306","3552","3168","3028","2695","2186","2011","2726","2251","2091","2673","1977","1745","2467","1520","1223",""
"MA200-0420","23671","55","1","1.10","1.4","2023-05-07T08:39:30","120","2023/05/07","08:39:30","-15.787149846553802","35.035148326307535","0.1","15","30","64","79","-5756","22872","-3036","1","150","149.74","114.67","35.06","25.96","48.5","14.26","89628","25.69","DUALSPOT-UV-BLUE-GREEN-RED-IR","721811","690968","910046","11.143171","2.964883","0.008423","833999","888131","840587","8.078248","2.070706","0.010464","819775","862478","831078","7.005220","1.766622","0.003924","846523","868566","890675","5.765741","1.446816","0.020812","746968","887540","962985","3.956918","0.945258","-0.217417","3317","3569","3660","2758","2947","3012","2349","2399","2416","2297","2532","2610","2298","1489","1235",""
"MA200-0420","23672","55","1","1.10","1.4","2023-05-07T08:40:00","120","2023/05/07","08:40:00","-15.787148177623749","35.03516649082303","0.0","15","30","64","79","-5756","22760","-2960","1","150","150.21","114.30","35.92","25.96","48.4","14.25","89628","25.69","DUALSPOT-UV-BLUE-GREEN-RED-IR","722394","691874","911451","11.207922","2.982935","-0.016209","828697","882746","835540","8.115618","2.079456","-0.064245","819613","862520","831168","7.039461","1.774859","-0.064858","847119","869386","891543","5.791267","1.452806","-0.088172","747323","888124","963627","3.974323","0.948427","-0.310479","3327","2952","2815","2423","1806","1593","2487","1904","1707","2240","1673","1483","2127","1232","952",""
"MA200-0420","23673","55","1","1.10","1.4","2023-05-07T08:40:30","120","2023/05/07","08:40:30","-15.787140488624573","35.035167161375284","0.0","15","30","64","78","-5804","22884","-3084","1","150","149.77","114.44","35.33","26.01","48.4","14.26","89628","25.75","DUALSPOT-UV-BLUE-GREEN-RED-IR","716450","686440","904410","11.267101","3.001106","-0.000657","828047","882271","835174","8.151513","2.089971","-0.009066","820355","863494","832175","7.068321","1.781803","-0.059191","848293","870754","893001","5.815471","1.459077","-0.046977","748014","889040","964669","3.990846","0.952527","-0.087043","3037","3020","3014","2325","2206","2165","2093","1631","1476","2121","1780","1666","2016","1621","1496",""
"MA200-0420","23674","55","1","1.10","1.4","2023-05-07T08:41:00","120","2023/05/07","08:41:00","-15.7871373295784","35.03516548871994","0.0","15","30","64","78","-5736","22916","-3160","1","150","149.76","114.85","34.91","26.04","48.4","14.29","89632","25.75","DUALSPOT-UV-BLUE-GREEN-RED-IR","714841","685189","902886","11.323214","3.015434","-0.024605","826335","880698","833765","8.187011","2.098399","-0.050930","819798","863058","831820","7.096185","1.788384","-0.059856","840219","862604","884687","5.838349","1.464970","-0.043806","746999","887950","963520","4.006885","0.955890","-0.171377","2869","2410","2244","2291","1789","1617","2014","1565","1413","1998","1693","1591","1950","1346","1156",""
"MA200-0420","23675","55","1","1.10","1.4","2023-05-07T08:41:30","120","2023/05/07","08:41:30","-15.787140250205994","35.03517499938607","0.0","15","30","64","79","-5783","22795","-2891","1","150","149.50","114.49","35.00","26.06","48.4","14.32","89632","25.81","DUALSPOT-UV-BLUE-GREEN-RED-IR","717151","687675","906323","11.380667","3.033622","0.004055","828857","883622","836567","8.220669","2.106845","-0.038616","820671","864221","832971","7.125545","1.795047","-0.073712","842364","864951","887138","5.860881","1.469775","-0.115526","748411","889738","965481","4.021110","0.958903","-0.168221","2947","3051","3089","2179","1788","1654","2128","1580","1395","1974","1377","1177","1735","1202","1035",""
"MA200-0420","23676","55","1","1.10","1.4","2023-05-07T08:42:00","120","2023/05/07","08:42:00","-15.787147760391235","35.03518549352884","0.0","15","30","64","78","-5776","22860","-2944","1","150","150.67","114.85","35.82","26.09","48.4","14.36","89632","25.75","DUALSPOT-UV-BLUE-GREEN-RED-IR","716945","687757","906579","11.436106","3.047872","-0.027571","829532","884576","837538","8.254375","2.112889","-0.161425","820379","864072","832883","7.152566","1.800549","-0.121008","841727","864453","886669","5.882138","1.473835","-0.182110","748063","889468","965184","4.035568","0.960354","-2.001771","2835","2336","2155","2175","1250","932","1953","1275","1047","1856","1137","896","1758","566","193",""
"MA200-0420","23677","55","1","1.10","1.4","2023-05-07T08:42:30","120","2023/05/07","08:42:30","-15.787147462368011","35.035186160355806","0.0","15","30","64","78","-5800","22891","-3050","1","150","149.89","114.69","35.19","26.10","48.5","14.39","89628","25.81","DUALSPOT-UV-BLUE-GREEN-RED-IR","715167","686461","905092","11.509325","3.069135","-0.006858","827191","882447","835657","8.303191","2.126634","-0.015013","819050","862972","831935","7.193322","1.811039","-0.038183","840901","863902","886188","5.915456","1.481733","-0.073656","747452","888920","964665","4.058790","0.965306","-0.164513","3749","3548","3475","3155","2895","2805","2950","2474","2314","2914","2251","2030","2828","1965","1696",""
"MA200-0420","23678","55","1","1.10","1.4","2023-05-07T08:43:00","120","2023/05/07","08:43:00","-15.787144124507904","35.035188157111406","0.1","15","30","64","78","-5754","22816","-2904","1","150","150.15","114.76","35.39","26.12","48.5","14.41","89632","25.81","DUALSPOT-UV-BLUE-GREEN-RED-IR","716793","688455","907957","11.604639","3.095892","-0.012015","829932","885779","838957","8.370127","2.144974","-0.021075","820527","864858","833874","7.251369","1.826489","-0.030897","841888","865160","887602","5.963689","1.494255","-0.044853","748264","890109","966033","4.094043","0.973743","-0.101627","4878","4440","4281","4324","3841","3675","4199","3624","3430","4216","3549","3326","4291","3330","3030",""
"MA200-0420","23679","55","1","1.10","1.4","2023-05-07T08:43:30","120","2023/05/07","08:43:30","-15.787139296531677","35.03517482802272","0.0","15","30","64","78","-5700","22980","-3020","1","150","149.69","114.45","35.24","26.15","48.5","14.45","89636","25.88","DUALSPOT-UV-BLUE-GREEN-RED-IR","716753","688806","908622","11.687288","3.121641","0.001374","829241","885368","838694","8.425088","2.160435","-0.015569","821038","865712","834795","7.299219","1.838564","-0.043493","843289","866826","889385","6.002994","1.504602","-0.039942","748865","890985","967046","4.122823","0.980315","-0.124323","4241","4292","4310","3559","3252","3147","3471","2845","2634","3445","2946","2779","3512","2605","2322",""
"MA200-0420","23680","55","1","1.10","1.4","2023-05-07T08:44:00","120","2023/05/07","08:44:00","-15.787131130695343","35.035176660865545","0.1","15","30","64","78","-5641","22883","-2937","1","150","149.56","114.61","34.95","26.17","48.6","14.48","89636","25.88","DUALSPOT-UV-BLUE-GREEN-RED-IR","716724","689149","909280","11.761375","3.142446","-0.010280","830048","886561","839918","8.473661","2.171891","-0.051695","820266","865150","834343","7.340679","1.848781","-0.046992","842680","866453","889084","6.036881","1.512393","-0.080927","748406","890596","966692","4.145580","0.985439","-0.126003","3796","3496","3387","3141","2430","2184","3003","2426","2232","2966","2236","1992","2773","2048","1821",""
"MA200-0420","23681","55","1","1.10","1.4","2023-05-07T08:44:30","120","2023/05/07","08:44:30","-15.787126362323761","35.0351734906435","0.1","15","30","64","78","-5596","22868","-2996","1","150","150.00","114.18","35.82","26.19","48.7","14.53","89636","25.88","DUALSPOT-UV-BLUE-GREEN-RED-IR","716489","689412","909883","11.851923","3.168560","-0.010440","829332","886179","839673","8.527556","2.185833","-0.036190","820985","866219","835478","7.384678","1.859623","-0.054425","843629","867687","890407","6.072340","1.521298","-0.059720","749170","891706","967925","4.168104","0.990201","-0.179299","4657","4282","4145","3499","2885","2674","3199","2513","2282","3115","2494","2286","2755","1857","1577",""
"MA200-0420","23682","55","1","1.10","1.4","2023-05-07T08:45:00","120","2023/05/07","08:45:00","-15.787131011486053","35.03516299277544","0.1","15","30","64","78","-5741","22870","-3033","1","150","149.63","114.30","35.33","26.21","48.8","14.57","89636","25.94","DUALSPOT-UV-BLUE-GREEN-RED-IR","716325","689611","910334","11.932945","3.193075","-0.002489","830026","887187","840741","8.574586","2.197998","-0.032780","816554","861771","831259","7.424231","1.869339","-0.050945","844289","868507","891322","6.101670","1.527745","-0.102780","749499","892236","968541","4.190778","0.995389","-0.123217","4163","4075","4043","3050","2552","2381","2873","2283","2084","2574","1830","1582","2771","2051","1827",""
"MA200-0420","23683","55","1","1.10","1.4","2023-05-07T08:45:30","120","2023/05/07","08:45:30","-15.7871213555336","35.03516682609916","0.0","15","30","64","78","-5629","22833","-3054","1","150","149.40","114.36","35.04","26.24","48.7","14.58","89640","25.94","DUALSPOT-UV-BLUE-GREEN-RED-IR","711477","685220","904737","11.996647","3.213092","0.002811","824107","881125","835089","8.614788","2.210056","-0.003395","816609","862031","831597","7.456212","1.878351","-0.016133","844282","868662","891564","6.128717","1.536089","0.001465","749604","892464","968855","4.209703","0.999130","-0.206836","3271","3355","3385","2606","2551","2532","2321","2135","2072","2372","2388","2394","2311","1491","1235",""
"MA200-0420","23684","55","1","1.10","1.4","2023-05-07T08:46:00","120","2023/05/07","08:46:00","-15.787107706069946","35.0351803265512","0.0","15","30","64","78","-5736","22840","-3164","1","150","149.89","114.18","35.71","26.26","48.7","14.61","89640","25.94","DUALSPOT-UV-BLUE-GREEN-RED-IR","711359","685553","905387","12.077225","3.233947","-0.025504","824531","881961","836012","8.668240","2.222871","-0.052777","817264","863077","832676","7.501999","1.887995","-0.103179","844180","868891","891841","6.165178","1.542304","-0.250209","744983","887215","963180","4.234522","1.003375","-0.345250","4145","3430","3169","3470","2660","2381","3329","2242","1876","3203","1746","1260","3036","1660","1233",""
"MA200-0420","23685","55","1","1.10","1.4","2023-05-07T08:46:30","120","2023/05/07","08:46:30","-15.787112951278687","35.03517432510853","0.1","14","30","64","78","-5740","22808","-3004","1","150","150.58","114.86","35.72","26.27","48.7","14.61","89640","26.00","DUALSPOT-UV-BLUE-GREEN-RED-IR","711298","685879","906046","12.163004","3.259220","-0.006388","824197","881940","836102","8.724912","2.236735","-0.046152","816823","862912","832611","7.552995","1.901924","-0.025746","845259","870191","893285","6.206565","1.553635","-0.030641","745040","887468","963487","4.263170","1.009352","-0.177872","4386","4155","4070","3657","2876","2607","3686","3237","3086","3615","3182","3037","3484","2337","1981",""
"MA200-0420","23686","55","1","1.10","1.4","2023-05-07T08:47:00","120","2023/05/07","08:47:00","-15.787114083766937","35.0351734906435","0.0","14","30","64","78","-5760","22736","-2876","1","150","149.95","114.38","35.58","26.31","48.6","14.61","89640","26.00","DUALSPOT-UV-BLUE-GREEN-RED-IR","711148","686057","906453","12.232397","3.280941","0.000700","824293","882321","836546","8.767619","2.250081","0.000706","816972","863249","833022","7.586172","1.911222","-0.020097","839064","864016","886992","6.235745","1.561883","-0.022249","745460","888090","964239","4.284076","1.015890","0.001616","3563","3586","3594","2768","2780","2785","2408","2169","2089","2559","2325","2247","2553","2567","2571",""
"MA200-0420","23687","55","1","1.10","1.4","2023-05-07T08:47:30","120","2023/05/07","08:47:30","-15.787110149860382","35.035173162817955","0.0","14","30","64","78","-5675","22858","-3183","1","150","150.15","114.89","35.26","26.33","48.6","14.62","89644","26.06","DUALSPOT-UV-BLUE-GREEN-RED-IR","711042","686266","906906","12.299105","3.301757","0.001831","825195","883525","837796","8.809400","2.263081","0.002081","816580","863081","832941","7.622133","1.920825","-0.027573","838953","864062","887100","6.263169","1.569336","-0.028765","745287","887957","964154","4.303478","1.020393","-0.109052","3410","3467","3488","2695","2733","2746","2598","2261","2147","2394","2120","2029","2359","1784","1605",""
"MA200-0420","23688","55","1","1.10","1.4","2023-05-07T08:48:00","120","2023/05/07","08:48:00","-15.787102937698364","35.035175159573555","0.0","14","30","64","78","-5760","22792","-2812","1","150","149.76","114.41","35.34","26.35","48.6","14.64","89644","26.06","DUALSPOT-UV-BLUE-GREEN-RED-IR","711671","687208","908327","12.366405","3.320713","-0.011084","826113","884791","839079","8.850230","2.271801","-0.080209","816943","863695","833590","7.654616","1.928395","-0.063830","839173","864451","887569","6.289239","1.574636","-0.133301","745441","888292","964549","4.320581","1.023345","-0.317339","3454","3150","3038","2645","1829","1547","2357","1778","1583","2286","1504","1243","2088","1166","880",""
"MA200-0420","23689","55","1","1.10","1.4","2023-05-07T08:48:30","120","2023/05/07","08:48:30","-15.787103593349457","35.035182658582926","0.0","14","30","64","78","-5624","22808","-3184","1","150","149.44","114.14","35.30","26.37","48.5","14.62","89648","26.06","DUALSPOT-UV-BLUE-GREEN-RED-IR","710066","685970","906870","12.433027","3.341903","0.003016","823680","882434","836937","8.890338","2.284425","0.002627","817064","863999","833976","7.688666","1.939594","0.010187","838528","863954","887122","6.315606","1.583081","0.007189","745129","888039","964314","4.338249","1.027292","-0.131764","3428","3526","3561","2604","2651","2667","2476","2634","2687","2317","2400","2427","2162","1562","1375",""
"MA200-0420","23690","55","1","1.10","1.4","2023-05-07T08:49:00","120","2023/05/07","08:49:00","-15.787111103534698","35.035201493650675","0.0","14","30","64","78","-5764","22808","-2860","1","150","150.15","114.63","35.52","26.39","48.4","14.62","89644","26.13","DUALSPOT-UV-BLUE-GREEN-RED-IR","711556","687679","909307","12.490896","3.359989","0.000943","826232","885344","839800","8.924439","2.294665","-0.004848","813158","860029","830204","7.716338","1.946455","-0.047259","841004","866627","889935","6.337085","1.588283","-0.064841","746878","890247","966730","4.353365","1.030140","-0.242135","2965","2991","3000","2205","2137","2113","2004","1603","1468","1879","1469","1332","1842","1120","896",""
"MA200-0420","23691","55","1","1.10","1.4","2023-05-07T08:49:30","120","2023/05/07","08:49:30","-15.787129044532776","35.03521982580423","0.1","14","30","64","78","-5712","22883","-2954","1","150","149.95","114.77","35.18","26.41","48.2","14.59","89644","26.13","DUALSPOT-UV-BLUE-GREEN-RED-IR","711987","688382","910417","12.549515","3.378206","0.001480","826611","886002","840507","8.958043","2.304458","-0.007931","813932","861037","831263","7.743860","1.954174","-0.016576","841543","867349","890706","6.359717","1.594955","-0.008476","746860","890339","966842","4.368963","1.033661","-0.120725","2999","3041","3056","2170","2063","2026","1990","1821","1764","1978","1902","1877","1898","1398","1242",""
"MA200-0420","23692","55","1","1.10","1.4","2023-05-07T08:50:00","120","2023/05/07","08:50:00","-15.787135481834412","35.035204995423555","0.0","14","30","64","78","-5812","22791","-3025","1","150","149.50","114.61","34.89","26.45","48.1","14.58","89648","26.19","DUALSPOT-UV-BLUE-GREEN-RED-IR","712014","688690","910971","12.606594","3.394857","-0.004788","826334","885923","840504","8.992362","2.314334","-0.008814","813766","861037","831300","7.770550","1.960909","-0.038136","841689","867640","891061","6.380828","1.601125","-0.008771","747010","890637","967190","4.384443","1.037649","-0.057532","2925","2803","2758","2219","2098","2056","1933","1602","1491","1847","1774","1750","1886","1596","1506",""
"MA200-0420","23693","55","1","1.10","1.4","2023-05-07T08:50:30","120","2023/05/07","08:50:30","-15.787131309509277","35.035187657922506","0.0","14","30","64","77","-5808","22824","-3000","1","150","149.95","114.73","35.22","26.46","48.0","14.56","89652","26.19","DUALSPOT-UV-BLUE-GREEN-RED-IR","711712","688703","911144","12.667551","3.412437","-0.007131","826807","886651","841275","9.029362","2.323204","-0.046352","813752","861233","831572","7.802642","1.968455","-0.058394","841312","867416","890900","6.406032","1.606854","-0.082750","746664","890328","966921","4.402103","1.040587","-0.340471","3120","2931","2862","2390","1866","1685","2322","1778","1595","2204","1631","1440","2150","1165","860",""
"MA200-0420","23694","55","1","1.10","1.4","2023-05-07T08:51:00","120","2023/05/07","08:51:00","-15.787133514881134","35.035175662487745","0.0","14","30","64","78","-5756","22776","-2908","1","150","150.28","114.53","35.74","26.49","47.9","14.56","89656","26.25","DUALSPOT-UV-BLUE-GREEN-RED-IR","706866","684308","905492","12.730076","3.431871","-0.000437","820736","880397","835446","9.068971","2.334481","-0.014767","814248","861958","832340","7.836036","1.977521","-0.026887","842918","869220","892798","6.431647","1.613637","-0.039402","747400","891344","968049","4.420227","1.044562","-0.144154","3206","3193","3188","2563","2338","2260","2420","2105","1999","2243","1903","1790","2210","1553","1350",""
"MA200-0420","23695","55","1","1.10","1.4","2023-05-07T08:51:30","120","2023/05/07","08:51:30","-15.787134885787964","35.03516348823905","0.0","14","30","64","77","-5812","22864","-3028","1","150","150.34","114.57","35.77","26.51","47.8","14.54","89652","26.25","DUALSPOT-UV-BLUE-GREEN-RED-IR","705739","683457","904514","12.786188","3.448858","-0.003388","820041","879845","835011","9.102636","2.344834","-0.002251","813392","861220","831706","7.864285","1.985818","-0.010943","840580","866958","890545","6.455159","1.620384","-0.018746","746270","890063","966710","4.434973","1.048550","-0.047843","2876","2789","2757","2178","2145","2134","2047","1925","1884","2058","1892","1836","1797","1557","1483",""
"MA200-0420","23696","55","1","1.10","1.4","2023-05-07T08:52:00","120","2023/05/07","08:52:00","-15.787131309509277","35.03517282754183","0.0","14","30","64","77","-5692","22940","-3088","1","150","150.60","114.53","36.07","26.52","47.6","14.48","89652","26.25","DUALSPOT-UV-BLUE-GREEN-RED-IR","706890","684836","906524","12.839602","3.467592","0.010498","820922","881007","836179","9.135620","2.357011","0.020625","814659","862726","833209","7.890007","1.995289","0.023407","842896","869460","893171","6.474887","1.626935","0.010466","743034","886319","962678","4.449924","1.052512","-0.058952","2739","3050","3165","2134","2502","2630","1864","2180","2286","1728","1822","1853","1823","1534","1444",""
"MA200-0420","23697","55","1","1.10","1.4","2023-05-07T08:52:30","120","2023/05/07","08:52:30","-15.787129819393158","35.035200994461775","0.1","14","30","64","77","-5762","22866","-3062","1","150","150.15","114.22","35.93","26.54","47.5","14.46","89652","26.25","DUALSPOT-UV-BLUE-GREEN-RED-IR","706750","684920","906749","12.887579","3.480718","-0.016845","821650","881958","837137","9.163223","2.362114","-0.136418","813479","861622","832200","7.913881","1.999962","-0.129151","842204","868866","892623","6.494001","1.631503","-0.072731","746961","891092","967890","4.463356","1.055282","-0.183943","2467","2145","2027","1791","1052","796","1735","1079","858","1678","1275","1140","1642","1077","902",""
"MA200-0420","23698","55","1","1.10","1.4","2023-05-07T08:53:00","120","2023/05/07","08:53:00","-15.787128329277039","35.035199996083975","0.0","14","30","64","77","-5704","22937","-3275","1","150","149.95","114.38","35.58","26.55","47.4","14.46","89652","26.25","DUALSPOT-UV-BLUE-GREEN-RED-IR","706214","684680","906544","12.939939","3.492439","-0.048170","821161","881669","836934","9.196555","2.369934","-0.053809","813212","861518","832137","7.939908","2.005577","-0.087527","836029","862654","886265","6.514533","1.634356","-0.433649","742626","886012","962376","4.476707","1.056914","-0.864731","2688","1935","1656","2160","1629","1445","1889","1310","1114","1800","804","470","1630","640","334",""
"MA200-0420","23699","55","1","1.10","1.4","2023-05-07T08:53:30","120","2023/05/07","08:53:30","-15.787232756614685","35.03515715524554","0.1","14","30","64","77","-7824","22440","-2788","1","150","149.69","114.38","35.32","26.57","47.4","14.48","89656","26.31","DUALSPOT-UV-BLUE-GREEN-RED-IR","706255","684963","907072","12.992668","3.509885","0.006875","821538","882277","837596","9.226751","2.377629","-0.033345","814450","862981","833587","7.964600","2.010941","-0.082489","836721","863473","887131","6.533350","1.639488","-0.028274","742976","886542","962998","4.490530","1.059646","-0.198234","2707","2901","2973","1957","1615","1496","1792","1261","1081","1650","1457","1393","1688","1080","893",""
"MA200-0420","23700","55","1","1.10","1.4","2023-05-07T08:54:00","120","2023/05/07","08:54:00","-15.787007629871368","35.034605491906404","6.5","14","30","64","77","-8083","22183","-2925","1","150","149.63","114.49","35.13","26.60","47.3","14.46","89684","26.31","DUALSPOT-UV-BLUE-GREEN-RED-IR","706678","685613","908093","13.045132","3.526666","0.004210","822158","883145","838460","9.257722","2.387178","0.000690","813892","862568","833246","7.990054","2.018541","-0.004692","837005","863883","887618","6.552247","1.644975","-0.011790","743271","886975","963475","4.503076","1.062327","-0.146464","2691","2805","2847","2005","2014","2018","1845","1795","1779","1655","1567","1537","1530","1065","922",""
"MA200-0420","23701","55","1","1.10","1.4","2023-05-07T08:54:30","120","2023/05/07","08:54:30","-15.786671996116638","35.03359616175294","0.8","14","30","64","77","-5224","22944","-3816","1","150","150.08","114.67","35.40","26.61","47.1","14.40","89760","26.31","DUALSPOT-UV-BLUE-GREEN-RED-IR","705937","685166","907608","13.097822","3.544277","0.007763","821454","882558","838011","9.288702","2.397841","0.014431","813843","862662","833444","8.016247","2.028709","0.031975","837613","864671","888482","6.574561","1.652116","0.007084","743567","887439","964038","4.519846","1.065888","-0.152815","2698","2921","3004","2002","2232","2312","1896","2384","2549","1952","2023","2047","2042","1405","1208",""
"MA200-0420","23702","55","1","1.10","1.4","2023-05-07T08:55:00","120","2023/05/07","08:55:00","-15.787389099597931","35.035570822656155","9.5","14","30","64","77","-5704","22580","-3416","1","150","149.60","114.51","35.09","26.62","46.9","14.34","89600","26.31","DUALSPOT-UV-BLUE-GREEN-RED-IR","707121","686549","909611","13.150402","3.560384","-0.000038","822787","884189","839657","9.321371","2.408248","0.005424","814305","863302","834131","8.042876","2.036023","-0.020066","837092","864243","888081","6.594970","1.658853","0.014155","743002","886856","963442","4.533121","1.070278","0.020682","2697","2696","2695","2114","2198","2227","1930","1730","1662","1788","1925","1972","1619","1747","1787",""
"MA200-0420","23703","55","1","1.10","1.4","2023-05-07T08:55:30","120","2023/05/07","08:55:30","-15.787356615066528","35.03541849181056","5.9","14","30","64","76","-6933","22479","-4029","1","150","149.95","114.22","35.73","26.64","46.8","14.34","89636","26.31","DUALSPOT-UV-BLUE-GREEN-RED-IR","705124","684868","907519","13.203346","3.574514","-0.019116","820340","881776","837417","9.353417","2.414280","-0.123981","813222","862352","833234","8.069864","2.040392","-0.225992","835890","863160","887020","6.616941","1.663128","-0.154099","742220","886050","962570","4.548223","1.072026","-1.031665","2722","2322","2173","2079","1251","963","1961","1015","694","1929","1200","955","1847","683","324",""
"MA200-0420","23704","55","1","1.10","1.4","2023-05-07T08:56:00","120","2023/05/07","08:56:00","-15.78686934709549","35.03428215533495","1.3","14","30","64","77","-8033","22162","-4275","1","150","149.41","114.22","35.19","26.64","46.7","14.29","89716","26.31","DUALSPOT-UV-BLUE-GREEN-RED-IR","705476","685465","908473","13.259665","3.590269","-0.010876","821095","882778","838455","9.386570","2.425831","0.016000","813590","862907","833839","8.096323","2.048391","-0.003160","837633","865071","889029","6.637295","1.668445","-0.038427","743239","887365","964050","4.562834","1.075886","-0.050135","2896","2629","2531","2151","2433","2532","1923","1887","1875","1787","1515","1424","1786","1532","1454",""
"MA200-0420","23705","55","1","1.10","1.4","2023-05-07T08:56:30","120","2023/05/07","08:56:30","-15.786651194095612","35.033498488366604","4.0","14","30","64","77","-7225","22250","-3954","1","150","149.65","114.03","35.62","26.65","46.6","14.28","89768","26.31","DUALSPOT-UV-BLUE-GREEN-RED-IR","706032","686256","909679","13.311964","3.605878","-0.004893","822172","884137","839821","9.418625","2.433508","-0.048746","813437","862905","833890","8.121701","2.055287","-0.025979","836637","864177","888161","6.657945","1.673921","-0.037983","742769","886872","963497","4.574802","1.077401","-0.767105","2693","2573","2529","2084","1597","1428","1847","1607","1525","1816","1542","1450","1466","593","325",""
"MA200-0420","23706","55","1","1.10","1.4","2023-05-07T08:57:00","120","2023/05/07","08:57:00","-15.786512196063995","35.0322669968009","3.8","14","30","64","77","-8645","21883","-4725","1","150","149.76","114.22","35.54","26.66","46.5","14.26","89880","26.31","DUALSPOT-UV-BLUE-GREEN-RED-IR","705439","685954","909388","13.362520","3.619661","-0.015311","821672","883820","839572","9.448596","2.441161","-0.033747","813975","863628","834634","8.147060","2.061444","-0.051139","837897","865616","889637","6.676056","1.676714","-0.308821","743340","887640","964390","4.587597","1.080510","-0.087540","2599","2277","2158","1945","1596","1474","1843","1438","1301","1590","788","519","1564","1222","1116",""
"MA200-0420","23707","55","1","1.10","1.4","2023-05-07T08:57:30","120","2023/05/07","08:57:30","-15.785843908786774","35.03250916674733","3.5","14","30","64","77","-2796","23276","-4084","1","150","150.15","114.50","35.65","26.67","46.5","14.25","89816","26.31","DUALSPOT-UV-BLUE-GREEN-RED-IR","705876","686615","910389","13.413452","3.635400","-0.000769","822365","884736","840497","9.476382","2.447575","-0.056507","813483","863270","834327","8.170325","2.067262","-0.043796","836921","864730","888806","6.694524","1.681885","-0.023248","742950","887292","964006","4.600059","1.081894","-1.148985","2612","2593","2586","1799","1333","1171","1686","1354","1242","1618","1455","1400","1520","542","241",""
"MA200-0420","23708","55","1","1.10","1.4","2023-05-07T08:58:00","120","2023/05/07","08:58:00","-15.786051034927368","35.03364882618189","5.2","14","30","64","77","-3950","23354","-2437","1","150","149.69","113.78","35.91","26.68","46.4","14.23","89716","26.31","DUALSPOT-UV-BLUE-GREEN-RED-IR","705144","686153","909943","13.466461","3.650385","-0.012398","821151","883640","839532","9.507869","2.457153","-0.005371","813412","863352","834482","8.195562","2.073335","-0.056837","837613","865570","889698","6.713742","1.686724","-0.055026","743508","888015","964832","4.612821","1.084278","-0.248131","2736","2451","2344","2051","1977","1951","1841","1404","1256","1694","1352","1237","1566","927","730",""
"MA200-0420","23709","55","1","1.10","1.4","2023-05-07T08:58:30","120","2023/05/07","08:58:30","-15.786407172679901","35.034748159348965","5.3","14","30","64","77","-5545","22879","-2750","1","150","150.15","114.72","35.43","26.69","46.4","14.24","89648","26.31","DUALSPOT-UV-BLUE-GREEN-RED-IR","705236","686523","910572","13.520868","3.664600","-0.019817","822177","884953","840852","9.540244","2.464085","-0.073927","812850","862944","834116","8.221406","2.078914","-0.082090","836875","864940","889082","6.733851","1.690339","-0.187507","742869","887386","964154","4.624840","1.086531","-0.228263","2785","2356","2197","2092","1450","1226","1870","1307","1116","1758","1023","777","1463","888","711",""
"MA200-0420","23710","55","1","1.10","1.4","2023-05-07T08:59:00","120","2023/05/07","08:59:00","-15.786780655384064","35.03577332571149","3.5","14","30","64","76","-2736","23340","-5728","1","150","149.76","114.30","35.46","26.69","46.3","14.23","89608","26.31","DUALSPOT-UV-BLUE-GREEN-RED-IR","704570","686241","910368","13.589024","3.685674","-0.000338","821468","884470","840496","9.578166","2.473938","-0.029298","813378","863700","834930","8.252224","2.085715","-0.076290","836564","864794","888995","6.759334","1.697067","-0.036763","742564","887163","963923","4.641306","1.089316","-0.315729","3502","3490","3486","2459","2059","1920","2238","1592","1373","2236","1903","1791","2012","1097","816",""
"MA200-0420","23711","55","1","1.10","1.4","2023-05-07T08:59:30","120","2023/05/07","08:59:30","-15.78582215309143","35.0360861569643","4.8","14","30","64","77","-6216","23279","-3945","1","150","149.95","114.49","35.46","26.69","46.2","14.19","89612","26.31","DUALSPOT-UV-BLUE-GREEN-RED-IR","703894","685894","910098","13.659430","3.706836","-0.003083","820012","883193","839342","9.620739","2.487230","0.001131","812873","863382","834672","8.285695","2.095735","-0.005646","836841","865227","889491","6.783774","1.703035","-0.057996","742819","887540","964410","4.657861","1.093669","-0.052813","3611","3505","3465","2756","2779","2786","2427","2346","2318","2141","1688","1536","2019","1714","1621",""
"MA200-0420","23712","55","1","1.10","1.4","2023-05-07T09:00:00","120","2023/05/07","09:00:00","-15.78503155708313","35.03529465943575","4.2","14","30","64","76","-8620","22140","-4372","1","150","149.41","113.97","35.43","26.70","46.2","14.18","89664","26.31","DUALSPOT-UV-BLUE-GREEN-RED-IR","703528","685853","910212","13.718998","3.723398","-0.012378","820376","883796","840002","9.653577","2.494740","-0.057398","812355","863006","834409","8.314157","2.102434","-0.057951","836311","864815","889125","6.805278","1.708464","-0.049224","742430","887174","964023","4.672189","1.096298","-0.246648","3069","2745","2624","2135","1571","1374","2073","1569","1399","1892","1537","1417","1756","1036","815",""
"MA200-0420","23713","55","1","1.10","1.4","2023-05-07T09:00:30","120","2023/05/07","09:00:30","-15.784450769424438","35.03502966091037","4.0","14","30","64","76","-5833","22841","-3429","1","150","149.56","114.02","35.54","26.70","46.2","14.17","89704","26.31","DUALSPOT-UV-BLUE-GREEN-RED-IR","702788","685389","909702","13.777002","3.738523","-0.020989","819575","883133","839438","9.687293","2.502208","-0.066042","807155","857627","829251","8.340607","2.109968","-0.015635","836081","864703","889051","6.825582","1.712827","-0.103804","742254","887039","963892","4.683538","1.097813","-0.629163","2988","2499","2317","2192","1557","1336","1925","1759","1703","1786","1231","1045","1390","595","352",""
"MA200-0420","23714","55","1","1.10","1.4","2023-05-07T09:01:00","120","2023/05/07","09:01:00","-15.783894896507263","35.034839160740376","3.4","14","30","64","76","-4940","22600","-8704","1","150","149.65","113.99","35.66","26.71","46.1","14.16","89748","26.25","DUALSPOT-UV-BLUE-GREEN-RED-IR","700927","684403","908917","13.927677","3.784593","-0.002301","817810","882074","838780","9.804153","2.537512","-0.004949","811088","862579","834296","8.443412","2.138924","-0.018238","834911","864099","888690","6.909785","1.737539","-0.013041","741555","886646","963646","4.742443","1.114850","-0.023083","7763","7588","7522","7600","7339","7248","7487","6741","6488","7411","6952","6798","7218","6674","6506",""
"MA200-0420","23715","55","1","1.10","1.4","2023-05-07T09:01:30","120","2023/05/07","09:01:30","-15.78486579656601","35.03380415961146","5.6","14","30","64","76","-6366","23075","-4745","1","150","149.59","114.03","35.56","26.71","46.1","14.17","89712","26.25","DUALSPOT-UV-BLUE-GREEN-RED-IR","700000","683910","908448","14.035379","3.815117","-0.010203","817709","882341","839167","9.883711","2.558237","-0.028901","809638","861363","833253","8.514112","2.156806","-0.039800","833824","863243","887894","6.967462","1.750682","-0.080610","740500","885569","962554","4.778591","1.122765","-0.133393","5547","5041","4852","5172","4320","4023","5147","4174","3844","5074","3708","3249","4428","3109","2704",""
"MA200-0420","23716","55","1","1.10","1.4","2023-05-07T09:02:00","120","2023/05/07","09:02:00","-15.785384178161621","35.03387099131942","2.3","14","30","64","76","-2970","23145","-3441","1","150","149.84","114.44","35.39","26.71","46.1","14.17","89688","26.25","DUALSPOT-UV-BLUE-GREEN-RED-IR","700266","684437","909274","14.088118","3.830629","-0.005110","817994","882883","839736","9.916574","2.566206","-0.041442","809891","861846","833728","8.540395","2.162963","-0.056304","833311","862908","887565","6.987634","1.755390","-0.069718","740819","886066","963103","4.792818","1.125876","-0.129466","2706","2574","2524","2128","1669","1508","1906","1444","1287","1768","1334","1189","1736","1227","1071",""
"MA200-0420","23717","55","1","1.10","1.4","2023-05-07T09:02:30","120","2023/05/07","09:02:30","-15.785708844661713","35.035037990659475","5.4","14","30","64","76","-6283","22883","-2195","1","150","149.59","114.06","35.52","26.72","46.1","14.17","89628","26.25","DUALSPOT-UV-BLUE-GREEN-RED-IR","699376","683819","908620","14.140287","3.846630","-0.001501","817220","882250","839205","9.946939","2.575188","-0.007292","809086","861127","833134","8.565591","2.169931","-0.020600","833363","863058","887807","7.009410","1.762097","-0.002113","740504","885768","962799","4.805641","1.128623","-0.143432","2686","2645","2630","1973","1874","1840","1833","1628","1558","1915","1894","1887","1570","1080","929",""
"MA200-0420","23718","55","1","1.10","1.4","2023-05-07T09:03:00","120","2023/05/07","09:03:00","-15.785726189613342","35.03600116074085","4.7","14","30","64","76","-5384","23092","-1708","1","150","150.28","114.73","35.55","26.72","46.0","14.14","89608","26.31","DUALSPOT-UV-BLUE-GREEN-RED-IR","699737","684459","909652","14.200518","3.863741","-0.009070","817495","882789","839816","9.984906","2.585381","-0.022007","810569","862874","834888","8.596577","2.178174","-0.027157","833365","863226","888035","7.032525","1.767542","-0.067000","740472","885840","962924","4.821131","1.132264","-0.095530","3083","2827","2731","2453","2125","2011","2242","1925","1817","2021","1536","1373","1885","1430","1291",""
"MA200-0420","23719","55","1","1.10","1.4","2023-05-07T09:03:30","120","2023/05/07","09:03:30","-15.78564703464508","35.03663765639067","0.1","14","30","64","76","-6879","22404","-2828","1","150","150.35","114.34","36.01","26.73","46.0","14.16","0","0.00","DUALSPOT-UV-BLUE-GREEN-RED-IR","697140","682474","907275","14.288193","3.888454","-0.011786","814770","880288","837584","10.039218","2.598822","-0.040472","807813","860310","832508","8.640432","2.187854","-0.077326","831764","861834","886686","7.066968","1.774790","-0.112551","739654","885034","962089","4.841890","1.135827","-0.302718","4503","4031","3854","3521","2767","2503","3184","2231","1908","3022","2019","1683","2536","1382","1028",""
"MA200-0420","23720","55","1","1.10","1.4","2023-05-07T09:04:00","120","2023/05/07","09:04:00","-15.785650372505188","35.03663815557957","0.0","14","30","64","76","-6860","22584","-2908","1","150","150.54","114.65","35.89","26.73","46.0","14.16","0","0.00","DUALSPOT-UV-BLUE-GREEN-RED-IR","697290","683895","909856","14.571884","3.971809","-0.006310","815715","882316","839862","10.204882","2.643245","-0.023490","809021","862404","834822","8.774820","2.224421","-0.024176","832888","863605","888746","7.166520","1.800584","-0.041675","740383","886305","963621","4.902826","1.151729","-0.056610","14533","13643","13309","10711","9177","8640","9731","8460","8028","8711","7211","6708","7424","6190","5811",""
"MA200-0420","23721","55","1","1.10","1.4","2023-05-07T09:04:30","120","2023/05/07","09:04:30","-15.785659909248352","35.03663815557957","0.2","14","30","64","76","-24836","3084","-1752","1","150","150.07","114.68","35.39","26.75","46.0","14.15","89616","26.31","DUALSPOT-UV-BLUE-GREEN-RED-IR","695706","682784","908632","14.642864","3.992376","-0.006258","814275","881125","838840","10.252830","2.657431","-0.005754","807125","860681","833251","8.815505","2.235204","-0.026465","831299","862222","887368","7.200308","1.809858","-0.024060","739409","885276","962599","4.924564","1.157782","-0.029733","3635","3413","3330","3099","2971","2926","2945","2529","2388","2955","2629","2519","2647","2389","2309",""
"MA200-0420","23722","55","1","1.10","1.4","2023-05-07T09:05:00","120","2023/05/07","09:05:00","-15.785640716552734","35.03663299232721","0.1","14","30","64","76","-13026","19750","230","1","150","149.95","114.22","35.73","26.75","46.0","14.16","89620","26.38","DUALSPOT-UV-BLUE-GREEN-RED-IR","690772","682286","910517","15.567673","4.273330","-0.002671","812503","881891","840412","10.657495","2.756100","-0.039755","805951","861508","834647","9.128510","2.305978","-0.064608","831084","863574","889189","7.431365","1.857286","-0.113937","739242","886077","963690","5.061044","1.185108","-0.175309","47558","46180","45659","26264","20469","18448","22751","16443","14311","20295","13316","10990","16692","10682","8844",""
"MA200-0420","23723","55","1","1.10","1.4","2023-05-07T09:05:30","120","2023/05/07","09:05:30","-15.785642266273499","35.03663332760334","0.1","14","30","64","76","-12825","19887","383","1","150","150.71","114.86","35.85","26.76","46.2","14.24","89620","26.38","DUALSPOT-UV-BLUE-GREEN-RED-IR","683844","677221","904706","15.883446","4.363861","-0.007966","805860","875954","835171","10.829536","2.797687","-0.040352","801645","857923","831492","9.267276","2.337467","-0.062036","831722","865000","890845","7.535570","1.879749","-0.093037","740127","887580","965478","5.123684","1.198386","-0.140642","16148","14832","14334","11104","8599","7727","10030","7292","6368","9102","6286","5350","7618","5174","4427",""
"MA200-0420","23724","55","1","1.10","1.4","2023-05-07T09:06:00","120","2023/05/07","09:06:00","-15.785628080368042","35.036645490676165","0.1","14","30","64","76","-12664","19968","-36","1","150","149.41","114.18","35.23","26.78","46.5","14.35","89616","26.44","DUALSPOT-UV-BLUE-GREEN-RED-IR","682502","677340","905605","16.233017","4.462353","-0.008378","805540","876587","836064","11.001971","2.840495","-0.032496","800977","857928","831697","9.396320","2.367663","-0.050769","831313","865132","891177","7.625805","1.899063","-0.090316","739859","887576","965554","5.172533","1.208137","-0.165068","17982","16421","15830","11195","9008","8247","9383","7116","6352","7928","5500","4695","5976","3866","3223",""
"MA200-0420","23725","55","1","1.10","1.4","2023-05-07T09:06:30","120","2023/05/07","09:06:30","-15.78563004732132","35.03665582463145","0.0","14","30","64","75","-12741","19941","337","1","150","150.21","114.30","35.92","26.79","46.7","14.45","89620","26.50","DUALSPOT-UV-BLUE-GREEN-RED-IR","678454","675891","905068","16.655939","4.584911","-0.007218","802750","875221","835314","11.209409","2.892786","-0.032426","799147","857236","831383","9.550928","2.403837","-0.054253","830233","864859","891122","7.732260","1.922027","-0.092586","739222","887293","965362","5.230919","1.220002","-0.163355","21733","20043","19401","13454","10793","9867","11230","8362","7397","9344","6414","5445","7136","4614","3847",""
"MA200-0420","23726","55","1","1.10","1.4","2023-05-07T09:07:00","120","2023/05/07","09:07:00","-15.785632729530334","35.03665965795517","0.0","14","30","64","76","-12662","20020","-54","1","150","149.44","113.86","35.58","26.81","47.0","14.55","89624","26.50","DUALSPOT-UV-BLUE-GREEN-RED-IR","678394","677293","907730","17.065132","4.701221","-0.008339","804392","877990","838255","11.400483","2.940523","-0.032446","799691","858532","832867","9.697867","2.439564","-0.043429","825212","860183","886456","7.834759","1.945623","-0.068774","740187","888785","967080","5.287033","1.230989","-0.179280","21108","19203","18478","12440","9947","9081","10714","8337","7538","9031","6654","5869","6884","4314","3534",""
"MA200-0420","23727","55","1","1.10","1.4","2023-05-07T09:07:30","120","2023/05/07","09:07:30","-15.78553169965744","35.03678281977773","2.4","14","30","64","76","-11060","20644","-2172","1","150","150.28","114.41","35.86","26.83","47.2","14.65","89624","26.56","DUALSPOT-UV-BLUE-GREEN-RED-IR","678545","678097","909181","17.231628","4.750658","-0.004553","804600","878711","839086","11.490545","2.961599","-0.045106","799929","859232","833663","9.768877","2.455091","-0.069356","825735","861021","887457","7.887947","1.958118","-0.063363","740710","889594","967971","5.316910","1.235789","-0.327271","8547","8096","7925","5835","4356","3843","5152","3594","3071","4663","3495","3109","3647","1869","1331",""
"MA200-0420","23728","55","1","1.10","1.4","2023-05-07T09:08:00","120","2023/05/07","09:08:00","-15.784934163093567","35.036883655935526","4.7","14","30","64","76","-10657","21151","-4845","1","150","149.89","114.38","35.51","26.85","47.2","14.65","89656","26.56","DUALSPOT-UV-BLUE-GREEN-RED-IR","678534","678235","909542","17.272610","4.771244","0.026664","804837","879072","839586","11.520323","2.978026","0.044411","800021","859407","833968","9.792570","2.468425","0.053173","826288","861685","888182","7.908359","1.967333","0.047637","736612","884799","962829","5.333578","1.241951","0.037319","2104","3404","3901","1930","3429","3952","1719","3117","3588","1790","2603","2872","2035","2423","2541",""
"MA200-0420","23729","55","1","1.10","1.4","2023-05-07T09:08:30","120","2023/05/07","09:08:30","-15.784469068050385","35.03641915693879","3.4","14","30","64","75","-9084","22012","-6068","1","150","149.56","113.98","35.58","26.87","46.9","14.58","89700","26.56","DUALSPOT-UV-BLUE-GREEN-RED-IR","678585","678507","910156","17.327002","4.792398","0.014642","805191","879691","840286","11.558355","2.993100","0.023083","800840","860476","835080","9.825891","2.481502","0.026060","826814","862414","889049","7.934092","1.977090","0.028016","736767","885092","963235","5.353006","1.247903","-0.004605","2802","3492","3755","2473","3140","3373","2427","3051","3262","2265","2751","2912","2381","2337","2323",""
"MA200-0420","23730","55","1","1.10","1.4","2023-05-07T09:09:00","120","2023/05/07","09:09:00","-15.783909559249878","35.03584732487798","4.0","14","30","64","75","-8720","21300","-6804","1","150","150.08","114.41","35.67","26.89","46.7","14.51","89740","26.56","DUALSPOT-UV-BLUE-GREEN-RED-IR","678650","678848","910759","17.384234","4.813364","0.011216","805350","880067","840747","11.595308","3.005576","0.008689","796274","855740","830594","9.859942","2.493214","0.012326","826846","862557","889269","7.960590","1.986429","0.018635","737256","885788","964042","5.371101","1.253003","-0.026647","2938","3452","3649","2394","2593","2662","2470","2726","2812","2323","2627","2728","2209","1997","1932",""
"MA200-0420","23731","55","1","1.10","1.4","2023-05-07T09:09:30","120","2023/05/07","09:09:30","-15.783594071865082","35.03550499677658","1.1","14","30","64","75","-10836","19964","-8716","1","150","151.58","114.61","36.97","26.91","46.4","14.45","89768","26.63","DUALSPOT-UV-BLUE-GREEN-RED-IR","678016","678332","910181","17.421140","4.826221","0.005725","798370","872612","833696","11.624644","3.015959","0.009994","800086","859989","834794","9.882862","2.500176","-0.008559","825596","861377","888115","7.979873","1.993054","0.010006","735911","884260","962418","5.384992","1.256896","-0.038324","1891","2042","2100","1897","2082","2146","1660","1563","1530","1688","1797","1834","1693","1471","1403",""
"MA200-0420","23732","55","1","1.10","1.4","2023-05-07T09:10:00","120","2023/05/07","09:10:00","-15.783051371574402","35.03573615849018","4.2","14","30","64","75","-8975","21108","-8291","1","150","149.95","114.02","35.93","26.93","46.3","14.44","89804","26.63","DUALSPOT-UV-BLUE-GREEN-RED-IR","674420","674907","905698","17.452070","4.835260","-0.006400","800223","874780","835831","11.648547","3.021133","-0.062884","801082","861165","835966","9.902390","2.504849","-0.047988","827772","863756","890579","7.995005","1.996139","-0.111128","737285","885946","964255","5.396858","1.259127","-0.205528","1593","1477","1433","1554","1067","897","1421","1079","963","1331","861","705","1453","867","689",""
"MA200-0420","23733","55","1","1.10","1.4","2023-05-07T09:10:30","120","2023/05/07","09:10:30","-15.782344400882721","35.03647332638502","3.3","14","30","64","75","-4416","22748","-5440","1","150","149.38","113.90","35.48","26.95","46.1","14.38","89784","26.63","DUALSPOT-UV-BLUE-GREEN-RED-IR","674419","675053","906027","17.494204","4.851532","0.014249","800382","875095","836191","11.671958","3.030085","0.020160","796662","856516","831475","9.921549","2.511382","0.011350","828120","864186","891103","8.011038","2.002690","0.036669","737996","886890","965296","5.406566","1.260787","-0.264439","2172","2694","2894","1523","1870","1992","1396","1528","1573","1412","1852","1999","1190","653","490",""
"MA200-0420","23734","55","1","1.10","1.4","2023-05-07T09:11:00","120","2023/05/07","09:11:00","-15.782163202762604","35.03709948807955","3.5","14","30","64","75","-4650","22808","-4354","1","150","149.47","113.76","35.70","26.96","45.8","14.29","89740","26.63","DUALSPOT-UV-BLUE-GREEN-RED-IR","673870","674905","906062","17.575844","4.878349","0.003450","800168","875148","836361","11.716877","3.045761","0.011214","796399","856498","831591","9.960413","2.524376","0.008076","828263","864501","891476","8.036721","2.011308","0.010492","737935","886940","965414","5.423837","1.265252","-0.055032","4215","4411","4487","2927","3254","3369","2836","3021","3084","2265","2421","2473","2120","1747","1633",""
"MA200-0420","23735","55","1","1.10","1.4","2023-05-07T09:11:30","120","2023/05/07","09:11:30","-15.782679200172424","35.037747491151094","2.7","14","30","64","74","-4220","23100","-5400","1","150","150.07","114.18","35.89","26.98","45.6","14.24","89652","26.63","DUALSPOT-UV-BLUE-GREEN-RED-IR","674395","675587","907095","17.614154","4.890432","0.000256","801050","876242","837477","11.742510","3.053170","-0.010406","796711","856950","832056","9.980293","2.530133","-0.011808","828663","864981","892055","8.053286","2.015671","-0.034242","737568","886598","965051","5.435171","1.268183","-0.055297","1970","1977","1979","1664","1530","1483","1445","1331","1293","1455","1219","1140","1386","1140","1066",""
"MA200-0420","23736","55","1","1.10","1.4","2023-05-07T09:12:00","120","2023/05/07","09:12:00","-15.782656848430634","35.03871965780854","3.1","14","30","64","75","-7579","22266","-2637","1","150","150.15","114.76","35.39","26.99","45.4","14.19","89556","26.63","DUALSPOT-UV-BLUE-GREEN-RED-IR","674185","675607","907234","17.659782","4.905975","0.007165","800707","876074","837389","11.771526","3.060823","-0.020657","796524","856890","832058","10.003538","2.535462","-0.052374","828261","864672","891730","8.066595","2.018032","-0.162033","738130","887336","965889","5.445593","1.270624","-0.084019","2335","2579","2673","1874","1603","1507","1681","1250","1103","1163","669","504","1268","963","870",""
"MA200-0420","23737","55","1","1.10","1.4","2023-05-07T09:12:30","120","2023/05/07","09:12:30","-15.781567811965942","35.03881299495697","3.8","14","30","64","74","-7396","22640","-5316","1","150","147.44","116.78","30.65","27.01","45.3","14.17","89604","26.63","DUALSPOT-UV-BLUE-GREEN-RED-IR","670355","673352","905153","17.961758","4.997534","0.009854","796761","873390","835471","12.008818","3.128439","0.008646","793266","854817","830603","10.211509","2.594173","0.009012","825164","862683","890176","8.239798","2.065583","0.007021","735805","885443","964156","5.564588","1.301252","-0.004649","15187","17545","18453","15062","16353","16808","14784","15902","16283","14879","15564","15793","14234","13959","13875",""
"MA200-0420","23738","55","1","1.10","1.4","2023-05-07T09:13:00","120","2023/05/07","09:13:00","-15.780205845832825","35.03912765905261","5.5","14","30","64","74","-7268","21936","-3876","1","150","150.41","114.65","35.76","27.02","45.1","14.12","89584","26.69","DUALSPOT-UV-BLUE-GREEN-RED-IR","670401","674104","906474","18.117878","5.041078","-0.009463","797334","874574","836824","12.115589","3.159075","-0.010005","794320","856407","832333","10.301541","2.618676","-0.019980","827021","864984","892665","8.312694","2.085005","-0.029030","736199","886208","965044","5.615719","1.312985","-0.093707","7998","7153","6827","6903","6352","6157","6519","5689","5406","6378","5449","5138","6229","4584","4081",""
"MA200-0420","23739","55","1","1.10","1.4","2023-05-07T09:13:30","120","2023/05/07","09:13:30","-15.779175400733948","35.038961827754974","5.8","14","30","64","74","-8566","21658","-5416","1","150","149.38","114.38","35.00","27.05","44.9","14.07","89640","26.69","DUALSPOT-UV-BLUE-GREEN-RED-IR","669710","674219","907128","18.274024","5.085848","-0.005241","796612","874655","837195","12.228273","3.190415","-0.011505","793328","856059","832240","10.399257","2.645290","-0.016642","825402","863875","891761","8.390126","2.107041","-0.012296","736235","886661","965753","5.671074","1.326916","-0.053222","8018","7512","7317","7303","6637","6402","7092","6312","6046","6792","6316","6156","6760","5560","5193",""
"MA200-0420","23740","55","1","1.10","1.4","2023-05-07T09:14:00","120","2023/05/07","09:14:00","-15.778358399868011","35.03823932260275","1.8","14","30","64","74","-8579","21758","-6125","1","150","150.15","114.29","35.86","27.06","44.8","14.02","89716","26.69","DUALSPOT-UV-BLUE-GREEN-RED-IR","666799","672993","906475","18.621784","5.192878","-0.001450","793539","873119","836436","12.510836","3.273182","-0.007887","791627","855864","832670","10.647810","2.715689","-0.014088","824803","864624","893094","8.597342","2.163659","-0.024243","735061","886260","965706","5.816965","1.365758","-0.042390","17871","17533","17402","18327","17112","16681","18055","16300","15700","18190","15842","15052","17831","15132","14304",""
"MA200-0420","23741","55","1","1.10","1.4","2023-05-07T09:14:30","120","2023/05/07","09:14:30","-15.777971684932709","35.03765732049942","1.9","14","30","64","74","-8445","21891","-5320","1","150","150.15","114.14","36.01","27.06","44.7","13.99","89732","26.69","DUALSPOT-UV-BLUE-GREEN-RED-IR","664884","671723","905180","18.810998","5.250221","-0.003072","791898","872015","835659","12.661405","3.315907","-0.012457","789171","853851","830923","10.783582","2.752942","-0.019662","822251","862473","891064","8.710675","2.195121","-0.021947","733598","884877","964330","5.894159","1.384955","-0.064913","9737","9353","9205","9779","8796","8447","9875","8589","8148","9961","8766","8363","9447","7447","6833",""
"MA200-0420","23742","55","1","1.10","1.4","2023-05-07T09:15:00","120","2023/05/07","09:15:00","-15.778064668178558","35.03695549070835","4.2","14","30","64","74","-6966","22358","-7433","1","150","149.44","114.06","35.38","27.07","44.6","13.98","89744","26.69","DUALSPOT-UV-BLUE-GREEN-RED-IR","661190","671779","907589","19.576928","5.490062","0.000670","789452","873004","838024","13.215640","3.475690","-0.008008","785955","853484","831798","11.261161","2.887970","-0.011990","819860","862582","892168","9.094208","2.299265","-0.021996","732380","885115","965238","6.137760","1.448320","-0.043625","39442","39819","39966","36022","33481","32575","34762","31687","30627","33735","29534","28112","29835","25020","23533",""
"MA200-0420","23743","55","1","1.10","1.4","2023-05-07T09:15:30","120","2023/05/07","09:15:30","-15.778411030769348","35.035644825547934","6.0","14","30","64","74","-5076","23372","-5788","1","150","150.02","114.34","35.68","27.07","44.6","13.97","89764","26.69","DUALSPOT-UV-BLUE-GREEN-RED-IR","660831","672036","908295","19.769500","5.548382","-0.002168","788910","873026","838283","13.359306","3.514879","-0.015422","785754","853777","832282","11.388373","2.922505","-0.018625","819624","862767","892514","9.198578","2.325688","-0.036747","732233","885286","965516","6.208053","1.463816","-0.100483","9892","9600","9486","9315","8142","7723","9237","8035","7620","9158","7429","6844","8588","6067","5289",""
"MA200-0420","23744","55","1","1.10","1.4","2023-05-07T09:16:00","120","2023/05/07","09:16:00","-15.778759837150574","35.03411666676402","6.2","14","30","64","74","-6441","22920","-3479","1","150","149.56","114.34","35.22","27.08","44.5","13.95","89724","26.69","DUALSPOT-UV-BLUE-GREEN-RED-IR","657942","669649","905395","19.891952","5.586344","0.000435","785983","870223","835779","13.433580","3.535783","-0.009900","784781","853134","831765","11.450803","2.939588","-0.015464","817205","860517","890310","9.246500","2.338181","-0.028035","730769","883729","963894","6.239012","1.470485","-0.103997","6290","6330","6345","4815","4399","4250","4533","4026","3851","4205","3558","3339","3782","2644","2294",""
"MA200-0420","23745","55","1","1.10","1.4","2023-05-07T09:16:30","120","2023/05/07","09:16:30","-15.77908581495285","35.032608829438686","6.4","14","30","64","74","-6683","22625","-6375","1","150","150.21","114.45","35.76","27.09","44.5","13.95","89752","26.69","DUALSPOT-UV-BLUE-GREEN-RED-IR","658597","670612","906880","19.957490","5.607483","0.002162","786732","871379","836989","13.482507","3.549540","-0.011649","785027","853678","832408","11.494589","2.950263","-0.036481","819074","862735","892648","9.280582","2.346025","-0.058625","731595","884884","965200","6.262611","1.476156","-0.069121","3363","3472","3514","3168","2852","2738","3176","2478","2237","2987","2200","1934","2880","2215","2010",""
"MA200-0420","23746","55","1","1.10","1.4","2023-05-07T09:17:00","120","2023/05/07","09:17:00","-15.779489636421204","35.030948827043176","6.4","14","30","64","74","-7756","22140","-6740","1","150","150.21","114.34","35.88","27.10","44.4","13.94","89928","26.63","DUALSPOT-UV-BLUE-GREEN-RED-IR","658204","670463","906847","20.011768","5.623276","-0.005624","786576","871434","837134","13.520470","3.558629","-0.035059","784536","853332","832112","11.524561","2.957487","-0.039333","817546","861274","891214","9.306515","2.351822","-0.067208","731198","884538","964825","6.278864","1.478625","-0.330378","2788","2585","2506","2461","1878","1669","2176","1671","1497","2275","1621","1399","1985","961","645",""
"MA200-0420","23747","55","1","1.10","1.4","2023-05-07T09:17:30","120","2023/05/07","09:17:30","-15.780102849006653","35.02945133112371","5.6","14","30","64","73","-6524","22500","-4456","1","150","149.89","114.14","35.75","27.10","44.4","13.94","90004","26.63","DUALSPOT-UV-BLUE-GREEN-RED-IR","655855","668443","904319","20.091004","5.649400","0.003402","783951","868851","834762","13.569514","3.571933","-0.016369","782223","851084","830031","11.566002","2.967137","-0.045540","816269","860161","890133","9.337965","2.360259","-0.025442","729840","883015","963258","6.300237","1.483905","-0.060583","4077","4292","4376","3185","2758","2606","3014","2241","1974","2764","2367","2233","2615","2063","1893",""
"MA200-0420","23748","55","1","1.10","1.4","2023-05-07T09:18:00","120","2023/05/07","09:18:00","-15.781082153320312","35.02834899537265","4.6","14","30","64","74","-6924","22328","-5128","1","150","150.21","114.34","35.87","27.10","44.4","13.94","90084","26.63","DUALSPOT-UV-BLUE-GREEN-RED-IR","656456","669415","905846","20.170762","5.672174","-0.007081","784947","870305","836267","13.623585","3.585863","-0.023523","783394","852669","831661","11.614153","2.979296","-0.030624","817224","861394","891459","9.375759","2.368204","-0.084317","730327","883791","964116","6.324537","1.487233","-0.442572","4097","3728","3584","3505","2878","2654","3496","2814","2578","3316","2221","1852","2968","1295","781",""
"MA200-0420","23749","55","1","1.10","1.4","2023-05-07T09:18:30","120","2023/05/07","09:18:30","-15.782014667987823","35.02734032832086","6.9","14","30","64","74","-6524","22284","-3384","1","150","149.76","113.82","35.93","27.10","44.4","13.93","90140","26.63","DUALSPOT-UV-BLUE-GREEN-RED-IR","656619","669781","906507","20.223774","5.689796","0.003392","784992","870550","836612","13.660979","3.597182","-0.004337","783034","852444","831494","11.644084","2.988058","-0.009316","816968","861269","891398","9.399843","2.374903","-0.020126","730348","883931","964299","6.341230","1.491486","-0.053192","2735","2880","2937","2435","2335","2299","2183","2024","1969","2122","1870","1785","2048","1653","1532",""
"MA200-0420","23750","55","1","1.10","1.4","2023-05-07T09:19:00","120","2023/05/07","09:19:00","-15.783097624778748","35.026209998875856","6.4","14","30","64","74","-6458","22200","-6008","1","150","150.02","114.03","36.00","27.10","44.4","13.92","90192","26.63","DUALSPOT-UV-BLUE-GREEN-RED-IR","656302","669675","906459","20.266906","5.702234","-0.006754","784955","870702","836791","13.691067","3.604656","-0.029711","782330","851809","830939","11.670279","2.995252","-0.018153","816610","861023","891194","9.420733","2.379739","-0.058852","730056","883677","964045","6.353903","1.494114","-0.127950","2221","2029","1954","1956","1539","1390","1907","1659","1573","1838","1348","1182","1552","1020","856",""
"MA200-0420","23751","55","1","1.10","1.4","2023-05-07T09:19:30","120","2023/05/07","09:19:30","-15.784306108951569","35.025231493636966","2.6","14","30","64","74","-5720","22432","-4968","1","150","149.57","114.26","35.31","27.11","44.4","13.93","90264","26.63","DUALSPOT-UV-BLUE-GREEN-RED-IR","655675","669402","906292","20.333984","5.723602","0.002028","784181","870140","836354","13.731081","3.615927","-0.009936","781816","851511","830754","11.705230","3.003716","-0.035067","816524","861080","891317","9.445830","2.385489","-0.055991","730105","883862","964311","6.372305","1.497078","-0.262408","3448","3554","3596","2596","2366","2284","2539","1990","1800","2203","1633","1441","2249","1172","841",""
"MA200-0420","23752","55","1","1.10","1.4","2023-05-07T09:20:00","120","2023/05/07","09:20:00","-15.784996032714844","35.02517549879849","5.9","14","30","64","73","-4272","22940","-4796","1","150","150.41","114.34","36.07","27.12","44.4","13.96","90232","26.63","DUALSPOT-UV-BLUE-GREEN-RED-IR","653986","668486","905349","20.468776","5.751056","-0.047482","782694","869282","835705","13.825644","3.632819","-0.103399","781746","852060","831367","11.779632","3.016126","-0.146754","816624","861679","892048","9.502595","2.395743","-0.140360","729802","883848","964350","6.413971","1.504362","-0.217592","6924","4470","3511","6131","3471","2523","5402","2856","1979","4980","2851","2134","5090","2820","2125",""
"MA200-0420","23753","55","1","1.10","1.4","2023-05-07T09:20:30","120","2023/05/07","09:20:30","-15.785597681999207","35.026665495708585","6.3","14","30","64","73","-5008","22636","-5280","1","150","149.65","114.40","35.25","27.13","44.5","14.01","90172","26.63","DUALSPOT-UV-BLUE-GREEN-RED-IR","654473","669372","906792","20.582486","5.781603","-0.010542","783448","870547","837123","13.915601","3.656625","-0.017021","781776","852482","831963","11.860382","3.035831","-0.032732","815963","861340","891785","9.569201","2.410565","-0.061737","729713","883998","964621","6.461075","1.513441","-0.148143","5838","5089","4797","5829","5006","4713","5860","4641","4221","5841","4218","3672","5752","3597","2939",""
"MA200-0420","23754","55","1","1.10","1.4","2023-05-07T09:21:00","120","2023/05/07","09:21:00","-15.786230504512787","35.0282789953053","6.5","14","30","64","73","-5054","22887","-4466","1","150","149.92","113.77","36.15","27.13","44.4","13.97","90084","26.63","DUALSPOT-UV-BLUE-GREEN-RED-IR","653233","668634","906121","20.674786","5.812874","0.004073","782063","869563","836367","13.989653","3.679234","-0.004027","780067","851105","830804","11.926001","3.057313","0.003265","815368","861124","891773","9.623465","2.427216","-0.005018","729128","883618","964285","6.500061","1.525474","-0.006002","4765","5080","5203","4825","4635","4568","4788","4932","4982","4785","4620","4564","4787","4649","4607",""
"MA200-0420","23755","55","1","1.10","1.4","2023-05-07T09:21:30","120","2023/05/07","09:21:30","-15.786330759525299","35.029505494982004","5.0","14","30","64","74","-4724","23112","-3571","1","150","150.07","114.05","36.03","27.13","44.3","13.93","90028","26.63","DUALSPOT-UV-BLUE-GREEN-RED-IR","652805","668636","906377","20.787694","5.849224","0.001249","781648","869521","836552","14.081568","3.708469","0.000659","779920","851333","831190","12.007390","3.082454","-0.002558","813838","859840","890577","9.690672","2.447030","-0.010111","728641","883296","964046","6.546646","1.537196","-0.055336","5814","5926","5969","5974","6015","6030","5924","5793","5748","5912","5517","5384","5706","4545","4188",""
"MA200-0420","23756","55","1","1.10","1.4","2023-05-07T09:22:00","120","2023/05/07","09:22:00","-15.786351919174194","35.03066116385162","4.8","14","30","64","73","-4316","23054","-4666","1","150","150.15","114.14","36.01","27.14","44.2","13.89","89976","26.63","DUALSPOT-UV-BLUE-GREEN-RED-IR","651030","666934","904182","20.822902","5.860552","0.001287","779795","867612","834765","14.108246","3.717005","0.001335","782367","854125","833987","12.030209","3.089439","-0.003449","811861","857842","888531","9.708323","2.452636","0.000909","726672","880940","961528","6.558758","1.541372","0.016519","1811","1847","1861","1732","1757","1766","1659","1610","1593","1551","1561","1565","1482","1620","1662",""
"MA200-0420","23757","55","1","1.10","1.4","2023-05-07T09:22:30","120","2023/05/07","09:22:30","-15.786430656909943","35.03185483068228","4.4","14","30","64","73","-4640","22872","-6579","1","150","149.69","114.34","35.35","27.14","44.1","13.87","89912","26.63","DUALSPOT-UV-BLUE-GREEN-RED-IR","651911","667974","905661","20.849526","5.868767","-0.000141","780901","869025","836143","14.130480","3.721827","-0.048250","778675","850230","830218","12.049158","3.093606","-0.052785","813610","859799","890607","9.724214","2.455920","-0.082021","727874","882487","963202","6.568792","1.542790","-0.372064","1367","1364","1363","1441","1011","857","1375","978","841","1394","931","775","1226","560","355",""
"MA200-0420","23758","55","1","1.10","1.4","2023-05-07T09:23:00","120","2023/05/07","09:23:00","-15.786482691764832","35.0319781601429","7.1","14","30","64","73","-4772","23092","-4804","1","150","149.82","114.38","35.45","27.14","44.1","13.87","89900","26.63","DUALSPOT-UV-BLUE-GREEN-RED-IR","651799","668008","905773","20.879704","5.876245","-0.018515","780685","868907","836111","14.153763","3.729015","-0.000366","782795","854892","834799","12.071135","3.098631","-0.045162","813301","859591","890441","9.738791","2.458724","-0.105846","727829","882516","963278","6.579902","1.544912","-0.152873","1549","1239","1117","1509","1503","1501","1595","1176","1032","1278","793","629","1356","836","676",""
"MA200-0420","23759","55","1","1.10","1.4","2023-05-07T09:23:30","120","2023/05/07","09:23:30","-15.786360383033752","35.030310329049826","2.4","14","30","64","73","-9972","21500","-5696","1","150","149.89","114.22","35.67","27.15","44.1","13.88","90004","26.63","DUALSPOT-UV-BLUE-GREEN-RED-IR","650136","666440","903731","20.907734","5.885782","0.005296","778299","866394","833770","14.177333","3.736418","0.000545","782730","854927","834886","12.090230","3.104269","-0.006535","811867","858148","888948","9.754270","2.463872","0.008222","727062","881614","962310","6.590536","1.547136","-0.115209","1441","1570","1620","1529","1538","1541","1387","1312","1286","1359","1448","1478","1300","871","739",""
"MA200-0420","23760","55","1","1.10","1.4","2023-05-07T09:24:00","120","2023/05/07","09:24:00","-15.7865691781044","35.0293664932251","0.1","14","30","64","73","-5595","22550","-6354","1","150","150.15","114.38","35.77","27.16","44.0","13.85","90056","26.63","DUALSPOT-UV-BLUE-GREEN-RED-IR","652130","668562","906731","20.934024","5.895954","0.011853","781256","869802","837093","14.197984","3.743321","0.006009","779445","851432","831538","12.108263","3.111464","0.022343","814644","861168","892127","9.768838","2.468812","0.010363","728818","883831","964766","6.601122","1.550663","0.011900","1350","1670","1795","1338","1430","1463","1309","1669","1794","1277","1385","1421","1292","1377","1403",""
"MA200-0420","23761","55","1","1.10","1.4","2023-05-07T09:24:30","120","2023/05/07","09:24:30","-15.786617696285248","35.02905632928014","7.7","14","30","64","73","-3108","23320","-4516","1","150","149.56","114.18","35.38","27.17","44.1","13.88","90056","26.69","DUALSPOT-UV-BLUE-GREEN-RED-IR","652929","669544","908126","20.962666","5.903536","-0.012144","782133","870978","838232","14.220939","3.747386","-0.097860","779521","851676","831806","12.127581","3.113335","-1.013422","814415","861050","892022","9.784334","2.472159","-0.069728","728913","884051","964990","6.609499","1.552029","-0.245696","1473","1258","1174","1490","851","623","1404","439","105","1361","948","809","1024","539","390",""
"MA200-0420","23762","55","1","1.10","1.4","2023-05-07T09:25:00","120","2023/05/07","09:25:00","-15.785217523574829","35.02555949613452","15.5","14","30","64","73","-6162","22554","-5751","1","150","149.19","114.29","34.90","27.19","44.0","13.88","90172","26.69","DUALSPOT-UV-BLUE-GREEN-RED-IR","632241","662233","907373","21.504188","6.079748","0.003895","760223","862715","837250","14.702286","3.893363","-0.000645","760440","844792","831030","12.520867","3.231012","-0.002233","791785","849034","884763","10.097750","2.563724","-0.006102","717904","879669","964402","6.842533","1.620774","-0.006812","27830","29655","30375","31223","31007","30929","28570","27993","27793","27513","26322","25916","28484","27516","27215",""
"MA200-0420","23763","55","1","1.10","1.4","2023-05-07T09:25:30","120","2023/05/07","09:25:30","-15.783961236476898","35.022687995806336","6.7","14","30","64","73","-5108","23584","1472","1","150","150.28","113.56","36.73","27.21","44.0","13.90","90188","26.75","DUALSPOT-UV-BLUE-GREEN-RED-IR","623783","660084","908651","25.567902","7.376751","-0.000735","751950","860959","838754","18.202752","4.957670","-0.004926","753200","844127","833349","15.732049","4.188573","-0.007557","785834","849322","887919","12.880791","3.374097","-0.012119","713754","879789","966622","8.865383","2.195962","-0.021576","210190","207431","206312","228519","214836","209714","234773","216468","209826","245881","221378","212681","248845","218786","208889",""
"MA200-0420","23764","55","1","1.10","1.4","2023-05-07T09:26:00","120","2023/05/07","09:26:00","-15.780756950378418","35.024045664817095","15.0","14","30","64","73","-4604","22779","-6395","1","150","150.15","114.18","35.97","27.22","43.9","13.87","89996","26.75","DUALSPOT-UV-BLUE-GREEN-RED-IR","621022","658865","908171","25.921516","7.495979","0.003472","748809","859531","838349","18.532156","5.062675","0.000869","749134","841472","831641","16.033998","4.282200","-0.001366","781293","846193","885426","13.142529","3.451563","-0.006800","711000","877760","964984","9.057182","2.251598","-0.013007","18190","19469","19989","21387","21642","21737","21955","21610","21485","22998","21607","21112","23466","21608","20993",""
"MA200-0420","23765","55","1","1.10","1.4","2023-05-07T09:26:30","120","2023/05/07","09:26:30","-15.778088986873627","35.023614997044206","2.5","14","30","64","73","-5670","22812","-5662","1","150","150.15","114.22","35.93","27.23","43.7","13.81","89904","26.75","DUALSPOT-UV-BLUE-GREEN-RED-IR","621201","659895","910169","26.137786","7.568306","0.003122","749200","860966","840180","18.725200","5.122339","-0.001317","749767","843106","833639","16.215322","4.337603","-0.002514","782382","848163","887824","13.302321","3.499539","-0.004954","711894","879486","967147","9.176350","2.283053","-0.029702","11121","11823","12109","12529","12310","12228","13180","12802","12663","14036","13396","13168","14574","12229","11453",""
"MA200-0420","23766","55","1","1.10","1.4","2023-05-07T09:27:00","120","2023/05/07","09:27:00","-15.777763485908508","35.02356616221368","3.5","14","30","64","73","-4087","22716","-6591","1","150","150.15","114.10","36.05","27.24","43.6","13.79","89892","26.81","DUALSPOT-UV-BLUE-GREEN-RED-IR","621544","660538","911206","26.225738","7.597080","0.001816","749739","861952","841251","18.807570","5.145800","-0.008340","749596","843232","833889","16.290720","4.359781","-0.006376","782659","848778","888553","13.367489","3.516509","-0.023428","711772","879553","967276","9.223913","2.296175","-0.022020","4527","4688","4754","5351","4824","4626","5486","5108","4969","5730","4723","4363","5823","5084","4840",""
"MA200-0420","23767","55","1","1.10","1.4","2023-05-07T09:27:30","120","2023/05/07","09:27:30","-15.777392387390137","35.022782661020756","4.6","14","30","64","73","-6462","22541","-5604","1","150","149.93","114.13","35.80","27.26","43.6","13.82","89896","26.81","DUALSPOT-UV-BLUE-GREEN-RED-IR","620114","659580","910217","26.338582","7.631439","-0.001627","748050","860657","840230","18.905080","5.172104","-0.012622","748297","842359","833241","16.380600","4.383451","-0.017116","781593","848093","888015","13.441676","3.536441","-0.017974","710816","878778","966538","9.277170","2.308223","-0.063572","5807","5637","5568","6333","5447","5113","6538","5489","5106","6521","5586","5252","6518","4701","4100",""
"MA200-0420","23768","55","1","1.10","1.4","2023-05-07T09:28:00","120","2023/05/07","09:28:00","-15.77689802646637","35.021511329337955","5.7","14","30","64","73","-6062","22787","-4391","1","150","150.15","113.98","36.17","27.28","43.7","13.85","89908","26.88","DUALSPOT-UV-BLUE-GREEN-RED-IR","617352","656964","906813","26.420430","7.657024","-0.000808","744973","857540","837377","18.979078","5.193728","-0.006429","746374","840542","831587","16.446955","4.401284","-0.016054","778656","845234","885165","13.500497","3.551994","-0.021648","708728","876440","964060","9.319633","2.319278","-0.033697","4217","4155","4129","4812","4432","4289","4833","4093","3823","5177","4314","4006","5204","4270","3960",""
"MA200-0420","23769","55","1","1.10","1.4","2023-05-07T09:28:30","120","2023/05/07","09:28:30","-15.77646952867508","35.020759331062436","0.4","15","30","64","73","-6212","22216","-1348","1","150","149.69","114.34","35.35","27.31","43.6","13.86","89916","26.94","DUALSPOT-UV-BLUE-GREEN-RED-IR","618191","658187","908743","26.489022","7.677395","-0.002228","745916","859008","838926","19.038516","5.209470","-0.012933","746410","840953","832086","16.501715","4.414499","-0.025945","778860","845753","885803","13.543757","3.561895","-0.040225","708625","876584","964287","9.354841","2.326135","-0.103811","3523","3384","3327","3853","3300","3092","3976","3103","2784","3796","2809","2457","4301","2709","2182",""
"MA200-0420","23770","55","1","1.10","1.4","2023-05-07T09:29:00","120","2023/05/07","09:29:00","-15.775846600532532","35.01996199414134","5.1","15","30","64","72","-3828","23228","-2740","1","150","150.34","114.57","35.77","27.34","43.6","13.87","89872","27.00","DUALSPOT-UV-BLUE-GREEN-RED-IR","617797","657950","908543","26.538700","7.696190","0.008659","745232","858410","838443","19.078634","5.224520","0.011391","745823","840486","831713","16.538544","4.426884","0.005766","778987","846044","886199","13.574496","3.572657","0.010429","708461","876489","964255","9.375765","2.331709","-0.025904","2546","3086","3306","2595","3119","3316","2668","2874","2950","2691","3018","3135","2551","2176","2052",""
"MA200-0420","23771","55","1","1.10","1.4","2023-05-07T09:29:30","120","2023/05/07","09:29:30","-15.775067746639252","35.0187048278749","5.5","15","30","64","73","-6541","22891","-4354","1","150","150.15","114.22","35.93","27.36","43.5","13.85","89844","27.06","DUALSPOT-UV-BLUE-GREEN-RED-IR","615241","655343","905088","26.571576","7.709560","0.010993","742182","855029","835255","19.108236","5.234236","0.002946","747709","842743","834052","16.564362","4.435944","0.008228","782349","849813","890188","13.596782","3.578551","-0.020284","710476","879079","967132","9.393099","2.335222","-0.095689","1690","2185","2388","1921","2004","2036","1876","2093","2172","1957","1645","1534","2120","1366","1116",""
"MA200-0420","23772","55","1","1.10","1.4","2023-05-07T09:30:00","120","2023/05/07","09:30:00","-15.77374416589737","35.018409663811326","5.0","15","30","64","72","-4408","23208","-2296","1","150","150.15","114.06","36.09","27.39","43.4","13.86","89828","27.13","DUALSPOT-UV-BLUE-GREEN-RED-IR","616313","656610","906959","26.605988","7.721576","0.004789","743718","856995","837213","19.137016","5.243331","-0.000079","744962","839816","831173","16.589880","4.441231","-0.053746","783128","850806","891283","13.617929","3.584145","-0.021003","706726","874537","962217","9.409355","2.339958","-0.012525","1772","1955","2030","1870","1868","1867","1857","1216","981","1860","1555","1446","1991","1833","1781",""
"MA200-0420","23773","55","1","1.10","1.4","2023-05-07T09:30:30","120","2023/05/07","09:30:30","-15.773371577262878","35.01742749847472","4.5","15","30","64","72","-6124","22260","-5844","1","150","149.76","114.22","35.54","27.42","43.4","13.88","89808","27.19","DUALSPOT-UV-BLUE-GREEN-RED-IR","616806","657266","907911","26.632496","7.730800","0.005365","744388","857898","838175","19.158492","5.248654","-0.020310","745894","840947","832377","16.609768","4.447078","-0.004893","778701","846097","886375","13.633018","3.586731","-0.114601","708075","876270","964116","9.421078","2.341191","-0.784456","1363","1524","1590","1393","1110","1003","1445","1365","1336","1325","729","517","1433","484","170",""
"MA200-0420","23774","55","1","1.10","1.4","2023-05-07T09:31:00","120","2023/05/07","09:31:00","-15.773798644542694","35.01606716401875","5.9","15","30","64","72","-8124","22352","-4824","1","150","149.67","114.10","35.57","27.46","43.4","13.90","89944","27.25","DUALSPOT-UV-BLUE-GREEN-RED-IR","618212","658890","910284","26.661422","7.741634","0.008285","745980","859881","840172","19.182462","5.255252","-0.010038","746131","841361","832812","16.630962","4.453408","-0.003669","779172","846701","887095","13.651076","3.592313","-0.000862","708289","876622","964533","9.435099","2.345296","-0.009340","1489","1788","1911","1557","1375","1306","1542","1477","1453","1587","1574","1569","1716","1612","1577",""
"MA200-0420","23775","55","1","1.10","1.4","2023-05-07T09:31:30","120","2023/05/07","09:31:30","-15.774662852287292","35.014725665561855","6.0","15","30","64","72","-7152","22652","-5048","1","150","149.96","114.25","35.71","27.50","43.3","13.92","90000","27.25","DUALSPOT-UV-BLUE-GREEN-RED-IR","618677","659511","911210","26.691734","7.752666","0.007054","746217","860322","840648","19.206712","5.263412","0.004978","746585","842050","833554","16.652306","4.458815","-0.020968","780151","847878","888327","13.668381","3.596846","-0.020575","708849","877460","965462","9.448236","2.347383","-0.200372","1558","1814","1919","1573","1694","1739","1550","1257","1149","1519","1273","1185","1606","816","555",""
"MA200-0420","23776","55","1","1.10","1.4","2023-05-07T09:32:00","120","2023/05/07","09:32:00","-15.773607432842255","35.013825164176524","6.0","15","30","64","72","-7043","22312","-4580","1","150","149.89","114.49","35.39","27.53","43.2","13.91","90140","27.25","DUALSPOT-UV-BLUE-GREEN-RED-IR","617157","658033","909315","26.725998","7.765678","0.009116","744235","858135","838637","19.234540","5.273396","0.009419","745839","841320","832868","16.678698","4.467988","0.008705","778525","846239","886686","13.688974","3.603916","0.009531","707797","876262","964183","9.464975","2.352209","-0.010409","1757","2159","2323","1801","2091","2200","1913","2151","2238","1804","2004","2075","2042","1904","1859",""
