"Serial number","Datum ID","Session ID","Data format version","Firmware version","App version","Date / time local","Timezone offset (mins)","Date local (yyyy/MM/dd)","Time local (hh:mm:ss)","GPS lat (ddmm.mmmmm)","GPS long (dddmm.mmmmm)","GPS speed (km/h)","GPS sat count","Timebase (s)","Status","Battery remaining (%)","Accel X","Accel Y","Accel Z","Tape position","Flow setpoint (mL/min)","Flow total (mL/min)","Flow1 (mL/min)","Flow2 (mL/min)","Sample temp (C)","Sample RH (%)","Sample dewpoint (C)","Internal pressure (Pa)","Internal temp (C)","Optical config","UV Sen1","UV Sen2","UV Ref","UV ATN1","UV ATN2","UV K","Blue Sen1","Blue Sen2","Blue Ref","Blue ATN1","Blue ATN2","Blue K","Green Sen1","Green Sen2","Green Ref","Green ATN1","Green ATN2","Green K","Red Sen1","Red Sen2","Red Ref","Red ATN1","Red ATN2","Red K","IR Sen1","IR Sen2","IR Ref","IR ATN1","IR ATN2","IR K","UV BC1","UV BC2","UV BCc","Blue BC1","Blue BC2","Blue BCc","Green BC1","Green BC2","Green BCc","Red BC1","Red BC2","Red BCc","IR BC1","IR BC2","IR BCc","Readable status"
"MA200-0416","29070","87","1","1.10","1.4","2023-05-27T11:42:30","120","2023/05/27","11:42:30","-15.787248194217682","35.03447415679693","0.1","6","30","66","87","1148","-580","-26047","13","150","150.08","116.09","33.99","31.21","48.7","19.12","89772","34.25","DUALSPOT-UV-BLUE-GREEN-RED-IR","846527","731181","904188","0.000000","0.000000","0.000000","803637","918056","764398","0.000000","0.000000","0.000000","900600","923895","818347","0.000000","0.000000","0.000000","883223","941071","866450","0.000000","0.000000","0.000000","742237","855494","951652","0.000000","0.000000","0.000000","","","","","","","","","","","","","","","","Start up"
"MA200-0416","29071","87","1","1.10","1.4","2023-05-27T11:43:00","120","2023/05/27","11:43:00","-15.78725916147232","35.03447983041406","0.0","11","30","66","86","1092","-688","-25896","13","150","150.03","115.83","34.20","31.60","49.8","19.85","89760","34.56","DUALSPOT-UV-BLUE-GREEN-RED-IR","850811","735455","909477","0.000000","0.000000","0.000000","800995","915370","762178","0.000000","0.000000","0.000000","895505","918959","813855","0.000000","0.000000","0.000000","880274","938255","863636","0.000000","0.000000","0.000000","744321","858281","954607","0.000000","0.000000","0.000000","","","","","","","","","","","","","","","","Start up"
"MA200-0416","29072","87","1","1.10","1.4","2023-05-27T11:43:30","120","2023/05/27","11:43:30","-15.787246346473694","35.03448399156332","0.1","11","30","66","86","1172","-479","-25863","13","150","150.30","115.75","34.55","31.96","49.3","20.01","89764","34.69","DUALSPOT-UV-BLUE-GREEN-RED-IR","851048","736107","910537","0.000000","0.000000","0.000000","801274","915858","762726","0.000000","0.000000","0.000000","898898","922621","817176","0.000000","0.000000","0.000000","878671","936764","862243","0.000000","0.000000","0.000000","741527","855274","951375","0.000000","0.000000","0.000000","","","","","","","","","","","","","","","","Start up"
"MA200-0416","29073","87","1","1.10","1.4","2023-05-27T11:44:00","120","2023/05/27","11:44:00","-15.787226855754852","35.034484159201384","0.0","11","30","66","86","1160","-724","-26088","13","150","149.50","115.75","33.75","32.26","48.2","19.93","89764","34.81","DUALSPOT-UV-BLUE-GREEN-RED-IR","845843","731925","905481","0.000000","0.000000","0.000000","803186","918235","764692","0.000000","0.000000","0.000000","896934","920797","815476","0.000000","0.000000","0.000000","874965","932999","858630","0.000000","0.000000","0.000000","742139","856264","952578","0.000000","0.000000","0.000000","","","","","","","","","","","","","","","","Start up"
"MA200-0416","29074","87","1","1.10","1.4","2023-05-27T11:44:30","120","2023/05/27","11:44:30","-15.787207782268524","35.03448116034269","0.0","12","30","66","86","1212","-556","-25868","13","150","149.96","116.07","33.89","32.57","47.4","19.93","89764","34.88","DUALSPOT-UV-BLUE-GREEN-RED-IR","845979","732298","906010","0.000000","0.000000","0.000000","802901","918104","764508","0.000000","0.000000","0.000000","896955","921016","815541","0.000000","0.000000","0.000000","882458","941192","865998","0.000000","0.000000","0.000000","745026","859803","956548","0.000000","0.000000","0.000000","","","","","","","","","","","","","","","","Start up"
"MA200-0416","29075","87","1","1.10","1.4","2023-05-27T11:45:00","120","2023/05/27","11:45:00","-15.787197351455688","35.034485157579184","0.1","13","30","64","86","1132","-572","-26084","13","150","149.33","115.67","33.65","32.93","47.0","20.12","89764","34.94","DUALSPOT-UV-BLUE-GREEN-RED-IR","842278","729374","902448","0.000000","0.000000","0.000000","800583","915633","762352","0.000000","0.000000","0.000000","898810","923132","817269","0.000000","0.000000","0.000000","878921","937645","862562","0.000000","0.000000","0.000000","740512","854859","951092","0.000000","0.000000","0.000000","","","","","","","","","","","","","","","",""
"MA200-0416","29076","87","1","1.10","1.4","2023-05-27T11:45:30","120","2023/05/27","11:45:30","-15.787201166152954","35.03448082506657","0.1","13","30","64","86","1232","-688","-26203","13","150","149.76","116.47","33.30","33.33","46.6","20.36","89760","35.06","DUALSPOT-UV-BLUE-GREEN-RED-IR","847660","734320","908662","0.046817","0.007698","0.000000","797773","912679","759778","0.010812","-0.013845","0.000000","896707","921176","815367","0.003563","-0.021386","0.000000","874933","933624","858628","-0.000208","-0.026053","0.000000","740764","855402","951758","0.034378","0.003858","0.000000","2361","1357","2361","688","-3082","688","254","-5332","254","-17","-7850","-17","4123","1618","4123",""
"MA200-0416","29077","87","1","1.10","1.4","2023-05-27T11:46:00","120","2023/05/27","11:46:00","-15.787191689014435","35.03447799384594","0.1","14","30","64","86","1304","-500","-26396","13","150","149.54","115.90","33.64","33.70","46.1","20.52","89760","35.19","DUALSPOT-UV-BLUE-GREEN-RED-IR","848880","735735","910474","0.103642","0.017127","0.000000","799563","914990","761582","0.025081","-0.026834","0.000000","897258","921975","815902","0.009751","-0.041651","0.000000","883791","943331","867300","-0.000113","-0.052184","0.000000","738963","853660","949864","0.075672","0.010596","0.000000","2879","1646","2879","912","-2862","912","443","-5001","443","8","-7793","8","4977","2797","4977",""
"MA200-0416","29078","87","1","1.10","1.4","2023-05-27T11:46:30","120","2023/05/27","11:46:30","-15.787205994129181","35.034484662115574","0.0","15","30","64","86","1148","-684","-26091","13","150","150.16","115.87","34.29","34.03","45.3","20.52","89760","35.31","DUALSPOT-UV-BLUE-GREEN-RED-IR","841163","729598","903033","0.197589","0.033651","0.000000","799544","915401","761854","0.065040","-0.033538","0.000000","897439","922587","816334","0.039619","-0.055611","0.000000","883465","943337","867137","0.017017","-0.074720","0.000000","741206","856644","953268","0.131845","0.020267","0.000000","4762","2830","4762","2556","-1449","2556","2140","-3380","2140","1483","-6593","1483","6772","3940","6772",""
"MA200-0416","29079","87","1","1.10","1.4","2023-05-27T11:47:00","120","2023/05/27","11:47:00","-15.787212371826172","35.03448748961091","0.0","15","30","64","86","1141","-620","-25925","13","150","150.16","115.87","34.29","34.41","44.6","20.63","89764","35.56","DUALSPOT-UV-BLUE-GREEN-RED-IR","841448","730246","903895","0.256126","0.041130","0.000000","799324","915463","761813","0.081658","-0.050401","0.000000","897556","923027","816518","0.048136","-0.079792","0.000000","876316","936035","860140","0.017911","-0.105982","0.000000","744028","860230","957308","0.174701","0.024141","0.000000","2967","1281","2967","1063","-3645","1063","610","-5854","610","77","-9147","77","5166","1578","5166",""
"MA200-0416","29080","87","1","1.10","1.4","2023-05-27T11:47:30","120","2023/05/27","11:47:30","-15.787210822105408","35.03448499366641","0.0","16","30","64","85","1240","-512","-26519","13","150","149.94","116.17","33.77","34.75","43.8","20.61","89768","35.75","DUALSPOT-UV-BLUE-GREEN-RED-IR","838893","728437","901759","0.321486","0.049676","0.000000","797792","913995","760504","0.104308","-0.062965","0.000000","896446","922195","815636","0.062715","-0.098055","0.000000","874280","934168","858229","0.024992","-0.132817","0.000000","740919","857001","953739","0.220706","0.027549","0.000000","3304","1486","3304","1445","-2758","1445","1041","-4490","1041","611","-7972","611","5532","1410","5532",""
"MA200-0416","29081","87","1","1.10","1.4","2023-05-27T11:48:00","120","2023/05/27","11:48:00","-15.787216544151306","35.034486658871174","0.0","16","30","72","86","1128","-796","-25932","13","150","149.96","115.91","34.05","35.04","42.7","20.46","89772","36.00","DUALSPOT-UV-BLUE-GREEN-RED-IR","728727","633104","783787","0.384312","0.057083","0.000000","799368","916147","762192","0.127321","-0.074327","0.000000","897663","923747","816852","0.079649","-0.116146","0.000000","876296","936620","860225","0.031548","-0.159394","0.000000","740432","856798","953545","0.266334","0.030414","0.000000","3183","1277","3183","1471","-2473","1471","1212","-4410","1212","567","-7830","567","5499","1175","5499",""
"MA200-0416","29082","87","1","1.10","1.4","2023-05-27T11:48:30","120","2023/05/27","11:48:30","-15.787229359149933","35.03447882831097","0.0","17","30","64","86","1237","-508","-26245","13","150","149.80","115.67","34.13","35.30","41.5","20.25","89780","36.19","DUALSPOT-UV-BLUE-GREEN-RED-IR","839576","729792","903733","0.456108","0.079460","0.000000","798188","914976","761280","0.155746","-0.069158","0.000000","897212","923472","816660","0.100708","-0.117648","0.000000","875396","935930","859516","0.044298","-0.172138","0.000000","742756","859820","957010","0.310482","0.038561","0.000000","3645","3851","3645","1821","1122","1821","1511","-365","1511","1105","-3746","1105","5331","3334","5331",""
"MA200-0416","29083","87","1","1.10","1.4","2023-05-27T11:49:00","120","2023/05/27","11:49:00","-15.787231147289276","35.03447399288416","0.0","17","30","64","85","1192","-623","-26300","13","150","149.70","115.51","34.18","35.54","40.3","20.00","89780","36.31","DUALSPOT-UV-BLUE-GREEN-RED-IR","843841","733768","908836","0.522087","0.101896","0.000000","801334","918751","764491","0.184416","-0.059682","0.000000","894474","920802","814307","0.123029","-0.112164","0.000000","877745","938587","861902","0.058519","-0.178944","0.000000","738665","855303","952084","0.354686","0.052958","0.000000","3354","3855","3354","1839","2054","1839","1604","1331","1604","1235","-1997","1235","5345","5883","5345",""
"MA200-0416","29084","87","1","1.10","1.4","2023-05-27T11:49:30","120","2023/05/27","11:49:30","-15.787237703800201","35.03447316214442","0.0","17","30","64","85","1232","-468","-26652","13","150","149.92","115.75","34.17","35.81","39.6","19.95","89784","36.50","DUALSPOT-UV-BLUE-GREEN-RED-IR","843391","733641","908714","0.560853","0.108039","0.000000","800851","918389","764096","0.195705","-0.067722","0.000000","894187","920671","814119","0.131737","-0.121754","0.000000","877319","938347","861533","0.063973","-0.193881","0.000000","741282","858555","955735","0.383359","0.057815","0.000000","1967","1056","1967","723","-1744","723","624","-2330","624","472","-4385","472","3460","1985","3460",""
"MA200-0416","29085","87","1","1.10","1.4","2023-05-27T11:50:00","120","2023/05/27","11:50:00","-15.787238478660583","35.034473825246096","0.0","17","30","64","85","1220","-540","-26080","13","150","149.95","115.75","34.19","36.11","39.1","20.02","89784","36.63","DUALSPOT-UV-BLUE-GREEN-RED-IR","839714","731539","906501","0.715103","0.141653","0.000000","797668","915717","762045","0.296056","-0.053220","0.000000","896467","923857","817018","0.208723","-0.117701","0.000000","874973","936532","859859","0.122237","-0.196420","0.000000","738366","855627","952600","0.438472","0.068670","0.000000","7827","5773","7827","6426","3143","6426","5521","984","5521","5049","-744","5049","6651","4434","6651",""
"MA200-0416","29086","87","1","1.10","1.4","2023-05-27T11:50:30","120","2023/05/27","11:50:30","-15.787236511707306","35.03447899594903","0.0","17","30","64","85","1240","-532","-26319","13","150","149.80","115.26","34.54","36.40","38.6","20.05","89776","36.81","DUALSPOT-UV-BLUE-GREEN-RED-IR","835411","728134","902383","0.808673","0.162628","0.000000","794882","912775","759572","0.349825","-0.049793","0.000000","893522","921103","814472","0.251192","-0.120854","0.000000","877739","939728","862688","0.151121","-0.206118","0.000000","738347","855764","952858","0.478614","0.078691","0.000000","4768","3567","4768","3458","735","3458","3059","-757","3059","2514","-2817","2514","4865","4053","4865",""
"MA200-0416","29087","87","1","1.10","1.4","2023-05-27T11:51:00","120","2023/05/27","11:51:00","-15.7872394323349","35.03447449207306","0.0","17","30","64","85","1388","-488","-27072","13","150","149.67","115.94","33.73","36.70","38.1","20.11","89772","37.00","DUALSPOT-UV-BLUE-GREEN-RED-IR","835619","728592","902972","0.851274","0.167800","0.000000","801217","920240","765721","0.363153","-0.058919","0.000000","894689","922526","815620","0.261151","-0.134521","0.000000","879320","941617","864272","0.154215","-0.226259","0.000000","737489","854986","952045","0.507600","0.084344","0.000000","2158","900","2158","852","-2006","852","713","-3364","713","267","-5991","267","3492","2341","3492",""
"MA200-0416","29088","87","1","1.10","1.4","2023-05-27T11:51:30","120","2023/05/27","11:51:30","-15.787245154380798","35.03446799516678","0.0","17","30","64","85","1216","-528","-26388","13","150","149.63","116.11","33.52","37.03","37.7","20.23","89772","37.19","DUALSPOT-UV-BLUE-GREEN-RED-IR","835950","729096","903670","0.892396","0.173353","0.000000","795374","913724","760210","0.372666","-0.072462","0.000000","894472","922496","815450","0.266408","-0.151795","0.000000","877779","940203","862748","0.154995","-0.247454","0.000000","739749","857842","955275","0.538444","0.089483","0.000000","2080","972","2080","607","-2994","607","375","-4278","375","67","-6343","67","3710","2141","3710",""
"MA200-0416","29089","87","1","1.10","1.4","2023-05-27T11:52:00","120","2023/05/27","11:52:00","-15.787246823310852","35.034469828009605","0.0","17","30","64","85","1296","-596","-26256","13","150","150.09","115.67","34.42","37.35","37.3","20.36","89768","37.38","DUALSPOT-UV-BLUE-GREEN-RED-IR","836173","729606","904352","0.937018","0.177978","0.000000","800873","920304","765573","0.386130","-0.083929","0.000000","894846","923079","815846","0.271987","-0.168860","0.000000","878888","941610","863863","0.155919","-0.269948","0.000000","738152","856213","953501","0.569543","0.092907","0.000000","2265","789","2265","862","-2469","862","400","-4115","400","80","-6556","80","3755","1389","3755",""
"MA200-0416","29090","87","1","1.10","1.4","2023-05-27T11:52:30","120","2023/05/27","11:52:30","-15.787253499031067","35.03446666523814","0.0","18","30","64","85","1400","-533","-26454","13","150","150.24","116.02","34.22","37.67","37.1","20.52","89776","37.69","DUALSPOT-UV-BLUE-GREEN-RED-IR","837033","730636","905682","0.981504","0.183517","0.000000","795766","914683","760762","0.395244","-0.099140","0.000000","895375","923871","816363","0.277084","-0.188887","0.000000","879928","942934","864843","0.154453","-0.294989","0.000000","736071","854028","951095","0.601587","0.098192","0.000000","2252","950","2252","582","-3295","582","364","-4858","364","-126","-7341","-126","3858","2157","3858",""
"MA200-0416","29091","87","1","1.10","1.4","2023-05-27T11:53:00","120","2023/05/27","11:53:00","-15.787253320217133","35.034460324794054","0.0","18","30","64","85","1204","-427","-26003","13","150","150.36","115.87","34.49","38.01","36.6","20.62","89784","37.94","DUALSPOT-UV-BLUE-GREEN-RED-IR","838964","732564","908100","1.023042","0.188396","0.000000","797502","916861","762490","0.403451","-0.113159","0.000000","896271","925000","817251","0.281548","-0.207143","0.000000","880564","943846","865475","0.153923","-0.319754","0.000000","739956","858796","956456","0.635999","0.103182","0.000000","2105","830","2105","525","-3013","525","319","-4394","319","-45","-7204","-45","4148","2021","4148",""
"MA200-0416","29092","87","1","1.10","1.4","2023-05-27T11:53:30","120","2023/05/27","11:53:30","-15.787250220775604","35.034457325935364","0.0","18","30","64","85","1232","-540","-26191","13","150","150.23","115.67","34.55","38.34","36.1","20.68","89772","38.13","DUALSPOT-UV-BLUE-GREEN-RED-IR","840478","734196","910201","1.069321","0.196287","0.000000","798692","918434","763730","0.418591","-0.123727","0.000000","893269","922121","814534","0.289260","-0.224918","0.000000","881448","945051","866384","0.158172","-0.341862","0.000000","738580","857439","955020","0.671754","0.108707","0.000000","2349","1341","2349","970","-2267","970","553","-4270","553","368","-6419","368","4318","2233","4318",""
"MA200-0416","29093","87","1","1.10","1.4","2023-05-27T11:54:00","120","2023/05/27","11:54:00","-15.787236154079437","35.03446166589856","0.0","18","30","64","85","1276","-456","-26375","13","150","149.45","115.43","34.01","38.63","35.5","20.67","89772","38.44","DUALSPOT-UV-BLUE-GREEN-RED-IR","840479","734497","910636","1.117224","0.203586","0.000000","798941","918988","764101","0.432747","-0.134300","0.000000","893497","922587","814849","0.297451","-0.239098","0.000000","875409","938818","860478","0.158357","-0.365530","0.000000","737815","856853","954372","0.706672","0.111773","0.000000","2437","1260","2437","909","-2304","909","589","-3461","589","16","-6981","16","4225","1259","4225",""
"MA200-0416","29094","87","1","1.10","1.4","2023-05-27T11:54:30","120","2023/05/27","11:54:30","-15.787229835987091","35.03445899486542","0.0","18","30","64","85","1360","-504","-26240","13","150","149.83","115.31","34.52","38.84","34.6","20.43","89768","38.69","DUALSPOT-UV-BLUE-GREEN-RED-IR","832519","727824","902433","1.164453","0.212394","0.000000","798828","918996","764071","0.446164","-0.141132","0.000000","894071","923365","815427","0.307756","-0.249934","0.000000","875829","939433","860888","0.162577","-0.383078","0.000000","736825","855973","953409","0.743068","0.114149","0.000000","2405","1498","2405","862","-1467","862","741","-2606","741","367","-5100","367","4409","961","4409",""
"MA200-0416","29095","87","1","1.10","1.4","2023-05-27T11:55:00","120","2023/05/27","11:55:00","-15.78722995519638","35.034461326897144","0.0","18","30","64","85","1284","-640","-26268","13","150","150.03","114.88","35.15","39.00","33.8","20.18","89768","38.88","DUALSPOT-UV-BLUE-GREEN-RED-IR","839751","734402","910651","1.206041","0.218839","0.000000","798027","918327","763454","0.460731","-0.148386","0.000000","893678","923159","815167","0.319504","-0.259643","0.000000","881213","945428","866235","0.166803","-0.401395","0.000000","739111","858923","956658","0.772670","0.112450","0.000000","2126","1076","2126","940","-1529","940","849","-2293","849","369","-5228","369","3599","-675","3599",""
"MA200-0416","29096","87","1","1.10","1.4","2023-05-27T11:55:30","120","2023/05/27","11:55:30","-15.787233233451843","35.0344556607306","0.0","18","30","64","85","1233","-566","-26141","13","150","150.16","115.55","34.61","39.15","32.9","19.87","89776","39.06","DUALSPOT-UV-BLUE-GREEN-RED-IR","835431","730846","906320","1.246714","0.225875","0.000000","801054","922004","766462","0.476455","-0.152158","0.000000","896235","925979","817636","0.331312","-0.264721","0.000000","879296","943537","864403","0.172984","-0.414198","0.000000","737667","857432","954982","0.794288","0.110937","0.000000","2067","1194","2067","1008","-808","1008","848","-1218","848","536","-3711","536","2613","-610","2613",""
"MA200-0416","29097","87","1","1.10","1.4","2023-05-27T11:56:00","120","2023/05/27","11:56:00","-15.78723520040512","35.034461829811335","0.0","18","30","64","85","1312","-600","-26040","13","150","149.87","115.34","34.53","39.27","32.1","19.60","89776","39.19","DUALSPOT-UV-BLUE-GREEN-RED-IR","836238","732022","907982","1.328904","0.245349","0.000000","794991","915441","761149","0.532382","-0.140840","0.000000","892424","922395","814567","0.377541","-0.256503","0.000000","879860","944498","865293","0.204026","-0.414729","0.000000","738060","858102","955750","0.822086","0.111561","0.000000","4185","3312","4185","3594","2429","3594","3327","1975","3327","2700","-154","2700","3366","252","3366",""
"MA200-0416","29098","87","1","1.10","1.4","2023-05-27T11:56:30","120","2023/05/27","11:56:30","-15.787235856056213","35.03446666523814","0.0","18","30","64","85","1272","-568","-26040","13","150","149.96","114.76","35.20","39.36","31.4","19.31","89780","39.25","DUALSPOT-UV-BLUE-GREEN-RED-IR","831527","728319","903485","1.395566","0.259763","0.000000","797509","918685","763912","0.579118","-0.131023","0.000000","894325","924650","816634","0.415980","-0.249284","0.000000","875248","939784","860991","0.233650","-0.413399","0.000000","734730","854413","951668","0.844053","0.111642","0.000000","3411","2404","3411","3019","2067","3019","2780","1702","2780","2589","378","2589","2674","32","2674",""
"MA200-0416","29099","87","1","1.10","1.4","2023-05-27T11:57:00","120","2023/05/27","11:57:00","-15.787232756614685","35.03447099030018","0.0","18","30","64","85","1320","-588","-26308","13","150","150.29","115.47","34.82","39.41","30.8","19.04","89780","39.31","DUALSPOT-UV-BLUE-GREEN-RED-IR","832159","729286","904911","1.475607","0.280914","0.000000","798269","919941","765072","0.637817","-0.115877","0.000000","889853","920386","812962","0.467949","-0.234693","0.000000","874659","939450","860762","0.273001","-0.404376","0.000000","734718","854580","951866","0.868467","0.114602","0.000000","4071","3567","4071","3768","3224","3768","3736","3479","3736","3418","2600","3418","2953","1187","2953",""
"MA200-0416","29100","87","1","1.10","1.4","2023-05-27T11:57:30","120","2023/05/27","11:57:30","-15.787238657474518","35.03446416184306","0.0","18","30","64","84","1280","-600","-26316","13","150","150.09","115.31","34.78","39.47","30.3","18.81","89776","39.38","DUALSPOT-UV-BLUE-GREEN-RED-IR","828937","726777","901938","1.541900","0.297836","0.000000","795935","917567","763174","0.688058","-0.102132","0.000000","892185","923029","815390","0.509804","-0.223541","0.000000","871856","936646","858263","0.306361","-0.396126","0.000000","733426","853183","950279","0.883588","0.115929","0.000000","3376","2857","3376","3229","2929","3229","3013","2662","3013","2902","2379","2902","1831","533","1831",""
"MA200-0416","29101","87","1","1.10","1.4","2023-05-27T11:58:00","120","2023/05/27","11:58:00","-15.787236988544464","35.03446865826845","0.0","18","30","64","85","1548","-468","-26716","13","150","149.99","115.37","34.61","39.55","29.9","18.69","89768","39.38","DUALSPOT-UV-BLUE-GREEN-RED-IR","830307","728198","903731","1.576055","0.304462","0.000000","796383","918274","763826","0.713879","-0.097591","0.000000","892758","923810","816097","0.530714","-0.218492","0.000000","874317","939467","860852","0.324881","-0.392824","0.000000","734206","854122","951388","0.887790","0.117947","0.000000","1738","1124","1738","1659","972","1659","1504","1210","1504","1610","957","1610","508","814","508",""
"MA200-0416","29102","87","1","1.10","1.4","2023-05-27T11:58:30","120","2023/05/27","11:58:30","-15.787229835987091","35.03448032587767","0.0","18","30","64","85","1191","-629","-26008","13","150","150.56","115.63","34.92","39.70","29.7","18.73","89768","39.38","DUALSPOT-UV-BLUE-GREEN-RED-IR","829679","727887","903395","1.613168","0.311534","0.000000","796831","918992","764437","0.739657","-0.093667","0.000000","891929","923142","815538","0.553905","-0.217002","0.000000","873130","938294","859807","0.341606","-0.391470","0.000000","737527","857988","955742","0.892562","0.120869","0.000000","1885","1189","1885","1652","832","1652","1665","354","1665","1451","388","1451","576","1168","576",""
"MA200-0416","29103","87","1","1.10","1.4","2023-05-27T11:59:00","120","2023/05/27","11:59:00","-15.78722232580185","35.034477826207876","0.0","18","30","64","84","1308","-579","-26312","13","150","150.03","115.20","34.83","39.85","29.7","18.86","89772","39.38","DUALSPOT-UV-BLUE-GREEN-RED-IR","831021","729242","905173","1.650712","0.318460","0.000000","797668","920180","765401","0.764674","-0.092422","0.000000","892850","924265","816520","0.574671","-0.217688","0.000000","874016","939422","860808","0.356405","-0.392681","0.000000","737589","858100","955858","0.898662","0.124640","0.000000","1914","1167","1914","1609","265","1609","1496","-163","1496","1288","-348","1288","739","1512","739",""
"MA200-0416","29104","87","1","1.10","1.4","2023-05-27T11:59:30","120","2023/05/27","11:59:30","-15.787218511104584","35.03447882831097","0.0","18","30","64","85","1319","-519","-26675","13","150","150.62","115.55","35.07","40.03","29.7","18.99","89772","39.44","DUALSPOT-UV-BLUE-GREEN-RED-IR","833781","731947","908656","1.697165","0.329525","0.000000","793587","915738","761733","0.792700","-0.091468","0.000000","893572","925257","817363","0.595593","-0.220793","0.000000","876903","942694","863817","0.373590","-0.396239","0.000000","737721","858350","956227","0.915596","0.130058","0.000000","2361","1853","2361","1798","201","1798","1503","-735","1503","1491","-1017","1491","2047","2158","2047",""
"MA200-0416","29105","87","1","1.10","1.4","2023-05-27T12:00:00","120","2023/05/27","12:00:00","-15.787219882011414","35.0344786606729","0.0","18","30","64","84","1392","-496","-26644","13","150","150.28","114.84","35.45","40.24","29.7","19.18","89776","39.56","DUALSPOT-UV-BLUE-GREEN-RED-IR","827391","726796","902386","1.769845","0.344905","0.000000","794530","917252","763026","0.839734","-0.088256","0.000000","890428","922392","814818","0.631952","-0.223511","0.000000","878864","945144","865978","0.398528","-0.402933","0.000000","733576","853694","951155","0.945980","0.140814","0.000000","3717","2548","3717","3036","671","3036","2628","-636","2628","2178","-1894","2178","3696","4238","3696",""
"MA200-0416","29106","87","1","1.10","1.4","2023-05-27T12:00:30","120","2023/05/27","12:00:30","-15.787224471569061","35.03447699174285","0.0","18","30","64","84","1304","-520","-26563","13","150","149.33","114.92","34.41","40.44","29.8","19.41","89768","39.69","DUALSPOT-UV-BLUE-GREEN-RED-IR","834827","733643","911020","1.838452","0.358535","0.000000","793818","916779","762609","0.881052","-0.088579","0.000000","890101","922366","814723","0.664991","-0.228691","0.000000","878553","945076","865831","0.424885","-0.410175","0.000000","736481","857297","955219","0.980068","0.149501","0.000000","3506","2326","3506","2665","-69","2665","2386","-1249","2386","2301","-2111","2301","4143","3526","4143",""
"MA200-0416","29107","87","1","1.10","1.4","2023-05-27T12:01:00","120","2023/05/27","12:01:00","-15.787222981452942","35.03447765856981","0.0","18","30","64","85","1360","-596","-26363","13","150","150.14","115.50","34.64","40.67","29.8","19.61","89772","39.88","DUALSPOT-UV-BLUE-GREEN-RED-IR","832786","732144","909168","1.878540","0.364736","0.000000","792787","915793","761721","0.896054","-0.097202","0.000000","892790","925355","817270","0.674456","-0.241458","0.000000","875544","942058","862926","0.428318","-0.426268","0.000000","733504","854033","951647","1.005781","0.155225","0.000000","2038","1051","2038","962","-1845","962","680","-3059","680","298","-4660","298","3109","2308","3109",""
"MA200-0416","29108","87","1","1.10","1.4","2023-05-27T12:01:30","120","2023/05/27","12:01:30","-15.787233531475067","35.03447049111128","0.0","18","30","64","84","1412","-612","-25588","13","150","149.83","115.24","34.59","40.92","29.9","19.90","89776","40.06","DUALSPOT-UV-BLUE-GREEN-RED-IR","829223","729269","905678","1.922835","0.372911","0.000000","795651","919342","764594","0.912547","-0.106752","0.000000","891339","924078","816045","0.685924","-0.255018","0.000000","872615","939103","860090","0.432705","-0.442778","0.000000","734722","855638","953490","1.037130","0.161644","0.000000","2257","1387","2257","1061","-2046","1061","826","-3254","826","381","-4788","381","3800","2592","3800",""
"MA200-0416","29109","87","1","1.10","1.4","2023-05-27T12:02:00","120","2023/05/27","12:02:00","-15.787239015102386","35.03447115793824","0.0","18","30","64","84","1268","-552","-26452","13","150","150.24","114.84","35.40","41.20","30.0","20.16","89768","40.31","DUALSPOT-UV-BLUE-GREEN-RED-IR","830381","730568","907342","1.967149","0.378004","0.000000","791215","914448","760447","0.926822","-0.119722","0.000000","891899","924887","816614","0.695681","-0.269788","0.000000","872935","939658","860411","0.436019","-0.462907","0.000000","733568","854544","952353","1.071474","0.167514","0.000000","2266","844","2266","921","-2716","921","705","-3464","705","289","-5705","289","4177","2316","4177",""
"MA200-0416","29110","87","1","1.10","1.4","2023-05-27T12:02:30","120","2023/05/27","12:02:30","-15.787229359149933","35.034476824104786","0.0","18","30","64","84","1400","-544","-26475","13","150","150.39","115.58","34.82","41.47","30.0","20.37","89752","40.50","DUALSPOT-UV-BLUE-GREEN-RED-IR","830262","730673","907540","2.003327","0.382682","0.000000","796976","921303","766023","0.935197","-0.130527","0.000000","891618","924759","816383","0.698429","-0.286883","0.000000","872832","939727","860285","0.434798","-0.482821","0.000000","736361","858020","956255","1.103141","0.172776","0.000000","1838","789","1838","537","-2300","537","197","-4076","197","-106","-5738","-106","3827","2111","3827",""
"MA200-0416","29111","87","1","1.10","1.4","2023-05-27T12:03:00","120","2023/05/27","12:03:00","-15.7872154712677","35.03448215872049","0.0","18","30","64","84","1168","-608","-26863","13","150","150.49","116.21","34.28","41.75","29.7","20.48","89756","40.75","DUALSPOT-UV-BLUE-GREEN-RED-IR","829203","730018","906734","2.039282","0.386812","0.000000","796175","920574","765331","0.942105","-0.144010","0.000000","891795","925128","816553","0.701814","-0.303095","0.000000","872293","939346","859749","0.432574","-0.504464","0.000000","734854","856485","954565","1.134292","0.176615","0.000000","1817","707","1817","440","-2915","440","241","-3926","241","-191","-6333","-191","3744","1564","3744",""
"MA200-0416","29112","87","1","1.10","1.4","2023-05-27T12:03:30","120","2023/05/27","12:03:30","-15.787212193012238","35.03448382765055","0.0","18","30","64","84","1560","-483","-27552","13","150","150.43","116.27","34.16","41.98","29.4","20.51","89752","40.94","DUALSPOT-UV-BLUE-GREEN-RED-IR","829258","730254","907080","2.072891","0.391002","0.000000","796322","920893","765520","0.947893","-0.156074","0.000000","892205","925781","817000","0.704127","-0.319451","0.000000","879176","946930","866512","0.429046","-0.527906","0.000000","733259","854870","952768","1.161430","0.178410","0.000000","1697","720","1697","369","-2618","369","165","-3975","165","-304","-6885","-304","3260","734","3260",""
"MA200-0416","29113","87","1","1.10","1.4","2023-05-27T12:04:00","120","2023/05/27","12:04:00","-15.787213206291199","35.03448399156332","0.0","18","30","64","84","1288","-408","-27060","13","150","150.16","115.67","34.49","42.23","29.2","20.61","89752","41.19","DUALSPOT-UV-BLUE-GREEN-RED-IR","827340","728765","905201","2.100290","0.391151","0.000000","794733","919252","764032","0.953477","-0.170629","0.000000","891374","925064","816225","0.706636","-0.334990","0.000000","879051","946945","866342","0.427591","-0.547379","0.000000","735576","857742","956019","1.186227","0.181065","0.000000","1391","25","1391","357","-3128","357","180","-3740","180","-126","-5664","-126","2994","1075","2994",""
"MA200-0416","29114","87","1","1.10","1.4","2023-05-27T12:04:30","120","2023/05/27","12:04:30","-15.787217020988464","35.03448032587767","0.0","18","30","64","84","1484","-460","-26240","13","150","149.37","115.68","33.70","42.51","29.0","20.75","89756","41.44","DUALSPOT-UV-BLUE-GREEN-RED-IR","826557","728267","904631","2.129234","0.392303","0.000000","794083","918638","763435","0.957537","-0.182426","0.000000","891636","925460","816463","0.709080","-0.349020","0.000000","878129","946147","865436","0.426936","-0.567704","0.000000","733795","855845","953929","1.208959","0.182714","0.000000","1469","200","1469","260","-2595","260","175","-3456","175","-56","-6051","-56","2745","683","2745",""
"MA200-0416","29115","87","1","1.10","1.4","2023-05-27T12:05:00","120","2023/05/27","12:05:00","-15.787225544452667","35.03447216004133","0.0","18","30","64","84","1379","-545","-26566","13","150","149.63","115.83","33.80","42.79","28.9","20.90","89764","41.63","DUALSPOT-UV-BLUE-GREEN-RED-IR","826688","728625","905125","2.166762","0.397386","0.000000","794315","919090","763733","0.969201","-0.193475","0.000000","891274","925308","816219","0.715726","-0.364703","0.000000","876755","944851","864106","0.428575","-0.585764","0.000000","731497","853358","951208","1.233789","0.186115","0.000000","1902","883","1902","746","-2423","746","476","-3852","476","141","-5360","141","2994","1405","2994",""
"MA200-0416","29116","87","1","1.10","1.4","2023-05-27T12:05:30","120","2023/05/27","12:05:30","-15.787233352661133","35.034471325576305","0.0","18","30","64","84","1432","-544","-26491","13","150","150.29","115.55","34.74","43.08","28.7","21.07","89764","41.88","DUALSPOT-UV-BLUE-GREEN-RED-IR","809266","724648","905609","4.101163","0.927894","-0.031199","779805","914627","763816","2.607942","0.241447","0.000000","877143","921534","816356","2.139860","0.006848","0.000000","864803","941377","863927","1.610970","-0.285786","0.000000","727384","854759","955300","2.105844","0.419860","0.000000","98326","89695","87172","105133","92811","105133","102321","88796","102321","102659","86633","102659","105425","93994","105425",""
"MA200-0416","29117","87","1","1.10","1.4","2023-05-27T12:06:00","120","2023/05/27","12:06:00","-15.78724068403244","35.03446615859866","0.0","18","30","64","84","1300","-568","-26447","13","150","149.80","115.84","33.96","43.37","28.4","21.14","89772","42.13","DUALSPOT-UV-BLUE-GREEN-RED-IR","806113","724310","906351","4.767644","1.111995","-0.017127","777148","914150","764098","3.156620","0.383108","-0.049832","874485","921180","816678","2.633982","0.128137","0.000000","862650","941167","864215","2.028459","-0.190883","0.000000","724958","853365","954315","2.434248","0.506776","0.000000","33794","31838","31243","35114","30921","30341","35415","29649","35415","36159","28034","36159","39604","35749","39604",""
"MA200-0416","29118","87","1","1.10","1.4","2023-05-27T12:06:30","120","2023/05/27","12:06:30","-15.787233233451843","35.03446765989065","0.0","18","30","64","84","1324","-580","-26352","13","150","150.41","115.44","34.96","43.66","28.2","21.24","89784","42.38","DUALSPOT-UV-BLUE-GREEN-RED-IR","805311","724151","906335","4.919538","1.149454","-0.065017","776522","913975","764010","3.265041","0.399118","-0.429556","874128","921329","816801","2.728897","0.138115","0.000000","863164","942216","865145","2.107619","-0.187927","0.000000","723365","851887","952735","2.517236","0.524134","0.000000","7728","6292","5855","6962","3394","2897","6825","2369","6825","6879","848","6879","10042","6935","10042",""
"MA200-0416","29119","87","1","1.10","1.4","2023-05-27T12:07:00","120","2023/05/27","12:07:00","-15.7872194647789","35.034474827349186","0.0","18","30","64","84","1262","-537","-26354","13","150","149.89","115.39","34.50","43.94","27.8","21.27","89772","42.63","DUALSPOT-UV-BLUE-GREEN-RED-IR","807611","726458","909272","4.960168","1.156034","-0.299365","777766","915628","765307","3.279298","0.390851","0.435431","874680","922104","817388","2.738952","0.125294","0.000000","863282","942584","865276","2.111299","-0.207996","0.000000","722199","850704","951463","2.546135","0.527971","0.000000","2068","1120","832","915","-1776","-2140","723","-3085","723","319","-5836","319","3498","1553","3498",""
"MA200-0416","29120","87","1","1.10","1.4","2023-05-27T12:07:30","120","2023/05/27","12:07:30","-15.787213206291199","35.03447616100311","0.0","18","30","64","84","1420","-458","-26512","13","150","150.29","114.96","35.34","44.20","27.4","21.24","89760","42.88","DUALSPOT-UV-BLUE-GREEN-RED-IR","809046","727954","911206","4.994491","1.160581","-0.573637","778025","916112","765604","3.287428","0.379037","0.359761","875034","922662","817738","2.744674","0.110382","0.000000","862957","942402","864942","2.113079","-0.227254","0.000000","725222","854477","955692","2.570621","0.528398","0.000000","1753","755","453","524","-2478","-2869","413","-3503","413","155","-5467","155","2975","168","2975",""
"MA200-0416","29121","87","1","1.10","1.4","2023-05-27T12:08:00","120","2023/05/27","12:08:00","-15.787212789058685","35.03447699174285","0.0","18","30","64","83","1362","-508","-26358","13","150","150.03","115.55","34.48","44.47","27.0","21.26","89760","43.13","DUALSPOT-UV-BLUE-GREEN-RED-IR","802372","722152","903949","5.024259","1.162075","2.622429","776713","914758","764389","3.292137","0.363809","0.328428","874638","922457","817431","2.748441","0.093346","0.000000","861453","940933","863444","2.112517","-0.249380","0.000000","723683","852852","953896","2.593933","0.529679","0.000000","1513","254","-124","302","-3274","-3718","270","-4102","270","-48","-6438","-48","2818","518","2818",""
"MA200-0416","29122","87","1","1.10","1.4","2023-05-27T12:08:30","120","2023/05/27","12:08:30","-15.787210702896118","35.03447765856981","0.0","18","30","64","84","1348","-508","-26396","13","150","149.87","115.42","34.45","44.74","26.8","21.33","89764","43.44","DUALSPOT-UV-BLUE-GREEN-RED-IR","805956","725590","908250","5.051565","1.162311","0.955958","778457","916978","766140","3.301293","0.353229","0.370896","872517","920398","815473","2.752984","0.077754","0.000000","863881","943787","865858","2.112577","-0.269180","0.000000","724901","854458","955692","2.615703","0.530186","0.000000","1389","40","-362","588","-2276","-2620","326","-3757","326","5","-5766","5","2634","205","2634",""
"MA200-0416","29123","87","1","1.10","1.4","2023-05-27T12:09:00","120","2023/05/27","12:09:00","-15.787214457988739","35.03448199108243","0.1","18","30","64","84","1420","-479","-27124","13","150","150.18","115.06","35.11","45.03","26.5","21.41","89764","43.69","DUALSPOT-UV-BLUE-GREEN-RED-IR","807167","726868","909865","5.080290","1.162431","0.902543","772574","910204","760404","3.306442","0.340248","0.334883","872824","920878","815790","2.756446","0.063144","0.000000","858340","937913","860321","2.113748","-0.287848","0.000000","724607","854297","955565","2.638641","0.532147","0.000000","1466","20","-408","331","-2740","-3093","249","-3454","249","102","-5333","102","2784","780","2784",""
"MA200-0416","29124","87","1","1.10","1.4","2023-05-27T12:09:30","120","2023/05/27","12:09:30","-15.787220299243927","35.034485656768084","0.0","17","30","64","84","1372","-532","-26452","13","150","150.35","115.50","34.85","45.32","26.2","21.49","89760","43.94","DUALSPOT-UV-BLUE-GREEN-RED-IR","802532","722919","904917","5.109545","1.163269","1.333839","773088","910985","760944","3.312254","0.326936","0.337294","873026","921288","815991","2.759880","0.046378","0.000000","864690","945067","866687","2.112147","-0.309395","0.000000","723766","853504","954653","2.662778","0.533558","0.000000","1487","141","-255","372","-2831","-3182","246","-3994","246","-139","-6203","-139","2919","565","2919",""
"MA200-0416","29125","87","1","1.10","1.4","2023-05-27T12:10:00","120","2023/05/27","12:10:00","-15.787222981452942","35.034483660012484","0.0","17","30","64","84","1400","-516","-26528","13","150","149.90","115.55","34.34","45.60","26.0","21.56","89760","44.25","DUALSPOT-UV-BLUE-GREEN-RED-IR","805509","725794","908525","5.138193","1.163866","1.157170","774401","912709","762276","3.316593","0.313169","0.326867","874114","922599","817015","2.762770","0.030141","0.000000","858107","938060","860080","2.109901","-0.330292","0.000000","723922","853896","955090","2.686868","0.535932","0.000000","1456","102","-294","278","-2971","-3310","207","-3925","207","-195","-6104","-195","2912","965","2912",""
"MA200-0416","29126","87","1","1.10","1.4","2023-05-27T12:10:30","120","2023/05/27","12:10:30","-15.787236332893372","35.03448282554746","0.0","17","30","64","83","1362","-458","-26479","13","150","149.67","115.18","34.49","45.89","25.8","21.69","89760","44.56","DUALSPOT-UV-BLUE-GREEN-RED-IR","801261","722201","904066","5.172590","1.166549","-4.079186","774893","913519","762857","3.325021","0.299579","0.350729","871237","919769","814382","2.766669","0.011009","0.000000","858686","938859","860635","2.108491","-0.352417","0.000000","723576","853693","954898","2.713621","0.537679","0.000000","1754","457","79","542","-2921","-3264","280","-4605","280","-122","-6436","-122","3244","707","3244",""
"MA200-0416","29127","87","1","1.10","1.4","2023-05-27T12:11:00","120","2023/05/27","12:11:00","-15.78723019361496","35.034476328641176","0.1","17","30","64","83","1328","-488","-26291","13","150","149.83","115.12","34.71","46.20","25.7","21.85","89760","44.81","DUALSPOT-UV-BLUE-GREEN-RED-IR","802642","723677","905889","5.204807","1.167518","1.388378","775395","914283","763347","3.331947","0.284606","0.337964","871336","920105","814531","2.770889","-0.006824","0.000000","859717","940200","861658","2.109805","-0.374192","0.000000","722719","852858","954017","2.739093","0.540054","0.000000","1643","163","-264","446","-3197","-3537","304","-4265","304","114","-6292","114","3091","955","3091",""
"MA200-0416","29128","87","1","1.10","1.4","2023-05-27T12:11:30","120","2023/05/27","12:11:30","-15.787220001220703","35.03448199108243","0.0","17","30","64","83","1416","-570","-26441","13","150","149.70","114.80","34.90","46.49","25.5","21.98","89772","45.13","DUALSPOT-UV-BLUE-GREEN-RED-IR","805842","726810","909850","5.244367","1.171907","-0.856081","776872","916243","764917","3.342939","0.272787","0.375052","872401","921421","815564","2.777481","-0.022250","0.000000","862574","943532","864547","2.110833","-0.395589","0.000000","722816","853224","954409","2.766210","0.541439","0.000000","2024","738","368","709","-2510","-2796","476","-3669","476","89","-6151","89","3299","554","3299",""
"MA200-0416","29129","87","1","1.10","1.4","2023-05-27T12:12:00","120","2023/05/27","12:12:00","-15.787213623523712","35.03448332846165","0.0","17","30","64","83","1414","-725","-26265","13","150","149.44","115.34","34.09","46.76","25.1","21.97","89760","45.44","DUALSPOT-UV-BLUE-GREEN-RED-IR","799369","721230","902867","5.279286","1.173563","2.569488","775682","915044","763792","3.351301","0.259840","0.350176","870929","920009","814221","2.782673","-0.037961","0.000000","862227","943369","864197","2.109256","-0.417458","0.000000","717751","847404","947935","2.791193","0.543147","0.000000","1778","285","-141","537","-2815","-3096","373","-3826","373","-137","-6435","-137","3025","699","3025",""
"MA200-0416","29130","87","1","1.10","1.4","2023-05-27T12:12:30","120","2023/05/27","12:12:30","-15.787218034267426","35.034477327018976","0.0","17","30","64","83","1356","-580","-26419","13","150","149.96","115.71","34.25","47.04","24.8","22.03","89768","45.69","DUALSPOT-UV-BLUE-GREEN-RED-IR","803326","724986","907654","5.312507","1.177951","-0.464044","773579","912717","761775","3.357232","0.245321","0.330955","872405","921811","815662","2.787727","-0.054627","0.000000","859994","941121","861949","2.110295","-0.437230","0.000000","722969","853788","955063","2.816465","0.543480","0.000000","1686","752","486","379","-3142","-3420","362","-4039","362","90","-5791","90","3051","136","3051",""
"MA200-0416","29131","87","1","1.10","1.4","2023-05-27T12:13:00","120","2023/05/27","12:13:00","-15.787216305732727","35.034465827047825","0.0","17","30","64","83","1416","-532","-26619","13","150","150.36","115.39","34.96","47.29","24.7","22.12","89768","46.00","DUALSPOT-UV-BLUE-GREEN-RED-IR","801758","723769","906107","5.340348","1.175611","0.480747","771791","910805","760063","3.364533","0.233865","0.349922","870608","920074","813991","2.790170","-0.070631","0.000000","859415","940691","861368","2.109781","-0.458550","0.000000","720916","851586","952595","2.839786","0.543695","0.000000","1417","-393","-904","469","-2428","-2645","175","-3800","175","-44","-6117","-44","2823","85","2823",""
"MA200-0416","29132","87","1","1.10","1.4","2023-05-27T12:13:30","120","2023/05/27","12:13:30","-15.787211835384369","35.03446949273348","0.0","17","30","64","83","1484","-580","-26575","13","150","149.76","115.39","34.37","47.56","24.4","22.16","89772","46.19","DUALSPOT-UV-BLUE-GREEN-RED-IR","805359","727279","910586","5.381312","1.183921","-0.128509","775096","914902","763454","3.376490","0.223905","0.392747","871271","920983","814701","2.798634","-0.081748","0.000000","861765","943437","863774","2.112995","-0.475043","0.000000","721246","852159","953245","2.862802","0.543960","0.000000","2085","1420","1232","768","-2148","-2355","608","-2685","608","279","-4814","279","2786","107","2786",""
"MA200-0416","29133","87","1","1.10","1.4","2023-05-27T12:14:00","120","2023/05/27","12:14:00","-15.787213861942291","35.034470822662115","0.0","17","30","64","83","1545","-516","-26570","13","150","149.51","115.20","34.31","47.76","24.0","22.03","89768","46.44","DUALSPOT-UV-BLUE-GREEN-RED-IR","799351","722155","904238","5.431705","1.193370","-0.166412","775193","915261","763695","3.397614","0.219690","0.669057","870368","920232","813979","2.813762","-0.089836","0.000000","861843","943738","863914","2.121527","-0.490021","0.000000","720618","851609","952653","2.888960","0.544611","0.000000","2569","1617","1349","1359","-910","-1067","1090","-1957","1090","743","-4379","743","3172","265","3172",""
"MA200-0416","29134","87","1","1.10","1.4","2023-05-27T12:14:30","120","2023/05/27","12:14:30","-15.787222504615784","35.034465827047825","0.0","17","30","64","83","1608","-529","-26650","13","150","150.08","115.84","34.24","47.86","23.4","21.74","89768","46.63","DUALSPOT-UV-BLUE-GREEN-RED-IR","803131","725803","908944","5.477237","1.204248","-0.059518","773416","913321","762082","3.416198","0.218122","1.077358","872445","922592","816040","2.827561","-0.094491","0.000000","860592","942556","862705","2.126749","-0.503193","0.000000","722949","854596","955935","2.910640","0.541053","0.000000","2308","1865","1741","1189","-339","-443","988","-1128","988","452","-3859","452","2614","-1451","2614",""
"MA200-0416","29135","87","1","1.10","1.4","2023-05-27T12:15:00","120","2023/05/27","12:15:00","-15.78722882270813","35.03446499630809","0.0","17","30","64","83","1533","-650","-26541","13","150","149.76","115.20","34.57","47.92","22.9","21.44","89764","46.75","DUALSPOT-UV-BLUE-GREEN-RED-IR","799762","722993","905463","5.517257","1.214088","-0.054633","775532","915991","764316","3.435099","0.218141","4.824232","874056","924438","817676","2.842987","-0.095415","0.000000","863001","945323","865191","2.135700","-0.511461","0.000000","720778","852155","953194","2.925239","0.537533","0.000000","2040","1671","1567","1216","4","-78","1111","-221","1111","779","-2399","779","1770","-1422","1770",""
"MA200-0416","29136","87","1","1.10","1.4","2023-05-27T12:15:30","120","2023/05/27","12:15:30","-15.787227213382721","35.034460827708244","0.4","17","30","64","83","4023","8712","-24476","13","150","149.57","114.96","34.61","47.92","22.4","21.06","89764","46.75","DUALSPOT-UV-BLUE-GREEN-RED-IR","798799","722298","904736","5.557065","1.226181","0.002062","774747","915181","763718","3.457773","0.225030","0.002838","869403","919626","813483","2.860170","-0.088799","0.000000","864357","946917","866683","2.147867","-0.511079","0.000000","721288","852871","953943","2.931371","0.533292","0.000000","2033","2052","2057","1462","1475","1476","1241","1587","1241","1061","110","1061","745","-1711","745",""
"MA200-0416","29137","87","1","1.10","1.4","2023-05-27T12:16:00","120","2023/05/27","12:16:00","-15.787185370922089","35.03450799360871","0.9","17","30","64","83","3975","7466","-25691","13","150","150.29","115.08","35.22","47.85","21.8","20.54","89764","46.44","DUALSPOT-UV-BLUE-GREEN-RED-IR","801364","724841","908107","5.603385","1.245100","0.053685","772205","912337","761463","3.487361","0.241834","0.137367","872524","922956","816585","2.884948","-0.073247","0.000000","859473","941668","861930","2.162714","-0.503963","0.000000","719917","851335","952163","2.936435","0.527933","0.000000","2364","3155","3381","1906","3537","3658","1787","3666","1787","1294","2027","1294","614","-2126","614",""
"MA200-0416","29138","87","1","1.10","1.4","2023-05-27T12:16:30","120","2023/05/27","12:16:30","-15.787177383899689","35.03451915830374","0.4","17","30","64","83","1588","-372","-26800","13","150","150.11","115.37","34.74","47.75","21.3","20.10","89764","46.00","DUALSPOT-UV-BLUE-GREEN-RED-IR","797758","721738","904158","5.629052","1.245536","1.017328","773636","914200","763012","3.508121","0.244628","-0.417839","872311","922884","816564","2.907961","-0.062072","0.000000","863575","946260","866173","2.179762","-0.497900","0.000000","719391","850697","951396","2.931402","0.521519","0.000000","1306","73","-276","1333","596","540","1656","2670","1656","1482","1750","1482","-609","-2578","-609",""
"MA200-0416","29139","87","1","1.10","1.4","2023-05-27T12:17:00","120","2023/05/27","12:17:00","-15.787203550338745","35.03449849039316","1.3","17","30","64","82","1045","-762","-28575","13","150","150.39","115.00","35.39","47.66","21.3","20.03","89760","45.63","DUALSPOT-UV-BLUE-GREEN-RED-IR","799319","723293","906120","5.644267","1.243461","0.385343","771420","911721","761000","3.530336","0.249296","-0.146751","871316","921950","815815","2.929949","-0.054395","0.000000","858281","940468","860984","2.196598","-0.489038","0.000000","717503","848410","948776","2.922433","0.517680","0.000000","777","-344","-661","1432","977","943","1587","1801","1587","1468","2512","1468","-1089","-1515","-1089",""
"MA200-0416","29140","87","1","1.10","1.4","2023-05-27T12:17:30","120","2023/05/27","12:17:30","-15.787239134311676","35.0344356559217","0.5","17","30","64","83","7066","-25129","-6912","13","150","149.34","114.04","35.29","47.57","21.4","20.01","89760","45.44","DUALSPOT-UV-BLUE-GREEN-RED-IR","802367","726238","909914","5.674758","1.253107","0.004879","775425","916647","765233","3.564608","0.262487","0.058429","870131","920815","814946","2.956170","-0.040888","0.000000","862880","945677","865898","2.223389","-0.474178","0.000000","721148","852620","953582","2.915517","0.522079","0.000000","1570","1605","1615","2227","2770","2813","1908","3177","1908","2356","4224","2356","-847","1741","-847",""
"MA200-0416","29141","87","1","1.10","1.4","2023-05-27T12:18:00","120","2023/05/27","12:18:00","-15.78720486164093","35.03446515649557","0.0","17","30","64","83","12737","1025","-23270","13","150","150.43","114.96","35.47","47.42","21.1","19.70","89760","45.25","DUALSPOT-UV-BLUE-GREEN-RED-IR","798650","722998","906063","5.721159","1.276439","0.078255","773446","914460","763533","3.603917","0.286186","0.141211","868389","919073","813553","2.990585","-0.017231","0.000000","859220","941726","862421","2.252484","-0.452386","0.000000","719601","850720","951473","2.910215","0.524906","0.000000","2370","3863","4292","2534","4953","5161","2485","5537","2485","2539","6164","2539","-644","1113","-644",""
"MA200-0416","29142","87","1","1.10","1.4","2023-05-27T12:18:30","120","2023/05/27","12:18:30","-15.787196695804596","35.034457825124264","0.1","17","30","64","83","12728","1008","-23288","13","150","150.62","114.92","35.71","47.28","21.1","19.61","89756","45.19","DUALSPOT-UV-BLUE-GREEN-RED-IR","796703","721323","903962","5.736306","1.278558","-0.421533","771654","912430","761921","3.623974","0.292295","-0.006043","867686","918388","813014","3.009528","-0.008291","0.113333","859021","941580","862391","2.267837","-0.442343","0.000000","720209","851344","952166","2.898285","0.524773","0.000000","774","348","226","1293","1268","1266","1368","2078","2076","1340","2821","1340","-1450","-51","-1450",""
"MA200-0416","29143","87","1","1.10","1.4","2023-05-27T12:19:00","120","2023/05/27","12:19:00","-15.787204146385193","35.03445916250348","0.0","17","30","64","83","12548","1296","-23228","13","150","150.36","114.46","35.91","47.24","21.3","19.66","89764","45.25","DUALSPOT-UV-BLUE-GREEN-RED-IR","797227","721961","904849","5.768162","1.288122","-0.010161","772049","913082","762550","3.652454","0.303422","0.057828","871735","922833","817035","3.034639","0.003027","0.100262","858752","941390","862329","2.291582","-0.428515","0.000000","720492","851614","952466","2.891225","0.527626","0.000000","1634","1564","1544","1844","2297","2338","1821","2617","2618","2081","3863","2081","-861","1109","-861",""
"MA200-0416","29144","87","1","1.10","1.4","2023-05-27T12:19:30","120","2023/05/27","12:19:30","-15.787200331687927","35.034460827708244","0.0","17","30","64","82","12432","1588","-23412","13","150","149.76","114.40","35.36","47.21","21.4","19.75","89756","45.25","DUALSPOT-UV-BLUE-GREEN-RED-IR","798060","722857","906076","5.796131","1.298955","0.042428","773156","914494","763795","3.674477","0.312715","0.077599","868269","919258","813966","3.053164","0.012355","0.126767","860226","943018","863910","2.307156","-0.418144","0.000000","720939","852083","953034","2.886516","0.529494","0.000000","1436","1799","1904","1427","1947","1996","1344","2189","2193","1365","2942","1365","-575","737","-575",""
"MA200-0416","29145","87","1","1.10","1.4","2023-05-27T12:20:00","120","2023/05/27","12:20:00","-15.787199437618256","35.03445316106081","0.0","17","30","64","83","12452","1603","-23432","13","150","150.23","115.08","35.15","47.14","21.4","19.70","89756","45.31","DUALSPOT-UV-BLUE-GREEN-RED-IR","801871","726431","910637","5.825083","1.309400","0.032498","770342","911314","761223","3.698313","0.323612","0.095297","871058","922253","816701","3.071588","0.021118","0.116989","857428","940000","861238","2.322637","-0.408095","0.000000","720213","851221","952070","2.885959","0.531774","0.000000","1477","1745","1822","1535","2298","2371","1329","2069","2074","1349","2868","1349","-67","906","-67",""
"MA200-0416","29146","87","1","1.10","1.4","2023-05-27T12:20:30","120","2023/05/27","12:20:30","-15.787199914455414","35.03445749357343","0.0","18","30","64","82","12436","1676","-23472","13","150","150.49","114.53","35.96","47.12","21.5","19.75","89756","45.38","DUALSPOT-UV-BLUE-GREEN-RED-IR","797687","722742","906083","5.846707","1.315317","-0.034047","772113","913527","763049","3.712410","0.324989","-0.830070","868567","919741","814482","3.083497","0.023883","-0.115426","859641","942487","863528","2.332181","-0.405621","0.000000","721628","852867","953943","2.886722","0.534453","0.000000","1108","966","924","912","283","223","863","638","636","836","690","836","93","1040","93",""
"MA200-0416","29147","87","1","1.10","1.4","2023-05-27T12:21:00","120","2023/05/27","12:21:00","-15.787203192710876","35.03445966169238","0.0","18","30","64","83","12429","1595","-23387","13","150","150.08","114.84","35.24","47.14","21.7","19.89","89752","45.50","DUALSPOT-UV-BLUE-GREEN-RED-IR","795866","721212","904235","5.869592","1.322372","0.001008","769812","910881","760897","3.728288","0.327825","-0.226864","870673","922072","816560","3.096426","0.026332","-0.203025","863764","947071","867755","2.342408","-0.402843","0.000000","720073","851012","951902","2.888090","0.536227","0.000000","1170","1175","1177","1025","596","555","934","576","573","893","790","893","166","703","166",""
"MA200-0416","29148","87","1","1.10","1.4","2023-05-27T12:21:30","120","2023/05/27","12:21:30","-15.787201702594757","35.03445849567652","0.0","18","30","64","82","12484","1596","-23300","13","150","150.23","114.76","35.47","47.19","21.8","20.02","89748","45.56","DUALSPOT-UV-BLUE-GREEN-RED-IR","799219","724410","908343","5.901642","1.333238","0.018863","772232","913935","763472","3.747266","0.331735","-0.153910","872265","923874","818182","3.110397","0.027871","-0.596000","860957","944084","865042","2.352600","-0.400990","0.000000","721331","852542","953612","2.894256","0.538641","0.000000","1640","1799","1845","1225","817","777","1010","360","354","891","524","891","750","950","750",""
"MA200-0416","29149","87","1","1.10","1.4","2023-05-27T12:22:00","120","2023/05/27","12:22:00","-15.787200570106506","35.03445432707667","0.0","18","30","64","82","12476","1500","-23620","13","150","149.63","114.64","34.99","47.24","21.8","20.10","89748","45.63","DUALSPOT-UV-BLUE-GREEN-RED-IR","796829","722506","906067","5.946452","1.344673","-0.045232","769832","911259","761295","3.773898","0.337356","-0.135793","866440","917866","812872","3.130602","0.029283","-1.121289","857242","940138","861424","2.367656","-0.399446","0.000000","719747","850754","951658","2.905429","0.541626","0.000000","2295","1919","1809","1722","1190","1138","1463","335","324","1317","442","1317","1361","1192","1361",""
"MA200-0416","29150","87","1","1.10","1.4","2023-05-27T12:22:30","120","2023/05/27","12:22:30","-15.787198305130005","35.03445649519563","0.0","18","30","64","82","12492","1596","-23920","13","150","149.83","114.76","35.07","47.24","21.6","19.95","89744","45.75","DUALSPOT-UV-BLUE-GREEN-RED-IR","799211","724909","909265","6.003193","1.364170","0.023085","771654","913588","763332","3.805804","0.348054","0.025378","867439","919070","813995","3.153186","0.036996","0.033709","861499","944958","865863","2.384045","-0.396651","0.000000","721034","852388","953514","2.921474","0.543546","0.000000","2904","3265","3371","2061","2261","2281","1633","1825","1828","1432","799","1432","1953","764","1953",""
"MA200-0416","29151","87","1","1.10","1.4","2023-05-27T12:23:00","120","2023/05/27","12:23:00","-15.787199676036835","35.03445816040039","0.0","18","30","64","82","12441","1779","-23433","13","150","150.03","114.84","35.19","47.23","21.3","19.65","89744","45.69","DUALSPOT-UV-BLUE-GREEN-RED-IR","796492","722637","906593","6.048852","1.383804","0.056763","769562","911254","761420","3.829229","0.357973","0.077379","865859","917504","812662","3.170979","0.043672","0.058453","857506","940623","861955","2.395367","-0.393497","0.000000","719698","850944","951865","2.934415","0.542774","0.000000","2335","3277","3556","1512","2089","2148","1286","1574","1578","989","899","989","1574","-306","1574",""
"MA200-0416","29152","87","1","1.10","1.4","2023-05-27T12:23:30","120","2023/05/27","12:23:30","-15.787204504013062","35.0344644933939","0.0","18","30","64","82","12512","1579","-23558","13","150","150.17","114.95","35.22","47.14","20.9","19.30","89744","45.69","DUALSPOT-UV-BLUE-GREEN-RED-IR","796677","722954","907077","6.081528","1.394975","0.021478","769401","911170","761422","3.848439","0.365602","0.064069","866856","918611","813712","3.186822","0.050836","0.102275","860519","944050","865083","2.406260","-0.390231","0.000000","721137","852661","953799","2.942693","0.543294","0.000000","1669","1862","1920","1238","1605","1644","1144","1688","1697","950","930","950","1005","206","1005",""
"MA200-0416","29153","87","1","1.10","1.4","2023-05-27T12:24:00","120","2023/05/27","12:24:00","-15.787202000617981","35.034461326897144","0.0","18","30","64","82","12512","1660","-23224","13","150","150.36","115.12","35.24","47.10","20.8","19.17","89744","45.69","DUALSPOT-UV-BLUE-GREEN-RED-IR","796902","723254","907505","6.100043","1.399044","-0.094745","769618","911541","761749","3.864390","0.368606","-0.191575","867009","918880","813964","3.198278","0.053853","-0.051893","859530","942970","864124","2.416722","-0.385766","0.000000","721315","852905","954077","2.943590","0.541280","0.000000","944","678","598","1027","631","590","826","710","708","911","1270","911","108","-798","108",""
"MA200-0416","29154","87","1","1.10","1.4","2023-05-27T12:24:30","120","2023/05/27","12:24:30","-15.787206828594208","35.0344629958272","0.0","18","30","64","82","12475","1620","-23470","13","150","150.06","114.47","35.60","47.09","20.7","19.12","89744","45.75","DUALSPOT-UV-BLUE-GREEN-RED-IR","798137","724475","909102","6.124017","1.407808","0.030304","770923","913204","763181","3.881228","0.374681","0.038782","867095","919039","814184","3.214484","0.061017","0.093480","860776","944394","865501","2.429307","-0.378882","0.000000","718496","849542","950338","2.942548","0.543894","0.000000","1230","1446","1510","1090","1265","1283","1175","1670","1680","1103","1940","1103","-127","1025","-127",""
"MA200-0416","29155","87","1","1.10","1.4","2023-05-27T12:25:00","120","2023/05/27","12:25:00","-15.78721022605896","35.03446099534631","0.0","18","30","64","82","12464","1560","-23500","13","150","150.01","114.92","35.09","47.12","20.8","19.21","89744","45.75","DUALSPOT-UV-BLUE-GREEN-RED-IR","798925","725356","910245","6.147930","1.413194","-0.083988","771449","913962","763862","3.899872","0.379573","-0.047297","868077","920198","815238","3.230542","0.065535","-0.026914","861935","945764","866790","2.442253","-0.374775","0.000000","722764","854580","955966","2.941766","0.545293","0.000000","1222","901","806","1202","1033","1015","1160","1069","1067","1130","1174","1130","-95","557","-95",""
"MA200-0416","29156","87","1","1.10","1.4","2023-05-27T12:25:30","120","2023/05/27","12:25:30","-15.787214040756226","35.03445966169238","0.0","18","30","64","82","12420","1680","-23272","13","150","149.47","115.13","34.34","47.17","21.0","19.38","89748","45.81","DUALSPOT-UV-BLUE-GREEN-RED-IR","794745","721668","905664","6.169636","1.418294","-0.061635","772550","915364","765039","3.914905","0.381523","-0.428003","869239","921530","816414","3.243208","0.067072","-0.473416","857245","940700","862172","2.451125","-0.372571","0.000000","716544","847210","947753","2.942079","0.547615","0.000000","1107","872","802","967","420","361","913","371","360","773","644","773","37","944","37",""
"MA200-0416","29157","87","1","1.10","1.4","2023-05-27T12:26:00","120","2023/05/27","12:26:00","-15.787221133708954","35.034467328339815","0.0","18","30","64","82","12464","1632","-23272","13","150","149.73","114.34","35.39","47.24","21.1","19.57","0","0.00","DUALSPOT-UV-BLUE-GREEN-RED-IR","798037","724794","909683","6.197013","1.425252","-0.048867","770270","912829","762930","3.932243","0.382883","-1.217160","866480","918732","813944","3.255605","0.066911","5.117066","861402","945342","866409","2.461052","-0.372081","0.000000","718413","849457","950281","2.947000","0.550776","0.000000","1406","1154","1079","1124","284","194","900","-37","-57","871","138","871","601","1247","601",""
"MA200-0416","29158","87","1","1.10","1.4","2023-05-27T12:26:30","120","2023/05/27","12:26:30","-15.787216544151306","35.034471325576305","0.0","18","30","64","82","12441","1555","-23447","13","150","150.36","114.48","35.88","47.32","21.3","19.76","0","0.00","DUALSPOT-UV-BLUE-GREEN-RED-IR","795131","722373","906727","6.234045","1.436025","-0.016512","772971","916171","765724","3.950393","0.384586","-0.877597","868522","921027","815957","3.271139","0.065767","1.479604","858305","942051","863367","2.471628","-0.374269","0.000000","719649","850968","952002","2.957513","0.554750","0.000000","1900","1763","1722","1175","351","263","1126","-264","-293","926","-611","926","1282","1547","1282",""
"MA200-0416","29159","87","1","1.10","1.4","2023-05-27T12:27:00","120","2023/05/27","12:27:00","-15.787212371826172","35.034472327679396","0.0","18","30","64","82","12491","1591","-23316","13","150","149.67","114.82","34.85","47.43","21.4","19.93","89748","46.13","DUALSPOT-UV-BLUE-GREEN-RED-IR","796618","723911","908720","6.270712","1.445392","-0.041311","768912","911485","761851","3.968197","0.385665","-1.965676","864764","917202","812531","3.282094","0.064092","0.875696","859337","943307","864509","2.480526","-0.377618","0.000000","719981","851404","952573","2.971643","0.558950","0.000000","1875","1578","1489","1149","229","130","792","-398","-422","777","-964","777","1719","1683","1719",""
"MA200-0416","29160","87","1","1.10","1.4","2023-05-27T12:27:30","120","2023/05/27","12:27:30","-15.787207782268524","35.03446999564767","0.0","18","30","64","82","12308","1656","-23388","13","150","150.16","114.88","35.28","47.55","21.4","20.06","89748","46.25","DUALSPOT-UV-BLUE-GREEN-RED-IR","795071","722717","907333","6.308206","1.455419","-0.032031","768344","911045","761447","3.986800","0.385940","4.899490","867635","920359","815347","3.295689","0.061339","0.742657","858801","942827","864037","2.487794","-0.382346","0.000000","718864","850208","951249","2.985742","0.561844","0.000000","1917","1669","1594","1200","57","-64","982","-647","-678","634","-1344","634","1714","1145","1714",""
"MA200-0416","29161","87","1","1.10","1.4","2023-05-27T12:28:00","120","2023/05/27","12:28:00","-15.787204504013062","35.034463826566935","0.0","18","30","64","82","12404","1452","-22896","13","150","149.86","114.46","35.40","47.65","21.4","20.11","89744","46.25","DUALSPOT-UV-BLUE-GREEN-RED-IR","796850","724547","909708","6.347666","1.465536","-0.045061","769709","912770","762894","4.006183","0.385629","1.772626","868249","921146","816000","3.309136","0.058561","0.735113","859436","943634","864728","2.496682","-0.387203","0.000000","718599","850034","951073","3.003887","0.563725","-1.501019","2024","1678","1574","1255","-65","-205","975","-651","-680","779","-1376","779","2214","742","401",""
"MA200-0416","29162","87","1","1.10","1.4","2023-05-27T12:28:30","120","2023/05/27","12:28:30","-15.787208676338196","35.03446365892887","0.0","18","30","64","82","12464","1643","-23248","13","150","149.99","114.72","35.26","47.76","21.4","20.20","89748","46.38","DUALSPOT-UV-BLUE-GREEN-RED-IR","792056","720418","904646","6.394259","1.476911","-0.057080","770767","914254","764169","4.030252","0.386344","-269.977936","864604","917505","812764","3.327274","0.055920","0.902968","857404","941589","862804","2.509552","-0.392019","0.000000","719733","851540","952786","3.024084","0.567313","-0.357493","2385","1894","1747","1555","150","1","1312","-621","-654","1125","-1370","1125","2459","1421","1181",""
"MA200-0416","29163","87","1","1.10","1.4","2023-05-27T12:29:00","120","2023/05/27","12:29:00","-15.787209689617157","35.03446466103196","0.0","18","30","64","81","12480","1627","-23344","13","150","149.39","114.88","34.51","47.85","21.4","20.29","89748","46.44","DUALSPOT-UV-BLUE-GREEN-RED-IR","793624","722027","906723","6.425765","1.484214","-0.065718","767351","910321","760862","4.044336","0.385957","1.443666","864778","917775","812956","3.337139","0.051278","0.486156","855836","939991","861256","2.514927","-0.398456","0.000000","719490","851326","952582","3.040292","0.570168","-0.341032","1610","1243","1132","908","-83","-187","712","-1116","-1145","469","-1871","469","1971","1155","967",""
"MA200-0416","29164","87","1","1.10","1.4","2023-05-27T12:29:30","120","2023/05/27","12:29:30","-15.787213623523712","35.03447749093175","0.0","18","30","64","82","12425","1600","-23487","13","150","150.21","114.84","35.38","47.96","21.4","20.32","89744","46.50","DUALSPOT-UV-BLUE-GREEN-RED-IR","792793","721433","906083","6.459903","1.494785","0.001009","771271","915124","764866","4.059124","0.385868","2.189374","868272","921632","816352","3.348427","0.048274","0.633827","861413","946229","866960","2.521513","-0.404405","0.000000","718674","850501","951702","3.055713","0.572448","-0.581590","1746","1754","1757","954","-18","-121","816","-704","-727","575","-1687","575","1875","900","675",""
"MA200-0416","29165","87","1","1.10","1.4","2023-05-27T12:30:00","120","2023/05/27","12:30:00","-15.787214159965515","35.03447765856981","0.0","18","30","64","82","12466","1595","-22841","13","150","150.43","115.20","35.23","48.09","21.3","20.39","89748","46.63","DUALSPOT-UV-BLUE-GREEN-RED-IR","795758","724363","909838","6.500179","1.504337","-0.063482","769124","912747","762872","4.078942","0.384796","1.063890","865461","918808","813830","3.363758","0.046330","0.981794","859235","943948","864833","2.529156","-0.409275","0.000000","719949","852119","953543","3.073553","0.576249","-0.193909","2053","1592","1453","1275","-225","-381","1104","-458","-479","665","-1386","665","2163","1506","1355",""
"MA200-0416","29166","87","1","1.10","1.4","2023-05-27T12:30:30","120","2023/05/27","12:30:30","-15.78721970319748","35.03447616100311","0.0","18","30","64","81","12444","1664","-23172","13","150","150.03","115.04","34.99","48.21","21.3","20.47","89744","46.69","DUALSPOT-UV-BLUE-GREEN-RED-IR","792195","721337","906107","6.535785","1.513111","-0.050227","771031","915202","764914","4.093278","0.382535","0.606304","867026","920621","815374","3.372162","0.040489","0.424100","857697","942416","863338","2.537219","-0.415253","0.000000","721099","853609","955199","3.088596","0.577197","-12.656640","1818","1472","1368","923","-478","-623","606","-1385","-1410","703","-1714","703","1826","378","45",""
"MA200-0416","29167","87","1","1.10","1.4","2023-05-27T12:31:00","120","2023/05/27","12:31:00","-15.787225008010864","35.03447249159217","0.0","18","30","64","81","12433","1720","-23533","13","150","149.45","114.97","34.48","48.34","21.2","20.52","89740","46.81","DUALSPOT-UV-BLUE-GREEN-RED-IR","793356","722891","908341","6.632866","1.540699","-0.011033","766548","910367","760980","4.158104","0.396877","-0.098201","866976","920977","815808","3.425974","0.050335","-0.191053","856367","941318","862376","2.579153","-0.411998","0.000000","717307","849408","950595","3.134163","0.587549","-0.135650","4959","4699","4621","4179","3083","2967","3885","2371","2348","3659","947","3659","5536","4194","3884",""
"MA200-0416","29168","87","1","1.10","1.4","2023-05-27T12:31:30","120","2023/05/27","12:31:30","-15.787222146987915","35.03446949273348","0.0","18","30","64","81","12462","1641","-23854","13","150","149.83","115.31","34.52","48.45","21.1","20.56","89748","46.88","DUALSPOT-UV-BLUE-GREEN-RED-IR","791288","721346","906547","6.694804","1.557148","-0.025722","769768","914438","764422","4.194647","0.400972","-0.534959","864999","919172","814181","3.455567","0.049906","4.824348","854809","939807","860995","2.598506","-0.415081","0.000000","719368","852059","953607","3.161546","0.592710","-0.264851","3154","2799","2691","2349","879","724","2130","-103","-135","1683","-895","1683","3317","2088","1805",""
"MA200-0416","29169","87","1","1.10","1.4","2023-05-27T12:32:00","120","2023/05/27","12:32:00","-15.787221550941467","35.03446899354458","0.0","18","30","64","81","12429","1487","-23287","13","150","149.40","115.17","34.23","48.58","21.1","20.63","89748","47.00","DUALSPOT-UV-BLUE-GREEN-RED-IR","792762","722917","908595","6.739930","1.569191","-0.022781","767024","911373","761863","4.217768","0.402969","-0.862295","866238","920644","815473","3.474039","0.048446","1.301947","857164","942569","863448","2.612159","-0.419771","0.000000","720166","853128","954856","3.180666","0.596075","-0.316946","2301","2066","1995","1488","432","320","1331","-354","-377","1189","-1374","1189","2319","1373","1154",""
"MA200-0416","29170","87","1","1.10","1.4","2023-05-27T12:32:30","120","2023/05/27","12:32:30","-15.787221133708954","35.03446515649557","0.0","18","30","64","82","12492","1596","-23252","13","150","149.73","115.64","34.09","48.70","21.0","20.68","89748","47.13","DUALSPOT-UV-BLUE-GREEN-RED-IR","790266","720806","906054","6.774489","1.578107","-0.028705","769524","914489","764460","4.233694","0.402980","2.540509","863365","917718","812856","3.483462","0.044876","0.505390","855246","940556","861599","2.618223","-0.425362","0.000000","718228","850941","952419","3.196422","0.598688","-0.364830","1755","1536","1469","1021","2","-104","676","-869","-889","526","-1645","526","1903","1070","878",""
"MA200-0416","29171","87","1","1.10","1.4","2023-05-27T12:33:00","120","2023/05/27","12:33:00","-15.787212371826172","35.03446266427636","0.0","18","30","64","81","12491","1704","-23679","13","150","149.71","115.21","34.49","48.81","20.9","20.68","89748","47.19","DUALSPOT-UV-BLUE-GREEN-RED-IR","793797","724211","910389","6.807062","1.586483","-0.033147","767578","912289","762645","4.248858","0.401025","0.641325","865235","919842","814693","3.495592","0.041305","0.570174","857066","942708","863474","2.624624","-0.432968","0.000000","719054","852044","953674","3.211486","0.600437","-0.949164","1660","1426","1354","975","-420","-565","874","-859","-880","557","-2212","557","1826","708","451",""
"MA200-0416","29172","87","1","1.10","1.4","2023-05-27T12:33:30","120","2023/05/27","12:33:30","-15.787204027175903","35.03445399180055","0.0","18","30","64","81","12495","1616","-23416","13","150","149.34","115.17","34.17","48.91","20.8","20.67","89748","47.25","DUALSPOT-UV-BLUE-GREEN-RED-IR","790397","721279","906757","6.839069","1.594860","-0.026548","769199","914404","764381","4.263652","0.401664","-3.900813","866681","921458","816131","3.505039","0.038790","0.595940","860252","946304","866711","2.630593","-0.438105","0.000000","720215","853548","955368","3.228345","0.603158","-0.395148","1632","1440","1381","952","138","54","681","-611","-625","519","-1508","519","2044","1112","898",""
"MA200-0416","29173","87","1","1.10","1.4","2023-05-27T12:34:00","120","2023/05/27","12:34:00","-15.78722995519638","35.03445766121149","0.3","17","30","64","81","2712","1348","22904","13","150","149.57","114.88","34.69","49.00","20.7","20.65","89752","47.25","DUALSPOT-UV-BLUE-GREEN-RED-IR","790896","722130","908046","6.911903","1.614957","-0.018330","765939","910900","761577","4.316682","0.411594","-0.167713","866757","921948","816599","3.550416","0.045186","-0.330811","855344","941237","862114","2.668590","-0.435155","0.000000","716758","849748","951138","3.267297","0.607962","-0.814383","3723","3403","3305","3422","2122","1985","3279","1530","1508","3318","853","3318","4736","1934","1293",""
"MA200-0416","29174","87","1","1.10","1.4","2023-05-27T12:34:30","120","2023/05/27","12:34:30","-15.787059009075165","35.03471399098635","6.4","17","30","64","81","9264","1900","21244","13","150","150.11","115.37","34.74","49.01","20.4","20.46","89720","47.25","DUALSPOT-UV-BLUE-GREEN-RED-IR","790179","721720","907643","6.961826","1.631551","0.017159","769507","915348","765315","4.343957","0.419384","-0.013927","866340","921666","816415","3.572487","0.050413","-0.077380","855957","942067","862892","2.684199","-0.434679","0.000000","716460","849505","950912","3.288702","0.610204","-1.221555","2541","2805","2886","1752","1662","1652","1588","1249","1244","1357","137","1357","2591","901","516",""
"MA200-0416","29175","87","1","1.10","1.4","2023-05-27T12:35:00","120","2023/05/27","12:35:00","-15.787198007106781","35.03514898940921","0.0","17","30","64","81","5725","2287","22112","13","150","150.62","115.39","35.23","49.00","20.2","20.25","89700","47.25","DUALSPOT-UV-BLUE-GREEN-RED-IR","789643","721442","907495","7.012595","1.647100","0.000590","769356","915388","765381","4.374462","0.426065","-0.104189","865817","921225","816075","3.596389","0.055581","-0.117106","860820","947555","867946","2.701300","-0.432687","0.000000","716281","849462","950865","3.306106","0.610271","1.736199","2584","2592","2594","1959","1405","1346","1719","1217","1210","1486","567","1486","2106","26","-444",""
"MA200-0416","29176","87","1","1.10","1.4","2023-05-27T12:35:30","120","2023/05/27","12:35:30","-15.787095963954926","35.03520115837455","0.2","17","30","64","80","8440","15428","14804","13","150","149.54","114.99","34.55","49.00","19.9","20.02","89696","47.38","DUALSPOT-UV-BLUE-GREEN-RED-IR","786359","718697","904132","7.059183","1.662277","0.014043","766676","912346","762971","4.404134","0.437194","0.049063","864853","920338","815385","3.620863","0.066322","0.088199","852778","938830","859973","2.719992","-0.427579","0.000000","715433","848536","949835","3.317222","0.611125","-3.133573","2379","2579","2641","1912","2387","2440","1766","2580","2596","1630","1483","1630","1350","345","118",""
"MA200-0416","29177","87","1","1.10","1.4","2023-05-27T12:36:00","120","2023/05/27","12:36:00","-15.787040293216705","35.03530316054821","0.3","17","30","64","81","-8676","-22660","8004","13","150","150.42","115.46","34.96","48.96","19.6","19.71","89688","47.31","DUALSPOT-UV-BLUE-GREEN-RED-IR","785608","718383","904012","7.130657","1.684473","0.004544","766233","912164","762934","4.453069","0.453359","0.020641","864668","920372","815520","3.656924","0.077575","0.008290","859087","945925","866582","2.746346","-0.419038","0.000000","719327","853231","955123","3.327200","0.615396","0.101169","3635","3728","3757","3141","3427","3459","2592","2672","2674","2290","2451","2290","1207","1706","1819",""
"MA200-0416","29178","87","1","1.10","1.4","2023-05-27T12:36:30","120","2023/05/27","12:36:30","-15.787015974521637","35.03528416156769","0.2","17","30","64","81","-9575","-21829","8833","13","150","150.01","115.13","34.88","48.85","19.2","19.30","89680","47.13","DUALSPOT-UV-BLUE-GREEN-RED-IR","789091","721778","908388","7.184848","1.704546","0.031447","764410","910114","761348","4.489714","0.471151","0.089616","863127","918839","814259","3.685421","0.094318","0.133180","855410","941960","863070","2.767151","-0.406521","0.000000","718393","852087","953845","3.327650","0.614366","0.332182","2764","3380","3571","2359","3781","3948","2055","3985","4035","1813","3600","1813","54","-412","-518",""
"MA200-0416","29179","87","1","1.10","1.4","2023-05-27T12:37:00","120","2023/05/27","12:37:00","-15.787018835544586","35.035237826406956","0.3","17","30","64","81","-10484","-21348","8560","13","150","150.55","115.18","35.37","48.70","18.7","18.82","89672","46.75","DUALSPOT-UV-BLUE-GREEN-RED-IR","790335","723025","910140","7.218885","1.720583","0.057104","765255","911199","762377","4.516208","0.488306","0.122694","865851","921799","817043","3.707641","0.111591","0.165120","856998","943729","864794","2.784098","-0.392108","0.000000","716572","849964","951432","3.326997","0.612058","0.278935","1735","2662","2953","1705","3595","3824","1601","4054","4130","1476","4087","1476","-79","-911","-1099",""
"MA200-0416","29180","87","1","1.10","1.4","2023-05-27T12:37:30","120","2023/05/27","12:37:30","-15.786991536617279","35.03516199067235","0.8","17","30","64","81","-1624","-9924","19104","13","150","150.49","115.29","35.20","48.52","18.5","18.45","89668","46.44","DUALSPOT-UV-BLUE-GREEN-RED-IR","784561","717903","903738","7.245053","1.729799","0.023157","765867","912061","763225","4.541087","0.500875","0.093346","864399","920301","815831","3.728306","0.125538","0.149147","852896","939235","860808","2.800735","-0.379138","0.000000","718978","852820","954578","3.320924","0.609924","0.047003","1333","1537","1601","1599","2647","2776","1488","3289","3352","1447","3696","1447","-735","-846","-871",""
"MA200-0416","29181","87","1","1.10","1.4","2023-05-27T12:38:00","120","2023/05/27","12:38:00","-15.78698468208313","35.03529215976596","0.2","17","30","64","81","-904","-2396","22656","13","150","150.24","115.11","35.13","48.30","18.3","18.16","89668","46.19","DUALSPOT-UV-BLUE-GREEN-RED-IR","786063","719400","905763","7.280856","1.742946","0.028946","766642","913112","764210","4.571515","0.516193","0.092448","862075","917943","813880","3.754985","0.143569","0.148609","854958","941542","863076","2.822779","-0.360184","0.000000","717375","850840","952407","3.316871","0.607123","0.183135","1826","2198","2314","1959","3232","3394","1924","4260","4353","1921","5412","1921","-491","-1113","-1253",""
"MA200-0416","29182","87","1","1.10","1.4","2023-05-27T12:38:30","120","2023/05/27","12:38:30","-15.787010192871094","35.03533399477601","0.4","17","30","64","81","-783","-2300","22400","13","150","149.96","114.24","35.72","48.10","18.3","17.91","89672","45.94","DUALSPOT-UV-BLUE-GREEN-RED-IR","783882","717511","903514","7.305418","1.755657","0.063378","765736","912123","763495","4.598034","0.532859","0.115969","862391","918243","814307","3.777223","0.161730","0.166100","853410","939874","861679","2.841348","-0.342714","0.000000","717662","851139","952734","3.309337","0.608337","0.654922","1262","2089","2351","1720","3458","3686","1616","4220","4337","1630","4906","1630","-921","474","789",""
"MA200-0416","29183","87","1","1.10","1.4","2023-05-27T12:39:00","120","2023/05/27","12:39:00","-15.786983251571655","35.035340156406164","0.4","17","30","64","81","-836","-2296","22904","13","150","149.76","114.24","35.52","47.88","18.2","17.73","89668","45.75","DUALSPOT-UV-BLUE-GREEN-RED-IR","789846","723058","910612","7.332709","1.768463","0.054753","766505","913147","764478","4.624432","0.548244","0.107675","862740","918690","814868","3.800505","0.180315","0.163655","858228","945152","866698","2.860764","-0.324356","0.000000","718063","851470","953104","3.298847","0.607577","-4.761186","1403","2117","2344","1713","3210","3412","1691","4343","4475","1705","5184","1705","-1282","-298","-76",""
"MA200-0416","29184","87","1","1.10","1.4","2023-05-27T12:39:30","120","2023/05/27","12:39:30","-15.786985695362091","35.03532749041915","0.3","17","30","64","81","-804","-2192","23088","13","150","150.29","114.56","35.73","47.70","18.2","17.54","89664","45.56","DUALSPOT-UV-BLUE-GREEN-RED-IR","789048","722443","909970","7.362769","1.781705","0.047852","766955","913788","765126","4.653073","0.564950","0.106934","862972","919007","815283","3.824514","0.198287","0.155878","857628","944505","866285","2.881496","-0.305544","0.000000","718827","852301","954057","3.290790","0.609630","0.550897","1541","2176","2379","1853","3465","3688","1739","4175","4308","1815","5281","1815","-982","802","1208",""
"MA200-0416","29185","87","1","1.10","1.4","2023-05-27T12:40:00","120","2023/05/27","12:40:00","-15.78693813085556","35.03533632680774","0.6","17","30","64","80","-787","-2070","22745","13","150","150.36","114.16","36.20","47.51","18.2","17.37","89660","45.38","DUALSPOT-UV-BLUE-GREEN-RED-IR","787600","721244","908561","7.391078","1.796466","0.062221","766888","913800","765292","4.681361","0.581466","0.104662","862653","918714","815148","3.847932","0.216114","0.155264","857542","944428","866360","2.901991","-0.286597","0.000000","719114","852619","954442","3.286014","0.612928","0.409029","1456","2395","2696","1836","3382","3601","1703","4088","4230","1801","5251","1801","-584","1272","1698",""
"MA200-0416","29186","87","1","1.10","1.4","2023-05-27T12:40:30","120","2023/05/27","12:40:30","-15.787007749080658","35.03533849492669","0.1","17","30","64","80","-748","-2064","22780","13","150","149.76","114.28","35.48","47.29","18.2","17.26","89660","45.19","DUALSPOT-UV-BLUE-GREEN-RED-IR","784474","718506","905188","7.417965","1.806814","0.032416","765299","912033","763892","4.706722","0.593996","0.085731","861701","917771","814436","3.871954","0.230312","0.126556","850078","936244","858983","2.921299","-0.269484","0.000000","715993","848803","950159","3.275600","0.611967","-1.941967","1381","1712","1819","1645","2617","2758","1745","3322","3421","1694","4838","1694","-1273","-378","-172",""
"MA200-0416","29187","87","1","1.10","1.4","2023-05-27T12:41:00","120","2023/05/27","12:41:00","-15.786992728710175","35.03535432368517","0.3","17","30","64","80","-808","-2062","22750","13","150","149.66","114.17","35.49","47.11","18.3","17.14","89656","45.00","DUALSPOT-UV-BLUE-GREEN-RED-IR","787437","721332","908916","7.450832","1.820901","0.044816","762541","908827","761366","4.735023","0.611501","0.112348","863595","919843","816422","3.895867","0.249611","0.161806","853852","940409","862988","2.940826","-0.251740","0.000000","718406","851624","953333","3.270921","0.614807","0.421700","1690","2331","2538","1837","3656","3926","1738","4514","4704","1716","5015","1716","-572","1117","1509",""
"MA200-0416","29188","87","1","1.10","1.4","2023-05-27T12:41:30","120","2023/05/27","12:41:30","-15.78694349527359","35.03541366010904","0.3","17","30","64","80","-808","-2100","23412","13","150","150.35","114.04","36.31","46.92","18.3","17.01","89652","44.81","DUALSPOT-UV-BLUE-GREEN-RED-IR","788477","722394","910398","7.480816","1.836057","0.058526","764230","910954","763245","4.761183","0.627332","0.106945","860993","917102","814126","3.918677","0.266205","0.147903","856200","943004","865497","2.957948","-0.234496","0.000000","720137","853640","955590","3.266328","0.616650","0.477496","1544","2451","2746","1700","3232","3464","1660","3794","3949","1506","4764","1506","-562","709","1005",""
"MA200-0416","29189","87","1","1.10","1.4","2023-05-27T12:42:00","120","2023/05/27","12:42:00","-15.787065148353577","35.03539065644145","0.3","17","30","64","80","-775","-2037","22770","13","150","149.96","114.16","35.80","46.73","18.3","16.88","89656","44.69","DUALSPOT-UV-BLUE-GREEN-RED-IR","782847","717475","904383","7.526149","1.854942","0.040328","766233","913573","765611","4.802507","0.647253","0.079757","861437","917782","814938","3.951913","0.286454","0.127550","850044","936358","859590","2.988041","-0.213801","0.000000","717891","850965","952667","3.267995","0.621789","0.280292","2332","3098","3348","2683","4124","4349","2417","4695","4873","2644","5799","2644","203","2005","2428",""
"MA200-0416","29190","87","1","1.10","1.4","2023-05-27T12:42:30","120","2023/05/27","12:42:30","-15.78703498840332","35.03536482527852","0.6","17","30","64","80","-792","-2124","22776","13","150","150.01","114.39","35.62","46.54","18.4","16.76","89656","44.56","DUALSPOT-UV-BLUE-GREEN-RED-IR","783819","718939","906638","7.637734","1.896349","0.026620","762194","909349","762372","4.895467","0.684946","0.053129","862171","919000","816311","4.032028","0.322281","0.079785","852768","939691","862978","3.055033","-0.179523","0.123729","719459","853024","955127","3.302091","0.636535","0.098505","5729","6828","7191","6024","7845","8142","5814","8351","8572","5875","9656","9446","4163","5784","6171",""
"MA200-0416","29191","87","1","1.10","1.4","2023-05-27T12:43:00","120","2023/05/27","12:43:00","-15.787108778953552","35.03535982593894","0.1","17","30","64","80","-784","-2096","22864","13","150","149.80","114.46","35.34","46.36","18.3","16.60","0","0.00","DUALSPOT-UV-BLUE-GREEN-RED-IR","783594","719255","907340","7.749867","1.932970","0.009229","763109","910969","763991","4.991740","0.720209","0.035830","862219","919523","817039","4.117250","0.353956","0.044288","854824","942297","865652","3.127827","-0.148260","0.086920","716967","850243","952153","3.338554","0.648469","0.020802","5754","6086","6197","6235","7397","7593","6181","7441","7560","6380","8875","8763","4450","4717","4782",""
"MA200-0416","29192","87","1","1.10","1.4","2023-05-27T12:43:30","120","2023/05/27","12:43:30","-15.787058651447296","35.035343162715435","0.3","17","30","64","80","-796","-2080","22764","13","150","150.16","114.68","35.48","46.19","18.3","16.45","0","0.00","DUALSPOT-UV-BLUE-GREEN-RED-IR","784658","720734","909548","7.862864","1.971563","0.015483","759088","906661","760633","5.086757","0.753784","0.028098","859411","916957","815029","4.200273","0.387281","0.058736","850233","937614","861579","3.198017","-0.116950","0.093434","718676","852429","954700","3.373483","0.661098","0.051363","5787","6388","6589","6142","7014","7166","6010","7797","7979","6140","8853","8757","4254","4971","5146",""
"MA200-0416","29193","87","1","1.10","1.4","2023-05-27T12:44:00","120","2023/05/27","12:44:00","-15.787299931049347","35.035400327295065","1.4","17","30","64","80","-736","-2088","22940","13","150","149.39","114.56","34.83","46.02","18.4","16.37","89648","44.13","DUALSPOT-UV-BLUE-GREEN-RED-IR","780001","716895","904983","7.957298","2.004091","0.018973","760730","909100","762892","5.165893","0.785320","0.051924","860586","918564","816693","4.269361","0.416988","0.073715","853148","941135","865047","3.253910","-0.089895","0.112359","717053","850709","952840","3.400087","0.670789","0.058254","4841","5485","5702","5121","6712","6998","5006","7081","7306","4894","7793","7715","3244","3887","4045",""
"MA200-0416","29194","87","1","1.10","1.4","2023-05-27T12:44:30","120","2023/05/27","12:44:30","-15.787205517292023","35.03537515923381","0.2","17","30","64","80","-808","-2152","22748","13","150","150.14","114.88","35.27","45.85","18.4","16.23","89652","44.00","DUALSPOT-UV-BLUE-GREEN-RED-IR","778869","716266","904501","8.045899","2.033876","0.014020","760691","909470","763422","5.243094","0.814373","0.040231","856172","914221","813039","4.336447","0.445121","0.066809","853832","942118","866173","3.309483","-0.064074","0.101212","717226","851018","953284","3.425193","0.679550","0.042502","4530","4960","5106","4981","6106","6313","4848","6622","6825","4853","7345","7298","3053","3470","3573",""
"MA200-0416","29195","87","1","1.10","1.4","2023-05-27T12:45:00","120","2023/05/27","12:45:00","-15.787100791931152","35.03538115695119","0.6","17","30","64","80","-851","-2156","23020","13","150","150.03","114.36","35.67","45.70","18.4","16.13","89648","43.81","DUALSPOT-UV-BLUE-GREEN-RED-IR","781767","719304","908615","8.130686","2.063894","0.018859","758200","906848","761439","5.312322","0.840688","0.038834","858422","916930","815702","4.398430","0.472158","0.070175","850914","939165","863658","3.362825","-0.039130","0.098273","716401","850163","952413","3.452072","0.689085","0.042467","4354","4943","5143","4487","5469","5654","4499","6293","6508","4679","7016","6989","3283","3734","3847",""
"MA200-0416","29196","87","1","1.10","1.4","2023-05-27T12:45:30","120","2023/05/27","12:45:30","-15.787038803100586","35.035270154476166","0.2","17","30","64","80","-820","-2037","22800","13","150","149.83","114.88","34.95","45.53","18.5","16.02","89648","43.69","DUALSPOT-UV-BLUE-GREEN-RED-IR","782464","720338","910139","8.215046","2.092327","0.015373","760570","910108","764400","5.387552","0.869691","0.044838","858622","917500","816422","4.462594","0.498986","0.066422","852876","941573","866111","3.417199","-0.013428","0.104003","717372","851502","954007","3.478397","0.697403","0.013199","4313","4777","4936","4854","6151","6401","4637","6372","6590","4748","7377","7367","3201","3324","3355",""
"MA200-0416","29197","87","1","1.10","1.4","2023-05-27T12:46:00","120","2023/05/27","12:46:00","-15.787039935588837","35.035229824483395","0.6","17","30","64","80","-816","-2054","22804","13","150","149.43","114.61","34.82","45.36","18.5","15.96","89648","43.56","DUALSPOT-UV-BLUE-GREEN-RED-IR","777905","716419","905424","8.278359","2.112644","0.008484","757000","906107","761234","5.441165","0.889932","0.041333","856509","915428","814784","4.509121","0.518065","0.062815","848243","936663","861770","3.457058","0.005692","0.106185","715603","849459","951757","3.494112","0.702240","0.004571","3244","3427","3489","3467","4309","4474","3370","4549","4702","3489","5509","5512","1915","1940","1946",""
"MA200-0416","29198","87","1","1.10","1.4","2023-05-27T12:46:30","120","2023/05/27","12:46:30","-15.787010192871094","35.03528065606952","0.2","17","30","64","80","-741","-2062","22812","13","150","149.37","114.57","34.80","45.20","18.6","15.86","89652","43.44","DUALSPOT-UV-BLUE-GREEN-RED-IR","779414","718082","907705","8.337824","2.139764","0.048320","758386","907993","762988","5.492719","0.918399","0.090210","857778","917019","816345","4.554921","0.545316","0.114466","852341","941294","866245","3.494547","0.030117","0.153376","714502","848223","950422","3.508772","0.709038","0.113344","3048","4577","5105","3335","6064","6612","3318","6501","6934","3282","7041","7074","1787","2729","2967",""
"MA200-0416","29199","87","1","1.10","1.4","2023-05-27T12:47:00","120","2023/05/27","12:47:00","-15.787061929702759","35.03524516150355","0.6","17","30","64","80","-871","-2112","22916","13","150","150.03","114.40","35.63","45.05","18.7","15.83","89652","43.31","DUALSPOT-UV-BLUE-GREEN-RED-IR","774688","714183","902987","8.416356","2.163034","-0.008313","755310","904795","760477","5.558508","0.938976","0.000919","854743","914177","814000","4.614037","0.566810","0.034743","847703","936550","862051","3.544751","0.050580","0.067288","716227","850448","953007","3.534469","0.717372","0.013954","4032","3836","3768","4263","4281","4285","4290","5008","5109","4402","5762","5781","3137","3267","3300",""
"MA200-0416","29200","87","1","1.10","1.4","2023-05-27T12:47:30","120","2023/05/27","12:47:30","-15.787040650844574","35.035295996814966","0.5","17","30","64","80","-780","-1960","22844","13","150","149.67","114.31","35.36","44.90","18.8","15.77","89652","43.19","DUALSPOT-UV-BLUE-GREEN-RED-IR","776759","716410","906052","8.495104","2.188373","0.006035","757406","907623","763005","5.625445","0.963951","0.035400","856656","916485","816230","4.674447","0.590693","0.051633","851656","941116","866430","3.595404","0.073141","0.086157","715159","849305","951789","3.559593","0.725134","-0.000473","4046","4208","4265","4341","5235","5420","4387","5607","5783","4445","6400","6441","3070","3066","3065",""
"MA200-0416","29201","87","1","1.10","1.4","2023-05-27T12:48:00","120","2023/05/27","12:48:00","-15.787026047706604","35.03531015664339","0.4","17","30","64","79","-832","-2060","22888","13","150","149.63","114.44","35.19","44.75","18.8","15.67","89648","43.06","DUALSPOT-UV-BLUE-GREEN-RED-IR","778995","718671","909097","8.541487","2.205968","0.028040","753568","903227","759489","5.667111","0.982511","0.062071","852845","912592","812892","4.708343","0.607031","0.083777","845473","934413","860416","3.626891","0.090575","0.124315","712158","845767","947858","3.568903","0.729156","0.094474","2380","2936","3130","2699","3909","4163","2459","3854","4060","2760","4970","5026","1136","1596","1714",""
"MA200-0416","29202","87","1","1.10","1.4","2023-05-27T12:48:30","120","2023/05/27","12:48:30","-15.78717702627182","35.03536582365632","0.2","18","30","72","80","-792","-2048","22784","13","150","149.66","114.88","34.78","44.61","18.9","15.62","89644","42.94","DUALSPOT-UV-BLUE-GREEN-RED-IR","776510","716641","906652","8.594301","2.222797","0.007675","757059","907639","763314","5.711679","0.999414","0.041038","741610","793693","707133","4.746771","0.624191","0.074463","850893","940548","866211","3.660681","0.108212","0.116712","715957","850372","953041","3.580997","0.733110","0.025442","2700","2841","2891","2876","3602","3756","2777","4095","4295","2951","5087","5152","1470","1587","1618",""
"MA200-0416","29203","87","1","1.10","1.4","2023-05-27T12:49:00","120","2023/05/27","12:49:00","-15.787109434604645","35.03534082695842","0.1","18","30","64","80","-908","-2020","23266","13","150","150.09","114.80","35.30","44.48","18.9","15.54","89644","42.81","DUALSPOT-UV-BLUE-GREEN-RED-IR","778974","719128","909930","8.642566","2.241062","0.027488","753669","903801","760231","5.755100","1.018888","0.062183","853523","913628","814104","4.784739","0.643843","0.092218","847563","936984","863079","3.691108","0.126451","0.134316","714633","848858","951403","3.590978","0.738842","0.145386","2469","3039","3238","2804","4090","4366","2745","4622","4914","2659","5184","5273","1214","2268","2541",""
"MA200-0416","29204","87","1","1.10","1.4","2023-05-27T12:49:30","120","2023/05/27","12:49:30","-15.78704047203064","35.03533099219203","0.1","18","30","64","79","-875","-2062","22804","13","150","150.16","114.80","35.36","44.33","19.0","15.49","89636","42.69","DUALSPOT-UV-BLUE-GREEN-RED-IR","773111","713935","903544","8.688707","2.259027","0.030258","754024","904393","760847","5.790205","1.036548","0.075196","853415","913692","814317","4.817212","0.660997","0.094062","848232","937800","864000","3.719030","0.144952","0.146534","715875","850333","953111","3.600528","0.743813","0.129179","2360","2983","3202","2266","3702","4015","2348","4027","4294","2440","5248","5362","1162","1963","2172",""
"MA200-0416","29205","87","1","1.10","1.4","2023-05-27T12:50:00","120","2023/05/27","12:50:00","-15.78698468208313","35.03532999381423","0.2","18","30","64","79","-804","-1943","22984","13","150","149.53","114.79","34.73","44.20","19.0","15.44","89636","42.50","DUALSPOT-UV-BLUE-GREEN-RED-IR","777377","718052","908902","8.733517","2.274990","0.022155","757964","909366","765146","5.830014","1.050573","0.028652","856193","916810","817205","4.851132","0.675111","0.062582","846737","936286","862712","3.746548","0.158381","0.104160","715411","849847","952560","3.607813","0.746056","0.006075","2292","2699","2842","2570","2993","3086","2453","3373","3522","2404","3879","3944","886","902","906",""
"MA200-0416","29206","87","1","1.10","1.4","2023-05-27T12:50:30","120","2023/05/27","12:50:30","-15.786951184272766","35.035350661724806","0.2","18","30","64","79","-772","-1992","22708","13","150","150.43","114.88","35.55","44.07","19.1","15.36","89636","42.38","DUALSPOT-UV-BLUE-GREEN-RED-IR","773422","714598","904666","8.776079","2.291408","0.028503","755050","906018","762459","5.865832","1.068246","0.071756","853081","913578","814477","4.880279","0.691956","0.103004","848508","938335","864736","3.773721","0.175488","0.137884","713089","847100","949527","3.615434","0.750253","0.137147","2176","2712","2902","2311","3685","3991","2106","3933","4235","2373","4827","4947","926","1649","1838",""
"MA200-0416","29207","87","1","1.10","1.4","2023-05-27T12:51:00","120","2023/05/27","12:51:00","-15.78695684671402","35.03538115695119","0.7","17","30","64","79","-775","-2033","22754","13","150","150.09","114.92","35.18","43.93","19.1","15.27","89636","42.19","DUALSPOT-UV-BLUE-GREEN-RED-IR","775595","716766","907559","8.815962","2.305519","0.019761","756811","908313","764512","5.901156","1.083589","0.057466","854492","915250","816079","4.911721","0.708192","0.090654","844207","933641","860547","3.799054","0.190818","0.133463","715380","849861","952650","3.621612","0.753888","0.148533","2038","2356","2468","2278","3233","3448","2271","3831","4094","2211","4372","4486","750","1443","1625",""
"MA200-0416","29208","87","1","1.10","1.4","2023-05-27T12:51:30","120","2023/05/27","12:51:30","-15.786961376667023","35.03534949198365","0.1","17","30","64","79","-8244","8040","15844","13","150","149.57","114.60","34.97","43.79","19.1","15.18","89640","42.06","DUALSPOT-UV-BLUE-GREEN-RED-IR","777759","718934","910395","8.852875","2.319421","0.027226","752803","903627","760698","5.933613","1.097684","0.057607","851849","912537","813758","4.938906","0.721329","0.082209","847410","937314","864049","3.822424","0.205874","0.141312","713532","847676","950260","3.625896","0.756067","0.126142","1891","2335","2492","2099","2988","3190","1969","3119","3315","2045","4319","4449","522","870","962",""
"MA200-0416","29209","87","1","1.10","1.4","2023-05-27T12:52:00","120","2023/05/27","12:52:00","-15.787237823009491","35.03521899133921","0.7","17","30","64","79","7756","-9424","19448","13","150","150.56","114.84","35.73","43.59","19.0","14.95","89664","41.75","DUALSPOT-UV-BLUE-GREEN-RED-IR","771885","713756","904048","8.905146","2.342535","0.040850","753479","904625","761704","5.974384","1.120269","0.082018","852038","912861","814233","4.973006","0.742363","0.107785","848970","939097","865879","3.850055","0.224888","0.146175","715420","849941","952827","3.632198","0.758297","0.040835","2673","3800","4202","2631","4686","5160","2465","4888","5313","2414","5339","5521","766","872","900",""
"MA200-0416","29210","87","1","1.10","1.4","2023-05-27T12:52:30","120","2023/05/27","12:52:30","-15.787258863449097","35.035202492028475","0.0","17","30","64","79","3795","2054","22533","13","150","149.99","114.80","35.18","43.37","18.9","14.65","89652","41.44","DUALSPOT-UV-BLUE-GREEN-RED-IR","776702","718347","910028","8.946602","2.358692","0.030124","752208","903250","760621","6.006575","1.136625","0.074567","854422","915527","816735","4.999531","0.759649","0.114106","847197","937146","864238","3.871407","0.240951","0.157055","715110","849601","952462","3.635374","0.760046","0.138065","2121","2697","2903","2078","3446","3765","1918","4078","4465","1865","4580","4760","386","694","775",""
"MA200-0416","29211","87","1","1.10","1.4","2023-05-27T12:53:00","120","2023/05/27","12:53:00","-15.7872673869133","35.03519215807319","0.0","17","30","64","79","-21708","-13512","-570","13","150","150.14","115.21","34.93","43.14","19.0","14.52","89644","41.31","DUALSPOT-UV-BLUE-GREEN-RED-IR","770433","712685","902914","8.971064","2.366335","0.004419","753091","904465","761721","6.030144","1.145523","0.038514","850236","911095","812888","5.020547","0.770050","0.085142","847271","937328","864493","3.891534","0.252521","0.125722","716148","850786","953792","3.633562","0.763322","0.310433","1247","1284","1298","1516","1888","1975","1514","2471","2645","1752","3322","3431","-219","1309","1716",""
"MA200-0416","29212","87","1","1.10","1.4","2023-05-27T12:53:30","120","2023/05/27","12:53:30","-15.787269353866577","35.03519316017628","0.1","17","30","64","79","-8395","-604","21133","13","150","149.70","114.56","35.14","42.96","19.1","14.47","89644","41.25","DUALSPOT-UV-BLUE-GREEN-RED-IR","775865","717878","909632","9.009879","2.380622","0.023728","751513","902713","760399","6.067251","1.163137","0.066564","853766","915037","816559","5.052513","0.788455","0.100874","846548","936605","863998","3.916520","0.270927","0.153434","716341","850990","954018","3.635437","0.762627","0.428289","1990","2388","2531","2401","3716","4028","2316","4348","4724","2188","5255","5483","228","-276","-410",""
"MA200-0416","29213","87","1","1.10","1.4","2023-05-27T12:54:00","120","2023/05/27","12:54:00","-15.787319362163544","35.03523616120219","0.1","17","30","64","79","-17112","-8248","14456","13","150","149.51","114.48","35.03","42.78","19.3","14.47","89640","41.13","DUALSPOT-UV-BLUE-GREEN-RED-IR","772047","714555","905555","9.053602","2.393720","-0.003231","753750","905627","762955","6.105964","1.179147","0.049714","851401","912636","814524","5.085206","0.805133","0.086963","849598","940068","867313","3.943021","0.287735","0.136063","714796","849139","951979","3.634790","0.765755","0.288672","2243","2196","2179","2506","3388","3599","2370","3953","4250","2322","4814","5010","-78","1247","1601",""
"MA200-0416","29214","87","1","1.10","1.4","2023-05-27T12:54:30","120","2023/05/27","12:54:30","-15.787167012691498","35.034946989268064","5.2","17","30","64","78","-14100","-6870","17858","13","150","149.33","114.72","34.61","42.59","19.5","14.48","89652","41.00","DUALSPOT-UV-BLUE-GREEN-RED-IR","773217","715788","907222","9.088647","2.409643","0.044871","755185","907488","764664","6.137825","1.195478","0.075714","851433","912785","814791","5.114281","0.821816","0.101282","842914","932771","860742","3.968860","0.306308","0.151109","716074","850664","953718","3.631918","0.767398","0.378378","1794","2702","3029","2058","3498","3846","2104","4002","4365","2259","5384","5645","-349","663","934",""
"MA200-0416","29215","87","1","1.10","1.4","2023-05-27T12:55:00","120","2023/05/27","12:55:00","-15.787241578102112","35.03452565893531","0.4","17","30","64","79","-14304","-6595","17450","13","150","149.55","114.72","34.83","42.43","19.7","14.56","89696","40.88","DUALSPOT-UV-BLUE-GREEN-RED-IR","771060","713947","904998","9.120052","2.420883","0.021478","753689","905828","763384","6.168512","1.210134","0.067480","850743","912117","814334","5.140471","0.837940","0.107223","849155","939732","867302","3.991527","0.322299","0.147855","716321","850886","953974","3.628152","0.769697","0.373311","1607","1895","1999","1982","3119","3396","1895","3843","4222","1982","4606","4836","-458","921","1293",""
"MA200-0416","29216","87","1","1.10","1.4","2023-05-27T12:55:30","120","2023/05/27","12:55:30","-15.787289679050446","35.034436490386724","2.0","17","30","64","78","-14670","-6729","18008","13","150","149.87","114.63","35.24","42.28","20.1","14.68","89696","40.75","DUALSPOT-UV-BLUE-GREEN-RED-IR","774944","717705","909921","9.158941","2.435875","0.028062","751079","902848","761016","6.203677","1.226680","0.064162","852378","914025","816170","5.169410","0.854301","0.096972","845578","935853","863913","4.018377","0.341421","0.146810","715414","849723","952733","3.626531","0.773521","0.303254","1992","2498","2682","2274","3480","3778","2095","3854","4202","2350","5443","5730","-197","1515","1980",""
"MA200-0416","29217","87","1","1.10","1.4","2023-05-27T12:56:00","120","2023/05/27","12:56:00","-15.78722882270813","35.034442491829395","0.2","17","30","64","79","-12424","-10908","14372","13","150","149.96","114.76","35.20","42.15","20.4","14.83","89696","40.69","DUALSPOT-UV-BLUE-GREEN-RED-IR","771260","714503","906019","9.199202","2.450716","0.023437","753850","906417","764146","6.239979","1.244270","0.067291","850537","912141","814679","5.199915","0.871735","0.097892","843495","933552","861954","4.040959","0.357532","0.146644","714415","848528","951391","3.622282","0.775952","0.380417","2060","2476","2627","2345","3703","4042","2206","4111","4495","1974","4591","4845","-517","964","1368",""
"MA200-0416","29218","87","1","1.10","1.4","2023-05-27T12:56:30","120","2023/05/27","12:56:30","-15.787253201007843","35.03441549092531","0.0","18","30","64","79","6979","-2070","21187","13","150","149.80","115.41","34.39","42.01","20.4","14.70","89692","40.56","DUALSPOT-UV-BLUE-GREEN-RED-IR","768129","711876","902913","9.274912","2.482313","0.038131","750858","903028","761502","6.298922","1.274692","0.075988","852667","914605","817069","5.246788","0.897354","0.095608","847407","938039","866278","4.080628","0.382632","0.135651","717513","852224","955610","3.633815","0.782822","0.154156","3853","5397","5961","3786","6558","7262","3371","6185","6765","3448","7323","7724","1396","2791","3174",""
"MA200-0416","29219","87","1","1.10","1.4","2023-05-27T12:57:00","120","2023/05/27","12:57:00","-15.787247359752655","35.03441182896495","0.0","17","30","64","79","6747","-2076","22624","13","150","150.09","115.20","34.90","41.89","20.5","14.72","89692","40.75","DUALSPOT-UV-BLUE-GREEN-RED-IR","770053","713747","905351","9.289795","2.484506","-0.252386","753145","905841","763904","6.314471","1.278120","-0.082126","849769","911570","814392","5.261701","0.904560","0.079457","841030","931038","859887","4.094997","0.392079","0.137755","714521","848563","951533","3.624500","0.784226","0.578797","758","369","226","1000","728","658","1074","1714","1847","1251","2715","2870","-1129","561","1028",""
"MA200-0416","29220","87","1","1.10","1.4","2023-05-27T12:57:30","120","2023/05/27","12:57:30","-15.787242531776428","35.03441449254751","0.0","17","30","64","78","7115","-1964","21628","13","150","149.51","114.84","34.67","41.87","20.9","14.99","89704","41.31","DUALSPOT-UV-BLUE-GREEN-RED-IR","773840","717314","909896","9.301258","2.487936","-0.001339","750366","902635","761220","6.330010","1.282543","-0.012185","850101","912010","814839","5.276030","0.909990","0.044691","846862","937497","865910","4.106137","0.398618","0.124497","718235","852891","956390","3.615257","0.785978","0.532708","586","581","579","1003","945","931","1035","1300","1355","973","1892","1991","-1124","705","1214",""
"MA200-0416","29221","87","1","1.10","1.4","2023-05-27T12:58:00","120","2023/05/27","12:58:00","-15.787236630916595","35.03441549092531","0.0","17","30","64","78","6945","-1958","22162","13","150","150.09","115.04","35.06","41.92","21.4","15.39","89720","42.00","DUALSPOT-UV-BLUE-GREEN-RED-IR","768917","712848","904225","9.314814","2.490146","-0.186382","752281","905052","763309","6.346325","1.286626","-0.045526","852577","914731","817303","5.289244","0.915151","0.048024","840628","930660","859662","4.117156","0.406765","0.148840","714918","848910","951929","3.607959","0.787353","0.536173","692","370","252","1051","863","815","953","1222","1278","961","2331","2481","-886","547","948",""
"MA200-0416","29222","87","1","1.10","1.4","2023-05-27T12:58:30","120","2023/05/27","12:58:30","-15.787237167358398","35.034413658082485","0.0","17","30","64","78","6712","-1904","22295","13","150","150.01","115.34","34.67","42.05","21.9","15.86","89712","42.75","DUALSPOT-UV-BLUE-GREEN-RED-IR","770560","714454","906313","9.332912","2.497268","0.031794","753689","906838","764842","6.362365","1.291561","0.004474","851340","913497","816231","5.303252","0.919901","0.025311","844146","934611","863338","4.130421","0.413043","0.094288","716517","850739","953991","3.604007","0.790226","0.359590","921","1206","1310","1030","1055","1061","1008","1137","1164","1153","1816","1889","-478","1157","1617",""
"MA200-0416","29223","87","1","1.10","1.4","2023-05-27T12:59:00","120","2023/05/27","12:59:00","-15.787238001823425","35.034416664391756","0.1","17","30","64","78","6896","-1988","22276","13","150","150.29","115.27","35.02","42.22","22.4","16.36","89716","43.50","DUALSPOT-UV-BLUE-GREEN-RED-IR","772979","716891","909539","9.356655","2.502063","-0.090136","749750","902304","761080","6.381662","1.296108","-0.061385","850331","912617","815517","5.319822","0.924640","-0.014343","846594","937471","866047","4.142357","0.417751","0.060180","714415","848243","951246","3.601724","0.792354","0.343515","1209","804","656","1240","962","891","1193","1123","1108","1038","1349","1383","-276","848","1166",""
"MA200-0416","29224","87","1","1.10","1.4","2023-05-27T12:59:30","120","2023/05/27","12:59:30","-15.787236034870148","35.03442715853453","0.0","17","30","64","78","6783","-2162","22116","13","150","149.33","115.16","34.17","42.44","22.8","16.83","89712","44.19","DUALSPOT-UV-BLUE-GREEN-RED-IR","769405","714160","906377","9.477486","2.538244","0.001295","752389","906082","764477","6.477076","1.322818","-0.011819","848706","911322","814517","5.397910","0.945502","-0.025464","841183","931859","861007","4.205954","0.436019","-0.008785","716810","851273","954747","3.637964","0.803824","0.021653","6163","6219","6239","6142","5794","5705","5629","5068","4949","5540","5363","5343","4396","4689","4772",""
"MA200-0416","29225","87","1","1.10","1.4","2023-05-27T13:00:00","120","2023/05/27","13:00:00","-15.787232637405396","35.03442932665348","0.0","17","30","64","78","6920","-2104","22464","13","150","150.03","115.12","34.91","42.69","23.1","17.26","89716","44.88","DUALSPOT-UV-BLUE-GREEN-RED-IR","772810","717482","910688","9.519182","2.550346","-0.006554","753111","907118","765355","6.505312","1.330364","-0.027002","850905","913812","816781","5.421323","0.950455","-0.106803","842456","933379","862456","4.223404","0.439781","-0.112901","715102","849272","952526","3.645364","0.806497","0.054031","2127","2036","2002","1818","1602","1546","1688","1177","1069","1520","1080","1029","898","1069","1118",""
"MA200-0416","29226","87","1","1.10","1.4","2023-05-27T13:00:30","120","2023/05/27","13:00:30","-15.787234663963318","35.03442566096783","0.0","17","30","64","78","6932","-2092","22408","13","150","149.96","115.35","34.61","42.97","23.3","17.62","89720","45.44","DUALSPOT-UV-BLUE-GREEN-RED-IR","769111","714183","906539","9.545382","2.557111","-0.024613","752930","907006","765309","6.519911","1.332347","-0.337638","852164","915292","818101","5.432325","0.950943","5.780374","841969","932916","861961","4.230213","0.437754","0.429869","716150","850559","954005","3.650665","0.807246","-0.580682","1334","1148","1080","938","424","293","791","117","-26","592","-587","-723","641","302","205",""
"MA200-0416","29227","87","1","1.10","1.4","2023-05-27T13:01:00","120","2023/05/27","13:01:00","-15.787236511707306","35.03442316129804","0.0","17","30","64","78","7041","-2008","22312","13","150","149.83","114.96","34.87","43.25","23.4","17.89","89724","45.94","DUALSPOT-UV-BLUE-GREEN-RED-IR","768244","713513","905751","9.573248","2.564312","-0.026524","750192","903793","762598","6.533349","1.334589","-0.199452","847932","910843","814092","5.442470","0.950783","0.852476","840390","931232","860413","4.238403","0.435799","0.473837","715422","849721","953047","3.656412","0.808570","-0.121935","1423","1212","1135","866","476","376","732","-38","-201","714","-562","-708","698","530","483",""
"MA200-0416","29228","87","1","1.10","1.4","2023-05-27T13:01:30","120","2023/05/27","13:01:30","-15.787232995033264","35.03442616015673","0.1","17","30","64","77","6925","-2154","22262","13","150","149.72","115.29","34.43","43.53","23.4","18.11","89720","46.31","DUALSPOT-UV-BLUE-GREEN-RED-IR","769945","715273","908073","9.601194","2.571760","-0.017943","750385","904165","762902","6.547116","1.334589","0.749294","848413","911485","814641","5.451530","0.947141","0.283162","840517","931496","860624","4.243614","0.431520","0.309890","715686","850092","953448","3.663671","0.809320","-1.430380","1423","1270","1214","885","0","-226","652","-878","-1200","453","-1247","-1439","879","304","140",""
"MA200-0416","29229","87","1","1.10","1.4","2023-05-27T13:02:00","120","2023/05/27","13:02:00","-15.787235021591187","35.03442599251866","0.0","17","30","64","78","6941","-2045","22420","13","150","149.33","114.40","34.93","43.80","23.3","18.31","89724","46.63","DUALSPOT-UV-BLUE-GREEN-RED-IR","767681","713338","905647","9.632986","2.578552","-0.072125","752487","906833","765164","6.563479","1.335264","1.929803","850479","913781","816696","5.461150","0.943988","0.304635","844033","935510","864256","4.249169","0.425285","0.291415","717460","852281","955931","3.672901","0.809279","1.175977","1632","1142","963","1060","143","-90","698","-749","-1051","487","-1790","-2044","1127","-16","-339",""
"MA200-0416","29230","87","1","1.10","1.4","2023-05-27T13:02:30","120","2023/05/27","13:02:30","-15.787237703800201","35.0344253256917","0.0","17","30","64","78","6943","-2040","22384","13","150","150.56","115.27","35.28","44.06","23.1","18.40","89724","46.88","DUALSPOT-UV-BLUE-GREEN-RED-IR","767973","713766","906259","9.660326","2.585985","-0.018640","752189","906588","764951","6.575092","1.333458","0.322623","849204","912568","815558","5.469846","0.938403","0.249540","843440","934960","863714","4.253612","0.417811","0.272990","716831","851611","955189","3.683063","0.810029","-9.785749","1393","1237","1180","746","-379","-666","626","-1314","-1716","386","-2125","-2399","1231","296","33",""
"MA200-0416","29231","87","1","1.10","1.4","2023-05-27T13:03:00","120","2023/05/27","13:03:00","-15.787240982055664","35.03442249447107","0.1","17","30","64","78","7016","-2087","22170","13","150","149.57","114.64","34.93","44.30","23.0","18.53","89728","47.19","DUALSPOT-UV-BLUE-GREEN-RED-IR","768902","714753","907540","9.683836","2.588405","-0.968054","752115","906628","764953","6.584294","1.330221","0.241217","848072","911479","814536","5.474752","0.931584","0.214683","844345","936063","864636","4.258446","0.409252","0.270758","716019","850724","954201","3.693737","0.810536","3.602964","1204","407","116","595","-687","-1011","355","-1620","-2026","423","-2458","-2765","1300","202","-105",""
"MA200-0416","29232","87","1","1.10","1.4","2023-05-27T13:03:30","120","2023/05/27","13:03:30","-15.78723931312561","35.034422658383846","0.1","17","30","64","78","7043","-1992","22416","13","150","149.57","114.92","34.65","44.55","22.9","18.64","89728","47.38","DUALSPOT-UV-BLUE-GREEN-RED-IR","769660","715588","908654","9.707685","2.592117","-0.200036","752322","906974","765220","6.594103","1.328027","0.280070","848204","911725","814681","5.481589","0.925916","0.234380","845621","937599","865972","4.260082","0.399405","0.245344","716065","850883","954376","3.704574","0.811058","3.826047","1218","629","414","632","-469","-747","493","-1358","-1734","142","-2851","-3160","1317","210","-100",""
"MA200-0416","29233","87","1","1.10","1.4","2023-05-27T13:04:00","120","2023/05/27","13:04:00","-15.787231147289276","35.03442399203777","0.0","17","30","64","78","6952","-2044","22283","13","150","150.16","114.68","35.48","44.80","22.7","18.73","89740","47.63","DUALSPOT-UV-BLUE-GREEN-RED-IR","770399","716438","909750","9.730547","2.596490","-0.111611","751649","906264","764586","6.603524","1.324552","0.238358","851612","915510","818021","5.489272","0.920552","0.244714","845621","937672","865988","4.262169","0.390380","0.249776","715209","849987","953361","3.716520","0.811980","-6.507854","1170","723","561","609","-726","-1061","556","-1255","-1620","182","-2551","-2827","1455","363","57",""
"MA200-0416","29234","87","1","1.10","1.4","2023-05-27T13:04:30","120","2023/05/27","13:04:30","-15.78723531961441","35.03441982716322","0.0","17","30","64","78","7060","-1968","22192","13","150","150.29","114.64","35.65","45.02","22.6","18.79","89736","47.88","DUALSPOT-UV-BLUE-GREEN-RED-IR","769819","716044","909275","9.753336","2.598396","-30.893930","751271","905955","764321","6.612256","1.319599","0.211057","850622","914546","817097","5.494117","0.911718","0.207201","845075","937231","865459","4.264477","0.380051","0.249242","714372","849069","952347","3.728599","0.811565","0.907731","1167","313","3","564","-1029","-1427","350","-2057","-2536","201","-2906","-3210","1471","-162","-617",""
"MA200-0416","29235","87","1","1.10","1.4","2023-05-27T13:05:00","120","2023/05/27","13:05:00","-15.787231147289276","35.034422159194946","0.1","17","30","64","77","7041","-2000","22211","13","150","149.63","114.96","34.67","45.26","22.4","18.90","89716","48.19","DUALSPOT-UV-BLUE-GREEN-RED-IR","764852","711562","903600","9.775669","2.601591","-0.258401","751997","906943","765100","6.621158","1.314909","0.213249","849813","913822","816397","5.498660","0.903195","0.205665","846132","938505","866562","4.267211","0.368864","0.250031","713833","848531","951769","3.740806","0.812727","-1.857669","1141","541","323","574","-1002","-1393","328","-2040","-2506","238","-3236","-3565","1483","468","186",""
"MA200-0416","29236","87","1","1.10","1.4","2023-05-27T13:05:30","120","2023/05/27","13:05:30","-15.78723520040512","35.03442082554102","0.0","17","30","64","78","7020","-2016","22364","13","150","149.45","114.52","34.93","45.50","22.3","19.00","89724","48.44","DUALSPOT-UV-BLUE-GREEN-RED-IR","765805","712596","904961","9.799446","2.603546","-19.024286","752365","907527","765551","6.629491","1.309330","0.201430","850023","914200","816655","5.504947","0.895797","0.219488","841487","933516","861811","4.268578","0.356555","0.241522","713929","848751","951974","3.753820","0.812662","1.161940","1219","328","6","539","-1184","-1608","455","-1758","-2188","119","-3535","-3868","1587","-26","-472",""
"MA200-0416","29237","87","1","1.10","1.4","2023-05-27T13:06:00","120","2023/05/27","13:06:00","-15.787236332893372","35.03441782668233","0.0","17","30","64","77","7011","-2092","22360","13","150","150.43","114.52","35.91","45.75","22.2","19.13","89720","48.69","DUALSPOT-UV-BLUE-GREEN-RED-IR","766462","713412","905996","9.829044","2.609087","-0.123617","748540","903074","761780","6.645127","1.307994","0.408102","849078","913276","815782","5.514574","0.888955","0.243976","842092","934311","862507","4.274366","0.348193","0.279775","713243","848033","951222","3.769830","0.815484","-0.335828","1518","906","685","1012","-275","-591","697","-1582","-2020","507","-2336","-2588","1953","1097","861",""
"MA200-0416","29238","87","1","1.10","1.4","2023-05-27T13:06:30","120","2023/05/27","13:06:30","-15.787235856056213","35.03443115949631","0.0","17","30","64","77","6950","-2066","22354","13","150","149.76","114.68","35.09","45.96","21.9","19.11","89728","48.88","DUALSPOT-UV-BLUE-GREEN-RED-IR","760161","707722","898840","9.861965","2.616636","-0.052453","752341","907802","765750","6.658424","1.306522","0.366458","847720","911964","814556","5.524260","0.883555","0.257739","841541","933814","861954","4.279885","0.339192","0.273416","715656","851032","954595","3.785522","0.816033","2.312872","1686","1263","1111","859","-311","-596","701","-1277","-1654","482","-2573","-2836","1911","218","-246",""
