"Serial number","Datum ID","Session ID","Data format version","Firmware version","App version","Date / time local","Timezone offset (mins)","Date local (yyyy/MM/dd)","Time local (hh:mm:ss)","GPS lat (ddmm.mmmmm)","GPS long (dddmm.mmmmm)","GPS speed (km/h)","GPS sat count","Timebase (s)","Status","Battery remaining (%)","Accel X","Accel Y","Accel Z","Tape position","Flow setpoint (mL/min)","Flow total (mL/min)","Flow1 (mL/min)","Flow2 (mL/min)","Sample temp (C)","Sample RH (%)","Sample dewpoint (C)","Internal pressure (Pa)","Internal temp (C)","Optical config","UV Sen1","UV Sen2","UV Ref","UV ATN1","UV ATN2","UV K","Blue Sen1","Blue Sen2","Blue Ref","Blue ATN1","Blue ATN2","Blue K","Green Sen1","Green Sen2","Green Ref","Green ATN1","Green ATN2","Green K","Red Sen1","Red Sen2","Red Ref","Red ATN1","Red ATN2","Red K","IR Sen1","IR Sen2","IR Ref","IR ATN1","IR ATN2","IR K","UV BC1","UV BC2","UV BCc","Blue BC1","Blue BC2","Blue BCc","Green BC1","Green BC2","Green BCc","Red BC1","Red BC2","Red BCc","IR BC1","IR BC2","IR BCc","Readable status"
"MA200-0420","23048","53","1","1.10","1.4","2023-05-06T08:56:00","120","2023/05/06","08:56:00","0","0","0.0","0","30","66","91","-18203","421","-19178","16","150","0.00","0.00","0.00","22.72","0.0","-203.73","90492","21.81","DUALSPOT-UV-BLUE-GREEN-RED-IR","772384","679851","859051","0.000000","0.000000","0.000000","834621","837890","767257","0.000000","0.000000","0.000000","820832","820289","767595","0.000000","0.000000","0.000000","841394","827917","826889","0.000000","0.000000","0.000000","776637","893472","950194","0.000000","0.000000","0.000000","","","","","","","","","","","","","","","","Start up"
"MA200-0420","23049","53","1","1.10","1.4","2023-05-06T08:56:30","120","2023/05/06","08:56:30","0","0","0.0","0","30","66","91","-24296","-2708","-6624","16","150","150.42","113.27","37.15","22.86","56.9","13.87","90532","22.25","DUALSPOT-UV-BLUE-GREEN-RED-IR","816633","719611","909775","0.000000","0.000000","0.000000","912042","916250","839165","0.000000","0.000000","0.000000","888181","888130","831175","0.000000","0.000000","0.000000","908019","893747","893065","0.000000","0.000000","0.000000","787710","906879","964397","0.000000","0.000000","0.000000","","","","","","","","","","","","","","","","Start up"
"MA200-0420","23050","53","1","1.10","1.4","2023-05-06T08:57:00","120","2023/05/06","08:57:00","0","0","0.0","2","30","66","90","-24560","-5680","-7332","16","150","149.50","112.64","36.86","22.99","56.6","13.92","90344","22.56","DUALSPOT-UV-BLUE-GREEN-RED-IR","811438","716332","906543","0.000000","0.000000","0.000000","907540","912674","836503","0.000000","0.000000","0.000000","888731","889476","832896","0.000000","0.000000","0.000000","900715","887202","886994","0.000000","0.000000","0.000000","787525","907268","965051","0.000000","0.000000","0.000000","","","","","","","","","","","","","","","","Start up"
"MA200-0420","23051","53","1","1.10","1.4","2023-05-06T08:57:30","120","2023/05/06","08:57:30","0","0","0.0","2","30","66","90","-24520","-4425","-8308","16","150","149.65","112.97","36.68","23.10","56.2","13.89","90332","22.81","DUALSPOT-UV-BLUE-GREEN-RED-IR","809046","716108","907430","0.000000","0.000000","0.000000","905695","912371","836988","0.000000","0.000000","0.000000","886514","888520","832693","0.000000","0.000000","0.000000","905161","892608","893009","0.000000","0.000000","0.000000","785499","905710","963799","0.000000","0.000000","0.000000","","","","","","","","","","","","","","","","Start up"
"MA200-0420","23052","53","1","1.10","1.4","2023-05-06T08:58:00","120","2023/05/06","08:58:00","0","0","0.0","3","30","66","90","-25104","-1676","-7656","16","150","149.60","112.73","36.87","23.22","55.8","13.89","90340","23.00","DUALSPOT-UV-BLUE-GREEN-RED-IR","803160","712613","904008","0.000000","0.000000","0.000000","899117","907179","832845","0.000000","0.000000","0.000000","881721","884896","829830","0.000000","0.000000","0.000000","900706","889107","889980","0.000000","0.000000","0.000000","782363","902799","960995","0.000000","0.000000","0.000000","","","","","","","","","","","","","","","","Start up"
"MA200-0420","23053","53","1","1.10","1.4","2023-05-06T08:58:30","120","2023/05/06","08:58:30","0","0","0.0","4","30","64","90","-24952","-3896","-6715","16","150","149.60","112.36","37.24","23.32","55.3","13.85","90368","23.13","DUALSPOT-UV-BLUE-GREEN-RED-IR","807451","717102","910146","0.000000","0.000000","0.000000","904457","913076","838531","0.000000","0.000000","0.000000","885703","889305","834197","0.000000","0.000000","0.000000","898960","887731","888798","0.000000","0.000000","0.000000","785870","907107","965743","0.000000","0.000000","0.000000","","","","","","","","","","","","","","","",""
"MA200-0420","23054","53","1","1.10","1.4","2023-05-06T08:59:00","120","2023/05/06","08:59:00","0","0","0.0","5","30","64","89","-25141","-3612","-6008","16","150","149.72","112.44","37.28","23.41","54.9","13.82","90368","23.25","DUALSPOT-UV-BLUE-GREEN-RED-IR","803967","714596","907323","0.124993","0.038679","0.000000","901141","910158","836074","0.074309","0.024670","0.000000","881706","885636","830931","0.061535","0.021517","0.000000","901504","890492","891741","0.049555","0.017569","0.000000","787292","908997","967849","0.037885","0.011193","0.000000","6529","6094","6529","4899","4906","4899","4543","4792","4543","4421","4728","4421","4706","4194","4706",""
"MA200-0420","23055","53","1","1.10","1.4","2023-05-06T08:59:30","120","2023/05/06","08:59:30","0","0","0.0","6","30","64","89","-25140","-3516","-6068","16","150","149.50","112.61","36.89","23.51","54.6","13.83","90364","23.38","DUALSPOT-UV-BLUE-GREEN-RED-IR","804556","715637","908891","0.223504","0.068243","0.000000","902494","911906","837800","0.132340","0.041902","0.000000","884459","888677","833897","0.107693","0.034767","0.000000","895510","884841","886146","0.086683","0.028981","0.000000","783769","905100","963772","0.067125","0.018898","0.000000","5138","4707","5138","3820","3462","3820","3402","2982","3402","3307","3103","3307","3627","2917","3627",""
"MA200-0420","23056","53","1","1.10","1.4","2023-05-06T09:00:00","120","2023/05/06","09:00:00","0","0","0.0","5","30","64","89","-25204","-3608","-6391","16","150","149.38","112.48","36.90","23.60","54.5","13.89","0","0.00","DUALSPOT-UV-BLUE-GREEN-RED-IR","801703","713930","907167","0.381283","0.113595","0.000000","899574","909649","835981","0.233924","0.069236","0.000000","881334","886175","831725","0.194776","0.057959","0.000000","900248","889959","891444","0.154131","0.046520","0.000000","786272","908368","967356","0.114305","0.029448","0.000000","8239","7219","8239","6695","5491","6695","6427","5218","6427","6016","4769","6016","5859","3994","5859",""
"MA200-0420","23057","53","1","1.10","1.4","2023-05-06T09:00:30","120","2023/05/06","09:00:30","0","0","0.0","5","30","64","89","-25172","-3616","-6332","16","150","149.67","112.69","36.98","23.67","54.4","13.91","0","0.00","DUALSPOT-UV-BLUE-GREEN-RED-IR","801857","715653","910208","0.670324","0.199209","0.000000","900745","912274","838955","0.438839","0.128561","0.000000","882118","888169","834035","0.368583","0.107371","0.000000","894708","885467","887373","0.294893","0.088177","0.000000","782464","904697","963712","0.212112","0.054841","0.000000","15065","13597","15065","13480","11892","13480","12805","11093","12805","12532","11301","12532","12124","9592","12124",""
"MA200-0420","23058","53","1","1.10","1.4","2023-05-06T09:01:00","120","2023/05/06","09:01:00","0","0","0.0","5","30","64","89","-25228","-3616","-6068","16","150","149.47","112.36","37.11","23.76","54.4","14.00","90356","23.69","DUALSPOT-UV-BLUE-GREEN-RED-IR","798342","713213","907442","0.839268","0.247156","0.000000","896756","908865","835990","0.550443","0.158667","0.000000","884671","891250","837076","0.464236","0.132876","0.000000","897671","888785","890824","0.371730","0.108618","0.000000","784205","907020","966306","0.267864","0.067144","0.000000","8831","7588","8831","7363","6014","7363","7068","5705","7068","6860","5525","6860","6931","4631","6931",""
"MA200-0420","23059","53","1","1.10","1.4","2023-05-06T09:01:30","120","2023/05/06","09:01:30","0","0","0.0","7","30","64","89","-25250","-3687","-6050","16","150","149.32","112.20","37.11","23.84","54.4","14.09","90356","23.81","DUALSPOT-UV-BLUE-GREEN-RED-IR","799046","714514","909423","0.966062","0.283193","0.000000","898245","910891","838049","0.630617","0.178146","0.000000","879322","886286","832567","0.529151","0.147342","0.000000","893113","884627","886774","0.424504","0.120016","0.000000","779829","902222","961231","0.302978","0.074385","0.000000","6637","5703","6637","5297","3890","5297","4803","3236","4803","4718","3081","4718","4371","2725","4371",""
"MA200-0420","23060","53","1","1.10","1.4","2023-05-06T09:02:00","120","2023/05/06","09:02:00","0","0","0.0","9","30","64","89","-24952","-6904","-2128","16","150","150.41","112.64","37.77","23.91","54.5","14.17","90376","23.88","DUALSPOT-UV-BLUE-GREEN-RED-IR","793607","711076","905815","1.209196","0.353633","0.000000","893421","907300","835227","0.799662","0.226855","0.000000","880077","888130","834731","0.674402","0.188529","0.000000","894315","886711","889220","0.540250","0.151627","0.000000","781095","904378","963782","0.387117","0.093603","0.000000","12678","10954","12678","11125","9560","11125","10706","9053","10706","10309","8396","10309","10435","7108","10435",""
"MA200-0420","23061","53","1","1.10","1.4","2023-05-06T09:02:30","120","2023/05/06","09:02:30","0","0","0.0","7","30","64","89","-24168","-3844","-6304","16","150","149.67","112.56","37.10","24.00","54.2","14.16","90212","24.00","DUALSPOT-UV-BLUE-GREEN-RED-IR","793917","712928","909117","1.546010","0.459215","0.000000","893925","909140","837498","1.027947","0.300246","0.000000","875162","884285","831589","0.867962","0.250202","0.000000","896034","889274","892200","0.696921","0.202667","0.000000","781584","905609","965377","0.497760","0.125085","0.000000","17574","16713","17574","15034","14663","15034","14276","13799","14276","13963","13800","13963","13731","11852","13731",""
"MA200-0420","23062","53","1","1.10","1.4","2023-05-06T09:03:00","120","2023/05/06","09:03:00","-15.798773765563965","35.004258666653186","11.1","8","30","64","88","-25429","-2779","-8100","16","150","149.89","112.76","37.13","24.09","53.8","14.15","90412","24.06","DUALSPOT-UV-BLUE-GREEN-RED-IR","786200","707261","902569","1.823362","0.545578","0.000000","893327","909502","838259","1.199078","0.354105","0.000000","875358","885247","832848","1.010012","0.295478","0.000000","888715","882638","885818","0.809752","0.238527","0.000000","782037","906584","966587","0.575374","0.146385","0.000000","14447","13661","14447","11251","10753","11251","10459","10123","10459","10039","9689","10039","9615","8013","9615",""
"MA200-0420","23063","53","1","1.10","1.4","2023-05-06T09:03:30","120","2023/05/06","09:03:30","0","0","0.0","8","30","64","88","-24916","-3496","-6679","16","150","149.47","113.06","36.41","24.15","53.5","14.11","90572","24.19","DUALSPOT-UV-BLUE-GREEN-RED-IR","788625","710616","907518","2.050585","0.615577","0.000000","889873","906908","836232","1.339936","0.397777","0.000000","872148","882782","830828","1.127725","0.329786","0.000000","892520","887021","890491","0.902032","0.266381","0.000000","779874","904574","964620","0.640825","0.162592","0.000000","11804","11292","11804","9235","8892","9235","8643","7823","8643","8188","7675","8188","8086","6218","8086",""
"MA200-0420","23064","53","1","1.10","1.4","2023-05-06T09:04:00","120","2023/05/06","09:04:00","-15.79471743106842","35.00414499966428","4.1","8","30","64","88","-26480","-3842","342","16","150","149.87","112.73","37.14","24.24","53.4","14.16","90692","24.25","DUALSPOT-UV-BLUE-GREEN-RED-IR","787528","710949","908667","2.310038","0.694751","0.000000","889525","907697","837388","1.507520","0.447135","0.000000","872470","883998","832299","1.267445","0.370174","0.000000","893970","889199","892967","1.011848","0.298517","0.000000","780101","905319","965624","0.716440","0.184076","0.000000","13518","12519","13518","11020","9851","11020","10290","9027","10290","9773","8680","9773","9370","8079","9370",""
"MA200-0420","23065","53","1","1.10","1.4","2023-05-06T09:04:30","120","2023/05/06","09:04:30","0","0","0.0","7","30","64","88","-24670","-7170","-6195","16","150","148.77","111.57","37.20","24.31","53.2","14.18","90640","24.31","DUALSPOT-UV-BLUE-GREEN-RED-IR","781254","706123","902980","2.507151","0.753927","0.000000","889744","908619","838465","1.633245","0.482619","0.000000","871251","883364","831897","1.372265","0.398427","0.000000","885934","881660","885560","1.095521","0.321898","0.000000","778517","903830","964137","0.773967","0.198508","0.000000","10376","9343","10376","8353","7071","8353","7799","6305","7799","7524","6306","7524","7202","5419","7202",""
"MA200-0420","23066","53","1","1.10","1.4","2023-05-06T09:05:00","120","2023/05/06","09:05:00","0","0","0.0","7","30","64","88","-24495","-7295","-7204","16","150","149.76","112.72","37.04","24.39","52.9","14.16","90576","24.38","DUALSPOT-UV-BLUE-GREEN-RED-IR","781102","708396","907289","2.964524","0.893075","0.000000","882958","904091","835293","1.990002","0.590729","0.000000","866541","880715","830278","1.691549","0.494420","0.000000","888088","885624","890337","1.368297","0.402259","0.000000","775005","901270","962030","0.987587","0.255469","0.000000","23833","22065","23833","23463","21638","23463","23517","21516","23517","24279","21767","24279","26474","21483","26474",""
"MA200-0420","23067","53","1","1.10","1.4","2023-05-06T09:05:30","120","2023/05/06","09:05:30","0","0","0.0","7","30","64","88","-24744","-2588","-8111","16","150","150.28","112.69","37.59","24.45","52.7","14.15","90596","24.44","DUALSPOT-UV-BLUE-GREEN-RED-IR","778923","709081","909709","3.486467","1.056085","-0.028922","882070","905776","837915","2.382189","0.711787","0.000000","865442","881741","832180","2.030706","0.598532","0.000000","887811","887167","892673","1.646797","0.487794","0.000000","774873","902383","963762","1.180269","0.311341","0.000000","27204","25467","24713","25800","23871","25800","24987","22991","24987","24795","22826","24795","23886","20761","23886",""
"MA200-0420","23068","53","1","1.10","1.4","2023-05-06T09:06:00","120","2023/05/06","09:06:00","-15.795461356639862","35.00020199996652","3.7","8","30","64","88","-24588","-2244","-8728","16","150","149.82","113.15","36.67","24.53","52.5","14.17","90692","24.56","DUALSPOT-UV-BLUE-GREEN-RED-IR","773077","704618","904471","3.729523","1.131036","-0.020050","882941","907437","839736","2.553951","0.763291","0.000000","865602","882588","833212","2.179259","0.641507","0.000000","881920","881815","887515","1.768320","0.523780","0.000000","775095","903045","964595","1.264040","0.333126","0.000000","12616","12005","11739","11253","10412","11253","10899","9729","10899","10775","9845","10775","10342","8298","10342",""
"MA200-0420","23069","53","1","1.10","1.4","2023-05-06T09:06:30","120","2023/05/06","09:06:30","-15.795605301856995","34.99941962957382","38137.1","8","30","64","88","-24580","-6864","-7015","16","150","149.32","112.60","36.72","24.59","52.5","14.23","90760","24.63","DUALSPOT-UV-BLUE-GREEN-RED-IR","773930","705919","906353","3.829138","1.158933","-0.066311","877655","902398","835178","2.612555","0.776720","0.000000","861324","878559","829476","2.227098","0.651884","0.000000","884008","884168","889914","1.806892","0.531567","0.000000","776715","905177","966906","1.291143","0.338334","0.000000","5196","4462","4144","3858","2711","3858","3527","2346","3527","3436","2127","3436","3362","1981","3362",""
"MA200-0420","23070","53","1","1.10","1.4","2023-05-06T09:07:00","120","2023/05/06","09:07:00","-15.795579493045807","34.998443365097046","3.1","8","30","64","88","-24612","-5937","-7500","16","150","150.02","113.08","36.94","24.66","52.5","14.28","90672","24.69","DUALSPOT-UV-BLUE-GREEN-RED-IR","775501","707808","909088","3.925196","1.186927","-0.046590","879744","904950","837662","2.671003","0.790834","0.000000","863260","880865","831742","2.275157","0.662672","0.000000","885752","886131","891991","1.843174","0.540038","0.000000","777620","906419","968287","1.316389","0.339670","0.000000","4989","4451","4217","3831","2832","3831","3528","2424","3528","3219","2300","3219","3118","505","3118",""
"MA200-0420","23071","53","1","1.10","1.4","2023-05-06T09:07:30","120","2023/05/06","09:07:30","-15.795459032058716","34.99765944480896","2.7","8","30","64","88","-24991","-4387","-6108","16","150","150.07","112.90","37.17","24.73","52.4","14.32","90624","24.75","DUALSPOT-UV-BLUE-GREEN-RED-IR","770743","704282","904947","4.071928","1.227447","-0.073745","881572","907538","840286","2.762210","0.814193","0.000000","863681","881861","832842","2.350497","0.680774","0.000000","879507","880303","886278","1.901616","0.554666","0.000000","772903","901231","962821","1.359191","0.348992","0.000000","7633","6402","5870","5989","4658","5989","5540","4042","5540","5193","3948","5193","5296","3503","5296",""
"MA200-0420","23072","53","1","1.10","1.4","2023-05-06T09:08:00","120","2023/05/06","09:08:00","-15.795473992824554","34.99679458141327","3.2","8","30","64","88","-24944","-2048","-7411","16","150","149.69","112.44","37.25","24.80","52.2","14.33","90700","24.81","DUALSPOT-UV-BLUE-GREEN-RED-IR","771227","705631","907204","4.266729","1.289926","-0.011220","875617","902096","835559","2.886885","0.854027","0.000000","864919","883692","834843","2.451426","0.710720","0.000000","881381","882642","888860","1.982269","0.579308","0.000000","774306","903256","965104","1.415185","0.361958","0.000000","10175","9851","9711","8219","7927","8219","7452","6674","7452","7196","6636","7196","6956","4862","6956",""
"MA200-0420","23073","53","1","1.10","1.4","2023-05-06T09:08:30","120","2023/05/06","09:08:30","-15.795447409152985","34.99589961767197","3.2","9","30","64","87","-24892","-2680","-7079","16","150","149.56","112.84","36.73","24.87","52.0","14.35","90808","24.88","DUALSPOT-UV-BLUE-GREEN-RED-IR","770274","705463","907397","4.388019","1.326242","-0.029546","875603","902573","836191","2.956730","0.873059","0.000000","859255","878302","829899","2.509701","0.727361","0.000000","881561","883137","889479","2.027502","0.592273","0.000000","773633","902713","964593","1.448576","0.370174","0.000000","6313","5808","5589","4588","3841","4588","4287","3762","4287","4021","3541","4021","4133","3125","4133",""
"MA200-0420","23074","53","1","1.10","1.4","2023-05-06T09:09:00","120","2023/05/06","09:09:00","-15.795451700687408","34.99506217241287","2.5","8","30","64","88","-24696","-6216","-6811","16","150","149.76","112.52","37.24","24.94","52.0","14.40","90840","24.94","DUALSPOT-UV-BLUE-GREEN-RED-IR","766051","703155","905402","4.674877","1.417007","-0.014377","878348","906362","840011","3.086483","0.908279","-0.110750","861548","881393","833037","2.611208","0.753134","0.000000","884766","886947","893448","2.102804","0.610944","0.000000","775906","905777","968018","1.498409","0.378480","0.000000","14974","14316","14031","8548","7011","6370","7489","5746","7489","6714","5030","6714","6186","3115","6186",""
"MA200-0420","23075","53","1","1.10","1.4","2023-05-06T09:09:30","120","2023/05/06","09:09:30","-15.795230507850647","34.994082152843475","3.2","8","30","64","86","-24988","-2148","-7347","16","150","149.44","112.36","37.08","25.01","51.8","14.42","90884","25.06","DUALSPOT-UV-BLUE-GREEN-RED-IR","765298","702980","905484","4.849498","1.474586","-0.000211","870376","898562","832994","3.176951","0.936228","-0.031275","860855","881030","832832","2.684676","0.772995","0.000000","877764","880190","886805","2.160073","0.627336","0.000000","770630","899827","961737","1.538728","0.387919","0.000000","9128","9121","9118","5968","5588","5429","5428","4447","5428","5113","4435","5113","5012","3556","5012",""
"MA200-0420","23076","53","1","1.10","1.4","2023-05-06T09:10:00","120","2023/05/06","09:10:00","-15.79556268453598","34.99342638254166","3.0","8","30","64","87","-24672","-5844","-7064","16","150","149.90","113.04","36.85","25.08","51.7","14.44","90856","25.13","DUALSPOT-UV-BLUE-GREEN-RED-IR","767894","705705","909223","4.928589","1.499490","-0.010458","874530","903118","837295","3.225600","0.950813","-0.039879","858034","878356","830387","2.723878","0.785678","0.000000","881981","884594","891306","2.191641","0.637329","0.000000","773278","903101","965227","1.562099","0.392175","0.000000","4109","3969","3907","3190","2933","2826","2879","2857","2879","2801","2720","2801","2888","1613","2888",""
"MA200-0420","23077","53","1","1.10","1.4","2023-05-06T09:10:30","120","2023/05/06","09:10:30","-15.796279311180115","34.99285590648651","3.3","8","30","64","86","-25028","-2728","-7105","16","150","149.56","112.72","36.84","25.16","51.6","14.48","90884","25.19","DUALSPOT-UV-BLUE-GREEN-RED-IR","763959","702472","905229","5.003389","1.524734","0.008915","877106","906089","840137","3.268063","0.963282","-0.051513","860052","880660","832655","2.760500","0.795805","0.000000","883385","886161","892984","2.219821","0.645833","0.000000","774340","904504","966740","1.584152","0.396443","0.000000","3897","4024","4079","2792","2508","2390","2697","2281","2697","2508","2315","2508","2733","1618","2733",""
"MA200-0420","23078","53","1","1.10","1.4","2023-05-06T09:11:00","120","2023/05/06","09:11:00","-15.797038853168488","34.99241989850998","3.2","9","30","64","87","-24779","-4508","-6833","16","150","149.44","112.76","36.68","25.22","51.5","14.53","90896","25.25","DUALSPOT-UV-BLUE-GREEN-RED-IR","765555","704298","907801","5.076334","1.545795","-0.038002","872347","901439","835967","3.313672","0.973785","-0.212992","861140","882046","834038","2.795070","0.803238","0.000000","878350","881322","888144","2.247298","0.651503","0.000000","775475","906024","968418","1.604841","0.398584","0.000000","3799","3372","3185","2998","2122","1757","2545","1682","2545","2444","1550","2444","2563","815","2563",""
"MA200-0420","23079","53","1","1.10","1.4","2023-05-06T09:11:30","120","2023/05/06","09:11:30","-15.797992587089539","34.99206501245499","3.7","8","30","64","87","-24936","-4532","-6404","16","150","149.96","112.67","37.29","25.30","51.5","14.60","90908","25.31","DUALSPOT-UV-BLUE-GREEN-RED-IR","766767","705877","910076","5.165546","1.571207","-0.048520","873542","903066","837553","3.363591","0.985259","-0.226272","857035","878104","830375","2.836597","0.811285","0.000000","880358","883526","890426","2.280316","0.659372","0.000000","771906","901986","964165","1.628929","0.403846","0.000000","4650","4002","3718","3284","2280","1865","3060","1791","3060","2940","2116","2940","2986","1971","2986",""
"MA200-0420","23080","53","1","1.10","1.4","2023-05-06T09:12:00","120","2023/05/06","09:12:00","-15.799038290977478","34.99183005094528","3.5","8","30","64","86","-24954","-3325","-7495","16","150","149.44","113.74","35.69","25.37","51.5","14.64","90932","25.38","DUALSPOT-UV-BLUE-GREEN-RED-IR","758397","699567","902705","5.440210","1.654111","-0.010657","871937","902735","837801","3.569025","1.046896","-0.018558","855793","878008","830755","3.017664","0.863474","-0.042707","879667","883838","891164","2.433689","0.701681","0.000000","770959","901747","964184","1.751901","0.432571","0.000000","14183","13642","13406","13389","12801","12557","13216","12139","11707","13528","11892","13528","15103","11242","15103",""
"MA200-0420","23081","53","1","1.10","1.4","2023-05-06T09:12:30","120","2023/05/06","09:12:30","-15.799958646297455","34.99194586277008","2.5","8","30","64","87","-24754","-5525","-6508","16","150","149.89","112.44","37.45","25.44","51.2","14.62","90960","25.44","DUALSPOT-UV-BLUE-GREEN-RED-IR","761036","702467","906784","5.555765","1.694669","0.012958","875266","906547","841476","3.637642","1.071834","0.031516","858217","880760","833492","3.074145","0.883072","0.018060","876226","880633","888047","2.479248","0.718557","0.000000","773562","904960","967729","1.785627","0.441750","0.000000","6036","6361","6504","4523","4937","5109","4170","4345","4415","4065","4521","4065","4190","3423","4190",""
"MA200-0420","23082","53","1","1.10","1.4","2023-05-06T09:13:00","120","2023/05/06","09:13:00","-15.800760209560394","34.99197334051132","3.2","8","30","64","86","-25112","-5100","-6016","16","150","149.44","112.44","37.00","25.51","50.9","14.59","90932","25.56","DUALSPOT-UV-BLUE-GREEN-RED-IR","762459","704297","909491","5.661524","1.729795","0.002360","870310","901824","837307","3.700477","1.093220","0.012577","859168","882073","834885","3.125226","0.899767","-0.003038","878015","882661","890216","2.519316","0.732093","0.000000","773816","905525","968379","1.816471","0.449258","0.000000","5524","5576","5599","4142","4285","4345","3771","3746","3736","3575","3670","3575","3832","2835","3832",""
"MA200-0420","23083","53","1","1.10","1.4","2023-05-06T09:13:30","120","2023/05/06","09:13:30","-15.800928354263306","34.992748618125916","4.0","8","30","64","86","-24488","-6840","-6928","16","150","149.07","112.34","36.72","25.58","50.4","14.51","90832","25.63","DUALSPOT-UV-BLUE-GREEN-RED-IR","755711","698760","902772","5.797502","1.775207","0.005226","869561","901602","837376","3.784221","1.121544","0.012418","853439","876672","829980","3.195333","0.922709","0.000490","877111","882140","889860","2.574079","0.749852","0.000000","768287","899322","961865","1.857141","0.460019","0.000000","7109","7263","7331","5526","5717","5798","5180","5186","5189","4890","4851","4890","5057","4093","5057",""
"MA200-0420","23084","53","1","1.10","1.4","2023-05-06T09:14:00","120","2023/05/06","09:14:00","-15.800591588020325","34.99382936954498","3.8","9","30","64","86","-24964","-4760","-6788","16","150","149.93","112.74","37.19","25.65","50.1","14.49","90820","25.69","DUALSPOT-UV-BLUE-GREEN-RED-IR","758400","701861","907109","5.936960","1.816490","-0.029193","872883","905530","841202","3.871608","1.146674","-0.057504","855691","879376","832679","3.267693","0.943202","-0.075928","874032","879357","887196","2.632877","0.766231","0.000000","770514","902173","965041","1.900043","0.469976","0.000000","7265","6520","6192","5745","5009","4699","5328","4574","4269","5232","4418","5232","5315","3740","5315",""
"MA200-0420","23085","53","1","1.10","1.4","2023-05-06T09:14:30","120","2023/05/06","09:14:30","-15.800433337688446","34.99438101053238","3.0","8","30","64","86","-25184","-4184","-7615","16","150","150.43","112.83","37.60","25.72","50.0","14.51","90796","25.69","DUALSPOT-UV-BLUE-GREEN-RED-IR","758630","702519","908264","6.033363","1.845918","-0.022822","867560","900361","836508","3.927928","1.161534","-0.106917","856541","880570","833879","3.313326","0.953578","-0.242991","875220","880762","888691","2.667076","0.774386","0.000000","771369","903411","966350","1.925725","0.473815","0.000000","5018","4596","4411","3700","2929","2605","3357","2291","1860","3040","2175","3040","3179","1426","3179",""
"MA200-0420","23086","53","1","1.10","1.4","2023-05-06T09:15:00","120","2023/05/06","09:15:00","-15.80117392539978","34.9949432015419","3.0","8","30","64","86","-24492","-6604","-7147","16","150","150.34","112.52","37.82","25.78","49.8","14.51","90736","25.75","DUALSPOT-UV-BLUE-GREEN-RED-IR","760277","704461","911022","6.122463","1.876783","0.006886","869308","902519","838656","3.980613","1.178390","-0.018462","852561","876702","830348","3.357160","0.968158","-0.004470","876479","882224","890265","2.701202","0.786739","0.000000","772053","904396","967480","1.951847","0.479018","0.000000","4651","4793","4855","3471","3303","3233","3234","3200","3186","3042","3276","3042","3243","1921","3243",""
"MA200-0420","23087","53","1","1.10","1.4","2023-05-06T09:15:30","120","2023/05/06","09:15:30","-15.801775217056274","34.995700001716614","4.8","9","30","64","86","-24992","-3876","-6276","16","150","149.74","112.03","37.71","25.86","49.6","14.50","90720","25.88","DUALSPOT-UV-BLUE-GREEN-RED-IR","755427","700435","906090","6.215801","1.907291","-0.007029","870929","904530","840676","4.036099","1.195240","-0.040011","858542","883160","836547","3.401899","0.979763","-0.139741","878118","884123","892262","2.736866","0.796002","0.000000","767913","899738","962539","1.977541","0.483098","0.000000","4893","4751","4688","3671","3312","3161","3315","2554","2247","3193","2464","3193","3203","1511","3203",""
"MA200-0420","23088","53","1","1.10","1.4","2023-05-06T09:16:00","120","2023/05/06","09:16:00","-15.801686108112335","34.99660313129425","3.8","8","30","64","86","-24836","-5540","-7420","16","150","147.44","112.44","35.00","25.95","49.3","14.51","90636","25.88","DUALSPOT-UV-BLUE-GREEN-RED-IR","755069","700499","906457","6.307594","1.937009","0.008699","863980","897637","834422","4.090470","1.212204","0.000844","853471","878196","831984","3.445887","0.993585","0.003863","870828","876988","885163","2.771064","0.807323","0.000000","767673","899629","962458","2.002271","0.488761","0.000000","4795","4987","5073","3584","3593","3597","3247","3279","3291","3051","3245","3051","3072","2260","3072",""
"MA200-0420","23089","53","1","1.10","1.4","2023-05-06T09:16:30","120","2023/05/06","09:16:30","-15.801203727722168","34.99729138612747","3.1","8","30","64","86","-24428","-6547","-7360","16","150","150.21","112.56","37.65","25.96","49.1","14.46","90564","25.94","DUALSPOT-UV-BLUE-GREEN-RED-IR","757194","702871","909799","6.392071","1.963388","-0.016591","865977","900035","836764","4.139161","1.227402","-0.025325","855232","880246","834001","3.485018","1.004892","-0.067843","873834","880205","888451","2.801384","0.815480","0.000000","769587","902019","965068","2.025484","0.494308","0.000000","4407","4115","3985","3206","2992","2902","2886","2493","2334","2702","2173","2702","2880","2057","2880",""
"MA200-0420","23090","53","1","1.10","1.4","2023-05-06T09:17:00","120","2023/05/06","09:17:00","-15.801171123981476","34.997618317604065","0.9","8","30","64","86","-25087","-4437","-6116","16","150","149.47","112.07","37.40","26.03","49.0","14.49","90536","26.00","DUALSPOT-UV-BLUE-GREEN-RED-IR","752189","698608","904534","6.474748","1.991340","0.002853","867977","902407","839087","4.187542","1.241190","-0.062605","850404","875509","829627","3.523761","1.014930","-0.130021","874891","881480","889811","2.831300","0.823687","0.000000","770222","902914","966050","2.046667","0.497739","0.000000","4333","4389","4414","3200","2732","2535","2870","2228","1968","2678","2201","2678","2640","1281","2640",""
"MA200-0420","23091","53","1","1.10","1.4","2023-05-06T09:17:30","120","2023/05/06","09:17:30","-15.800485372543335","34.99712836742401","4.1","10","30","64","85","-24805","-4157","-7328","16","150","150.02","112.52","37.50","26.09","48.9","14.50","90540","26.06","DUALSPOT-UV-BLUE-GREEN-RED-IR","751813","698666","904831","6.559305","2.017589","-0.016732","867626","902362","839154","4.235542","1.254809","-0.063181","855210","880733","834652","3.563517","1.026886","-0.044552","874625","881378","889814","2.862705","0.833856","0.000000","769487","902241","965369","2.069185","0.501910","0.000000","4413","4111","3977","3162","2692","2494","2933","2647","2531","2800","2720","2800","2795","1554","2795",""
"MA200-0420","23092","53","1","1.10","1.4","2023-05-06T09:18:00","120","2023/05/06","09:18:00","-15.800042271614075","34.996280789375305","4.5","9","30","64","86","-24866","-3866","-6641","16","150","150.21","112.07","38.15","26.16","48.7","14.50","90568","26.13","DUALSPOT-UV-BLUE-GREEN-RED-IR","754033","701144","908303","6.650671","2.049821","0.007517","863495","898345","835563","4.287702","1.272273","-0.005559","853044","878787","832898","3.606135","1.039934","-0.045656","871034","877982","886473","2.896837","0.843183","0.000000","767010","899519","962509","2.094791","0.509016","0.000000","4788","4962","5040","3450","3393","3370","3157","2839","2710","3055","2453","3055","3191","2602","3191",""
"MA200-0420","23093","53","1","1.10","1.4","2023-05-06T09:18:30","120","2023/05/06","09:18:30","-15.799222826957703","34.99560248851776","3.7","10","30","64","86","-24792","-3384","-7100","16","150","150.41","112.68","37.73","26.22","48.5","14.50","90596","26.25","DUALSPOT-UV-BLUE-GREEN-RED-IR","754721","702143","909830","6.729156","2.075531","-0.004826","864469","899713","836976","4.335606","1.287252","-0.023973","854208","880209","834355","3.643334","1.050085","-0.096442","873664","880764","889385","2.926187","0.852933","0.000000","768752","901701","964888","2.115858","0.511668","0.000000","4091","4002","3962","3151","2943","2854","2740","2233","2028","2613","2592","2613","2611","981","2611",""
"MA200-0420","23094","53","1","1.10","1.4","2023-05-06T09:19:00","120","2023/05/06","09:19:00","-15.7984499335289","34.99509650468826","3.5","10","30","64","85","-24704","-3192","-7532","16","150","149.69","112.28","37.41","26.28","48.3","14.50","90640","26.31","DUALSPOT-UV-BLUE-GREEN-RED-IR","748705","696948","903336","6.807398","2.101036","-0.004730","864711","900212","837552","4.381114","1.302755","0.007084","853808","879999","834260","3.680551","1.061904","-0.019122","873442","880760","889426","2.954150","0.860889","0.000000","768036","901048","964249","2.139921","0.516578","0.000000","4092","4004","3965","3004","3072","3100","2751","2623","2570","2498","2133","2498","2993","1833","2993",""
"MA200-0420","23095","53","1","1.10","1.4","2023-05-06T09:19:30","120","2023/05/06","09:19:30","-15.797709703445435","34.99459284543991","3.0","10","30","64","85","-24896","-2236","-6564","16","150","149.69","112.44","37.25","26.35","48.2","14.53","90716","26.38","DUALSPOT-UV-BLUE-GREEN-RED-IR","751642","699986","907467","6.874481","2.120771","-0.028110","868908","904845","841955","4.420603","1.312136","-0.152228","851155","877491","831930","3.713077","1.068818","-0.272795","870021","877439","886154","2.979292","0.867667","0.000000","770364","903897","967307","2.158178","0.519922","0.000000","3504","3111","2936","2603","1867","1556","2401","1541","1193","2243","1825","2243","2268","1253","2268",""
"MA200-0420","23096","53","1","1.10","1.4","2023-05-06T09:20:00","120","2023/05/06","09:20:00","-15.797408878803253","34.995184540748596","3.5","10","30","64","85","-24480","-5420","-8160","16","150","149.87","112.19","37.68","26.41","48.1","14.55","90700","26.38","DUALSPOT-UV-BLUE-GREEN-RED-IR","753118","701669","909859","6.944628","2.146551","0.017280","863619","899553","837157","4.460693","1.325363","-0.005795","852387","878977","833415","3.745359","1.078969","-0.026275","870971","878564","887382","3.005921","0.876937","0.016292","771178","904984","968498","2.175409","0.522869","0.000000","3672","4018","4173","2649","2602","2582","2388","2236","2174","2381","2468","2503","2145","1092","2145",""
"MA200-0420","23097","53","1","1.10","1.4","2023-05-06T09:20:30","120","2023/05/06","09:20:30","-15.79738736152649","34.996183693408966","2.9","10","30","64","85","-24825","-6041","-7025","16","150","149.38","112.16","37.21","26.47","48.0","14.56","90720","26.50","DUALSPOT-UV-BLUE-GREEN-RED-IR","753063","701923","910403","7.009886","2.165889","-0.026076","863793","900006","837640","4.500151","1.337003","-0.041586","852656","879446","833930","3.777206","1.087391","-0.105498","872369","880128","888982","3.028890","0.883006","-0.133217","766427","899535","962696","2.193750","0.526824","0.000000","3417","3052","2889","2607","2318","2196","2357","1878","1685","2054","1635","1463","2284","1484","2284",""
"MA200-0420","23098","53","1","1.10","1.4","2023-05-06T09:21:00","120","2023/05/06","09:21:00","-15.797377824783325","34.99708449840546","3.1","10","30","64","85","-24564","-7208","-6475","16","150","150.33","112.14","38.20","26.53","47.8","14.57","90616","26.50","DUALSPOT-UV-BLUE-GREEN-RED-IR","749039","698574","906274","7.090036","2.192422","-0.005980","866128","902711","840290","4.543191","1.349676","-0.052617","854042","881062","835562","3.811377","1.097780","-0.046598","874130","882066","891032","3.055751","0.890809","-0.085796","767563","901034","964343","2.214338","0.529567","0.000000","4198","4080","4027","2845","2459","2296","2529","2258","2148","2403","2049","1904","2564","1003","2564",""
"MA200-0420","23099","53","1","1.10","1.4","2023-05-06T09:21:30","120","2023/05/06","09:21:30","-15.797631084918976","34.997704684734344","4.4","10","30","64","85","-24775","-5725","-6887","16","150","149.89","112.40","37.49","26.58","47.7","14.56","90528","26.56","DUALSPOT-UV-BLUE-GREEN-RED-IR","749741","699567","907821","7.165766","2.219644","0.014144","860295","896871","834983","4.585934","1.365017","0.021369","848874","875958","830814","3.846919","1.109999","0.010804","874952","883073","892132","3.083082","0.900358","0.020463","768128","901860","965299","2.236356","0.535168","0.000000","3957","4265","4403","2819","3034","3125","2625","2706","2739","2439","2555","2603","2736","2087","2736",""
"MA200-0420","23100","53","1","1.10","1.4","2023-05-06T09:22:00","120","2023/05/06","09:22:00","-15.798606097698212","34.99798560142517","3.5","10","30","64","85","-24976","-5588","-6392","16","150","149.89","112.24","37.64","26.64","47.5","14.55","90524","26.63","DUALSPOT-UV-BLUE-GREEN-RED-IR","750045","700244","908968","7.249750","2.246688","-0.008449","860785","897685","835860","4.636484","1.381039","-0.018314","850314","877673","832554","3.887361","1.121157","-0.085383","870001","878260","887375","3.116815","0.910884","-0.034983","769031","903069","966633","2.260059","0.539620","0.000000","4394","4219","4141","3338","3155","3077","2991","2460","2245","3015","2805","2718","2949","1652","2949",""
"MA200-0420","23101","53","1","1.10","1.4","2023-05-06T09:22:30","120","2023/05/06","09:22:30","-15.799460709095001","34.998036086559296","3.3","10","30","64","85","-24920","-5454","-6545","16","150","149.56","112.08","37.48","26.70","47.2","14.54","90472","26.69","DUALSPOT-UV-BLUE-GREEN-RED-IR","748996","699639","908398","7.328998","2.273273","0.000652","859426","896577","834963","4.684573","1.397378","0.004795","849464","877057","832064","3.926277","1.134359","0.005141","869434","877858","887052","3.145914","0.921098","0.020915","768025","902048","965597","2.282371","0.545006","0.000000","4152","4166","4172","3180","3231","3253","2882","2924","2941","2604","2734","2788","2780","2007","2780",""
"MA200-0420","23102","53","1","1.10","1.4","2023-05-06T09:23:00","120","2023/05/06","09:23:00","-15.800355315208435","34.997989535331726","3.0","10","30","64","85","-25095","-2770","-6287","16","150","149.63","112.32","37.30","26.75","47.1","14.53","90496","26.75","DUALSPOT-UV-BLUE-GREEN-RED-IR","745885","697079","905290","7.403925","2.297762","-0.003189","863541","901143","839338","4.729360","1.411116","-0.025823","851562","879438","834423","3.962725","1.145440","-0.034094","871250","879863","889151","3.174243","0.928807","-0.107997","770129","904681","968469","2.303953","0.548412","0.000000","3918","3855","3827","2955","2730","2634","2694","2466","2373","2530","2073","1884","2684","1275","2684",""
"MA200-0420","23103","53","1","1.10","1.4","2023-05-06T09:23:30","120","2023/05/06","09:23:30","-15.801032364368439","34.99773782491684","2.9","10","30","64","85","-25091","-4658","-6012","16","150","149.95","112.12","37.83","26.81","47.0","14.57","90548","26.81","DUALSPOT-UV-BLUE-GREEN-RED-IR","747165","698595","907493","7.476398","2.322038","-0.001390","864803","902751","840898","4.773677","1.422715","-0.098290","846852","874814","830082","3.999972","1.155287","-0.109337","872797","881598","890986","3.202677","0.937167","-0.069285","766100","900089","963531","2.322769","0.552548","0.000000","3796","3769","3757","2930","2273","1994","2757","2161","1918","2544","2217","2082","2344","1527","2344",""
"MA200-0420","23104","53","1","1.10","1.4","2023-05-06T09:24:00","120","2023/05/06","09:24:00","-15.801717877388","34.998259007930756","3.3","10","30","64","85","-24787","-3479","-7220","16","150","149.38","112.68","36.70","26.86","47.0","14.59","90552","26.88","DUALSPOT-UV-BLUE-GREEN-RED-IR","747996","699804","909300","7.558069","2.347265","-0.010714","859563","897592","836245","4.820925","1.436776","-0.029075","848177","876454","831758","4.038375","1.164865","-0.121518","874330","883357","892825","3.232932","0.945384","-0.094962","766516","900788","964325","2.345964","0.556273","0.000000","4257","4037","3938","3108","2840","2726","2829","2166","1898","2693","2246","2061","2875","1418","2875",""
"MA200-0420","23105","53","1","1.10","1.4","2023-05-06T09:24:30","120","2023/05/06","09:24:30","-15.801700592041016","34.99920439720154","3.5","10","30","64","85","-24987","-5620","-6200","16","150","149.77","112.55","37.22","26.92","46.7","14.55","90536","26.88","DUALSPOT-UV-BLUE-GREEN-RED-IR","747762","700731","911245","7.703085","2.396713","0.005617","859233","898295","837412","4.918069","1.470334","0.012171","848543","877694","833347","4.118240","1.191675","0.005075","868476","878138","887907","3.295871","0.965808","-0.008237","767563","902550","966476","2.392706","0.569062","0.000000","7567","7803","7909","6398","6683","6805","5891","5980","6016","5610","5505","5461","5801","4799","5801",""
"MA200-0420","23106","53","1","1.10","1.4","2023-05-06T09:25:00","120","2023/05/06","09:25:00","-15.802035212516785","35.00013016664889","4.2","10","30","64","85","-25112","-5084","-5496","16","150","150.29","112.61","37.68","26.97","46.5","14.52","90536","26.94","DUALSPOT-UV-BLUE-GREEN-RED-IR","738966","694890","905168","8.289547","2.591806","-0.001003","856343","897666","837891","5.365944","1.615554","-0.008600","841338","872286","829114","4.509318","1.316261","-0.016050","867372","878757","889328","3.619528","1.068351","-0.022463","767103","903252","967795","2.617963","0.637128","0.000000","30588","30414","30335","29483","28574","28182","28831","27453","26885","28834","27306","26666","27942","25237","27942",""
"MA200-0420","23107","53","1","1.10","1.4","2023-05-06T09:25:30","120","2023/05/06","09:25:30","-15.802804708480835","35.00081733328989","3.1","10","30","64","85","-24760","-6276","-6460","16","150","149.37","112.22","37.15","27.02","46.3","14.52","90460","27.00","DUALSPOT-UV-BLUE-GREEN-RED-IR","739102","695901","907071","8.505253","2.662332","-0.002137","857794","900053","840450","5.521518","1.663768","-0.018186","846702","878584","835367","4.643637","1.357001","-0.028883","868555","880570","891400","3.729991","1.101626","-0.039240","766728","903235","967959","2.695102","0.657668","0.000000","11289","11151","11088","10277","9621","9339","9936","9105","8761","9875","8986","8614","9602","7724","9602",""
"MA200-0420","23108","53","1","1.10","1.4","2023-05-06T09:26:00","120","2023/05/06","09:26:00","-15.803403675556183","35.0015458331909","3.1","10","30","64","85","-24425","-6979","-7675","16","150","149.38","112.52","36.86","27.08","46.2","14.52","90376","27.06","DUALSPOT-UV-BLUE-GREEN-RED-IR","738749","696405","908289","8.689959","2.722417","-0.001169","851524","894223","835347","5.652672","1.705545","-0.007271","841488","873814","831125","4.755473","1.391661","-0.017337","869462","882039","893121","3.820275","1.128986","-0.031121","762432","898612","963193","2.760587","0.675401","0.000000","9641","9575","9544","8641","8402","8299","8251","7807","7623","8050","7447","7194","8130","6721","8130",""
"MA200-0420","23109","53","1","1.10","1.4","2023-05-06T09:26:30","120","2023/05/06","09:26:30","-15.803433537483215","35.002228333149105","2.2","10","30","64","85","-24836","-7656","-5212","16","150","149.44","112.08","37.35","27.14","46.0","14.51","90328","27.13","DUALSPOT-UV-BLUE-GREEN-RED-IR","739340","697655","910351","8.814962","2.764391","0.001238","852549","895919","837189","5.734372","1.730221","-0.027017","841301","874134","831625","4.824251","1.412087","-0.037679","869206","882129","893412","3.875253","1.145596","-0.039457","762279","898726","963385","2.798418","0.684997","0.000000","6550","6600","6622","5403","4897","4678","5094","4540","4310","4921","4461","4268","4714","3588","4714",""
"MA200-0420","23110","53","1","1.10","1.4","2023-05-06T09:27:00","120","2023/05/06","09:27:00","-15.802569508552551","35.00253299949691","4.1","10","30","64","85","-24628","-4104","-7708","16","150","149.56","112.40","37.16","27.19","45.9","14.52","90316","27.13","DUALSPOT-UV-BLUE-GREEN-RED-IR","733647","693193","905116","9.032953","2.834215","-0.005261","852847","897088","838637","5.889070","1.778180","-0.016635","841947","875517","833264","4.957181","1.452070","-0.029497","862843","876294","887745","3.982357","1.178390","-0.029421","762567","899556","964449","2.874691","0.703566","0.000000","11391","11036","10874","10202","9567","9292","9818","8933","8566","9560","8854","8557","9479","6980","9479",""
"MA200-0420","23111","53","1","1.10","1.4","2023-05-06T09:27:30","120","2023/05/06","09:27:30","-15.801630318164825","35.0027109994553","3.6","10","30","64","85","-24720","-3416","-8266","16","150","149.83","112.25","37.58","27.24","45.9","14.56","90348","27.19","DUALSPOT-UV-BLUE-GREEN-RED-IR","734283","694277","906826","9.138397","2.868776","-0.003459","854397","899160","840739","5.956090","1.797741","-0.037759","842368","876298","834135","5.012262","1.469039","-0.025398","864410","878147","889731","4.027192","1.191627","-0.050097","763200","900498","965534","2.906021","0.711171","0.000000","5517","5401","5348","4426","3858","3613","4074","3748","3613","4007","3533","3334","3899","2826","3899",""
"MA200-0420","23112","53","1","1.10","1.4","2023-05-06T09:28:00","120","2023/05/06","09:28:00","-15.80062472820282","35.002856999635696","3.5","10","30","64","85","-24696","-3912","-7747","16","150","150.28","112.56","37.72","27.29","45.8","14.58","90376","27.25","DUALSPOT-UV-BLUE-GREEN-RED-IR","734852","695334","908475","9.238972","2.900823","-0.008345","848382","893223","835340","6.020248","1.817143","-0.026993","842964","877276","835163","5.066079","1.483828","-0.067398","865261","879232","890987","4.068634","1.204382","-0.032194","764093","901754","966954","2.935840","0.718571","0.000000","5248","4990","4872","4225","3813","3634","3969","3255","2959","3693","3392","3266","3700","2740","3700",""
"MA200-0420","23113","53","1","1.10","1.4","2023-05-06T09:28:30","120","2023/05/06","09:28:30","-15.799644410610199","35.00278799957596","3.4","10","30","64","84","-25008","-4608","-6852","16","150","150.21","112.74","37.47","27.35","45.9","14.67","90380","27.31","DUALSPOT-UV-BLUE-GREEN-RED-IR","735272","696324","910120","9.363234","2.940233","-0.007613","848838","894227","836476","6.101203","1.838309","-0.072000","838879","873491","831697","5.133962","1.499342","-0.153707","859866","874150","885926","4.122029","1.216595","-0.192360","760118","897346","962286","2.971857","0.725014","0.000000","6473","6178","6042","5323","4187","3698","4998","3437","2794","4751","3270","2650","4462","2402","4462",""
"MA200-0420","23114","53","1","1.10","1.4","2023-05-06T09:29:00","120","2023/05/06","09:29:00","-15.798656523227692","35.002959166420624","4.0","10","30","64","84","-24816","-4332","-7211","16","150","150.07","112.62","37.45","27.40","45.9","14.72","90380","27.38","DUALSPOT-UV-BLUE-GREEN-RED-IR","729982","692040","905031","9.523533","2.991615","-0.005816","849526","895683","838136","6.210107","1.871770","-0.019635","839399","874615","832989","5.224085","1.525920","-0.036388","861006","875776","887765","4.194710","1.237896","-0.048219","761027","898741","963933","3.023632","0.738743","-0.121085","8360","8059","7921","7168","6624","6389","6643","5892","5582","6474","5706","5385","6422","5121","4700",""
"MA200-0420","23115","53","1","1.10","1.4","2023-05-06T09:29:30","120","2023/05/06","09:29:30","-15.797674179077148","35.00323583302088","2.7","10","30","64","85","-24896","-2172","-7784","16","150","150.01","112.69","37.32","27.45","45.9","14.77","90404","27.44","DUALSPOT-UV-BLUE-GREEN-RED-IR","729625","692520","906156","9.676828","3.041820","-0.001705","849909","896777","839445","6.316584","1.905191","-0.012817","839136","874930","833574","5.315322","1.554161","-0.019160","861651","876937","889139","4.268108","1.260386","-0.027833","760868","898960","964284","3.074525","0.750507","-0.216527","7990","7901","7860","7004","6638","6480","6721","6282","6100","6534","6045","5840","6309","4403","3787",""
"MA200-0420","23116","53","1","1.10","1.4","2023-05-06T09:30:00","120","2023/05/06","09:30:00","-15.796829402446747","35.00351949920878","3.7","10","30","64","85","-25005","-1834","-6920","16","150","149.56","112.36","37.20","27.51","45.8","14.78","90496","27.50","DUALSPOT-UV-BLUE-GREEN-RED-IR","729314","693340","908059","9.868828","3.108650","0.007068","850179","898172","841298","6.452167","1.951391","0.006236","839546","876299","835350","5.430269","1.592695","0.003220","861976","878005","890629","4.359014","1.289892","-0.006564","760881","899534","965175","3.139289","0.769651","-0.052681","10036","10552","10789","8945","9206","9320","8493","8600","8644","8117","7958","7891","8051","7189","6909",""
"MA200-0420","23117","53","1","1.10","1.4","2023-05-06T09:30:30","120","2023/05/06","09:30:30","-15.796337187290192","35.00352466595359","1.3","10","30","64","84","-24736","-5516","-6764","16","150","149.44","112.48","36.96","27.56","45.6","14.77","90528","27.56","DUALSPOT-UV-BLUE-GREEN-RED-IR","729666","694587","910307","10.153528","3.206833","0.006656","844282","892804","836674","6.665248","2.021700","0.000910","834619","871904","831458","5.615306","1.652771","-0.003047","863095","879766","892691","4.510840","1.339473","-0.001944","761640","900884","966814","3.243826","0.800132","-0.054167","14866","15604","15944","14043","14103","14129","13657","13495","13428","13542","13459","13424","12982","11521","11042",""
"MA200-0420","23118","53","1","1.10","1.4","2023-05-06T09:31:00","120","2023/05/06","09:31:00","-15.796207666397095","35.00310199987143","1.7","10","30","64","84","-23616","-6233","-7529","16","150","149.96","112.52","37.44","27.61","45.4","14.74","90504","27.63","DUALSPOT-UV-BLUE-GREEN-RED-IR","725006","690542","905245","10.238592","3.235283","0.000710","845591","894471","838380","6.715417","2.038729","0.004147","835514","873056","832689","5.656540","1.665109","-0.029487","857625","874370","887308","4.542900","1.349319","-0.027128","762759","902403","968469","3.267383","0.805288","-0.254691","4440","4462","4473","3305","3371","3400","3042","2735","2607","2858","2638","2545","2924","1923","1596",""
"MA200-0420","23119","53","1","1.10","1.4","2023-05-06T09:31:30","120","2023/05/06","09:31:30","-15.796054005622864","35.002639666199684","1.9","10","30","64","84","-24560","-3907","-6415","16","150","150.15","112.77","37.38","27.68","45.2","14.74","90488","27.69","DUALSPOT-UV-BLUE-GREEN-RED-IR","725937","691754","907084","10.312794","3.263008","0.015232","847317","896575","840483","6.760401","2.054030","0.005383","836157","873952","833640","5.693072","1.677203","-0.000289","858504","875442","888480","4.572367","1.359009","-0.002450","758752","897779","963567","3.287140","0.809176","-0.355447","3864","4357","4584","2957","3034","3068","2689","2686","2685","2621","2601","2592","2447","1453","1128",""
"MA200-0420","23120","53","1","1.10","1.4","2023-05-06T09:32:00","120","2023/05/06","09:32:00","-15.79566365480423","35.00228266627528","2.7","10","30","64","84","-24900","-4364","-7028","16","150","150.40","112.74","37.65","27.73","45.1","14.75","90516","27.69","DUALSPOT-UV-BLUE-GREEN-RED-IR","726425","692554","908336","10.384624","3.287521","0.002979","847652","897216","841150","6.804520","2.066397","-0.044074","837419","875491","835190","5.729538","1.687187","-0.059877","861225","878374","891535","4.600572","1.367527","-0.034303","759706","899040","964963","3.307788","0.813910","-0.215228","3742","3823","3861","2901","2434","2231","2685","2201","1999","2509","2269","2167","2558","1756","1494",""
"MA200-0420","23121","53","1","1.10","1.4","2023-05-06T09:32:30","120","2023/05/06","09:32:30","-15.794977843761444","35.00253066653386","3.0","10","30","64","84","-25376","-3236","-6892","16","150","150.33","112.67","37.67","27.79","45.0","14.76","90532","27.75","DUALSPOT-UV-BLUE-GREEN-RED-IR","727803","694156","910682","10.455921","3.311056","-0.001801","843461","893045","837355","6.849027","2.080369","-0.014028","837520","875810","835571","5.764669","1.696998","-0.052805","861565","878874","892110","4.627242","1.374363","-0.107331","759923","899475","965438","3.328689","0.818223","-0.309687","3716","3669","3648","2928","2749","2671","2588","2162","1984","2374","1820","1586","2591","1599","1276",""
"MA200-0420","23122","53","1","1.10","1.4","2023-05-06T09:33:00","120","2023/05/06","09:33:00","-15.794611036777496","35.00237683299929","1.9","11","30","64","84","-24792","-7492","-5856","16","150","149.81","112.56","37.24","27.83","44.9","14.77","90556","27.81","DUALSPOT-UV-BLUE-GREEN-RED-IR","722223","689154","904322","10.523319","3.334888","0.008695","843426","893272","837667","6.888908","2.092689","-0.015263","833784","872123","832151","5.798393","1.706767","-0.036927","862566","880094","893419","4.654648","1.383293","-0.004715","760512","900312","966395","3.348377","0.821602","-0.525756","3516","3758","3871","2626","2452","2376","2487","2177","2048","2442","2405","2390","2443","1267","885",""
"MA200-0420","23123","53","1","1.10","1.4","2023-05-06T09:33:30","120","2023/05/06","09:33:30","-15.794890761375427","35.002118999836966","2.8","11","30","64","84","-24932","-4340","-6804","16","150","149.32","112.40","36.92","27.88","44.9","14.82","90544","27.88","DUALSPOT-UV-BLUE-GREEN-RED-IR","723296","690654","906523","10.602320","3.357341","-0.023136","844460","894768","839239","6.941801","2.105916","-0.075057","834701","873446","833502","5.842632","1.717090","-0.118904","857580","875256","888620","4.689866","1.390917","-0.200473","756610","895907","961735","3.374540","0.827026","-0.282977","4128","3572","3315","3488","2656","2293","3267","2321","1928","3143","2072","1620","3251","2052","1663",""
"MA200-0420","23124","53","1","1.10","1.4","2023-05-06T09:34:00","120","2023/05/06","09:34:00","-15.795171678066254","35.001372166443616","3.2","11","30","64","84","-24779","-2479","-8195","16","150","149.41","112.89","36.51","27.94","45.0","14.89","90608","27.94","DUALSPOT-UV-BLUE-GREEN-RED-IR","723002","691251","907899","10.793159","3.421211","0.004483","845299","896465","841193","7.078147","2.148771","-0.005965","834786","874221","834552","5.958652","1.751601","-0.021549","858368","876668","890262","4.783839","1.418828","-0.027479","757159","896997","963041","3.438968","0.843408","-0.114991","9928","10273","10433","8953","8700","8590","8532","7846","7561","8351","7668","7381","7972","6267","5713",""
"MA200-0420","23125","53","1","1.10","1.4","2023-05-06T09:34:30","120","2023/05/06","09:34:30","-15.795409858226776","35.000517166627105","3.4","12","30","64","84","-24654","-2370","-8441","16","150","149.67","112.69","36.98","27.99","44.9","14.93","90684","28.00","DUALSPOT-UV-BLUE-GREEN-RED-IR","724186","692839","910287","10.897614","3.456052","0.002156","839568","890838","836085","7.148636","2.169693","-0.022248","835559","875416","835821","6.018329","1.769149","-0.028700","859817","878436","892201","4.832126","1.433283","-0.029515","757810","897999","964183","3.473436","0.851279","-0.194184","5444","5533","5575","4637","4193","4000","4396","3939","3749","4299","3921","3762","4272","2973","2551",""
"MA200-0420","23126","53","1","1.10","1.4","2023-05-06T09:35:00","120","2023/05/06","09:35:00","-15.795546174049377","34.99956953525543","3.8","11","30","64","84","-24468","-6520","-7143","16","150","149.94","112.48","37.46","28.04","45.0","15.00","90752","28.00","DUALSPOT-UV-BLUE-GREEN-RED-IR","723987","693069","910894","11.000137","3.491264","0.003982","840556","892283","837603","7.218677","2.191598","-0.013283","830493","870428","831213","6.078415","1.787436","-0.022867","860555","879476","893354","4.879447","1.447606","-0.030501","758415","898926","965295","3.507564","0.860419","-0.099905","5353","5521","5598","4616","4334","4212","4434","4052","3893","4220","3836","3674","4238","3408","3138",""
"MA200-0420","23127","53","1","1.10","1.4","2023-05-06T09:35:30","120","2023/05/06","09:35:30","-15.795520007610321","34.998693346977234","3.4","11","30","64","84","-24472","-6356","-7340","16","150","149.76","112.20","37.55","28.09","45.1","15.06","90652","28.06","DUALSPOT-UV-BLUE-GREEN-RED-IR","720597","690226","907405","11.085789","3.517868","-0.010627","842468","894665","839954","7.275737","2.207476","-0.043861","832280","872605","833353","6.125072","1.799387","-0.081248","855595","874597","888528","4.918013","1.457609","-0.095614","759498","900412","966923","3.534740","0.865078","-0.516096","4483","4161","4011","3769","3134","2857","3452","2642","2305","3448","2672","2345","3383","1732","1197",""
"MA200-0420","23128","53","1","1.10","1.4","2023-05-06T09:36:00","120","2023/05/06","09:36:00","-15.795514702796936","34.99784034490585","2.5","11","30","64","84","-25291","-4870","-4933","16","150","149.44","112.59","36.85","28.15","45.1","15.13","90624","28.13","DUALSPOT-UV-BLUE-GREEN-RED-IR","721330","691268","908975","11.159420","3.542652","0.003570","837746","889963","835667","7.322782","2.220833","-0.032105","832553","873118","833946","6.163501","1.808893","-0.085707","856047","875276","889283","4.948062","1.465808","-0.062605","759594","900706","967257","3.556795","0.868790","-0.505740","3841","3950","4000","3097","2686","2508","2833","2141","1854","2677","2232","2044","2736","1407","977",""
"MA200-0420","23129","53","1","1.10","1.4","2023-05-06T09:36:30","120","2023/05/06","09:36:30","-15.796318233013153","34.99775731563568","3.4","11","30","64","84","-24745","-5687","-7220","16","150","149.69","112.52","37.17","28.20","45.1","15.17","90592","28.19","DUALSPOT-UV-BLUE-GREEN-RED-IR","720456","691652","910448","11.294504","3.590389","0.008210","837011","890453","836759","7.419723","2.253389","0.003134","827783","869201","830735","6.244249","1.835006","-0.004932","856944","877085","891545","5.010900","1.484194","-0.038693","755593","896589","963158","3.601793","0.880403","-0.113197","7051","7543","7772","6386","6492","6538","5958","5832","5780","5602","4962","4693","5586","4364","3968",""
"MA200-0420","23130","53","1","1.10","1.4","2023-05-06T09:37:00","120","2023/05/06","09:37:00","-15.797223687171936","34.99772101640701","3.6","11","30","64","84","-25000","-4650","-6691","16","150","150.28","112.73","37.55","28.26","44.9","15.15","90552","28.25","DUALSPOT-UV-BLUE-GREEN-RED-IR","712064","686245","905449","11.973717","3.846965","0.013768","834786","890985","838777","7.976047","2.451933","0.011705","824865","868728","831602","6.740296","2.007741","0.008995","855008","877351","892973","5.426863","1.626081","0.006093","754344","896752","964083","3.884697","0.967299","-0.029813","35389","40130","42374","36584","39193","40352","36532","38188","38890","37020","37906","38285","35057","32324","31418",""
"MA200-0420","23131","53","1","1.10","1.4","2023-05-06T09:37:30","120","2023/05/06","09:37:30","-15.797390282154083","34.99733853340149","3.4","11","30","64","84","-25166","-1683","-6900","16","150","149.87","112.65","37.23","28.31","44.8","15.15","90588","28.31","DUALSPOT-UV-BLUE-GREEN-RED-IR","712972","687621","907650","12.178177","3.923593","0.013561","835132","891864","839829","8.131565","2.505302","0.006474","825774","870115","833119","6.878125","2.053624","0.001509","849856","872440","888134","5.544686","1.663522","-0.010471","755307","898195","965744","3.968107","0.990598","-0.065483","10660","12090","12769","10234","10628","10803","10158","10232","10264","10493","10090","9917","10343","8743","8210",""
"MA200-0420","23132","53","1","1.10","1.4","2023-05-06T09:38:00","120","2023/05/06","09:38:00","-15.797377824783325","34.996372640132904","3.5","11","30","64","84","-25208","-1229","-7012","16","150","149.41","112.55","36.85","28.37","44.7","15.20","90692","28.38","DUALSPOT-UV-BLUE-GREEN-RED-IR","713878","688784","909397","12.243570","3.947483","0.011911","830235","886823","835216","8.173312","2.518398","-0.007911","821793","866099","829359","6.915063","2.064216","-0.031146","851548","874304","890105","5.572593","1.672721","0.001686","756158","899373","967057","3.989204","0.994674","-0.301645","3412","3807","3995","2749","2634","2582","2724","2385","2241","2487","2504","2511","2618","1544","1188",""
"MA200-0420","23133","53","1","1.10","1.4","2023-05-06T09:38:30","120","2023/05/06","09:38:30","-15.797386527061462","34.99542981386185","3.2","11","30","64","83","-24664","-4556","-7920","16","150","149.41","112.61","36.80","28.43","44.7","15.26","90684","28.44","DUALSPOT-UV-BLUE-GREEN-RED-IR","713446","688691","909457","12.308947","3.970295","0.007383","830296","887205","835647","8.214657","2.530158","-0.028066","826525","871343","834421","6.949452","2.072650","-0.079383","851059","874003","889870","5.600969","1.678741","-0.179277","755917","899242","966957","4.010686","0.999148","-0.232969","3410","3641","3750","2721","2369","2211","2535","1902","1633","2528","1641","1261","2665","1698","1377",""
"MA200-0420","23134","53","1","1.10","1.4","2023-05-06T09:39:00","120","2023/05/06","09:39:00","-15.797561049461365","34.994497179985046","3.5","11","30","64","84","-24945","-4887","-7200","16","150","149.50","112.64","36.86","28.48","44.8","15.33","90704","28.50","DUALSPOT-UV-BLUE-GREEN-RED-IR","710297","685948","906029","12.377630","3.993354","0.002982","832925","890285","838640","8.257807","2.542526","-0.026459","823754","868661","831930","6.983900","2.081734","-0.054770","847597","870607","886488","5.627185","1.685768","-0.061845","753163","896098","963596","4.030511","1.001352","-1.794887","3581","3674","3718","2839","2487","2330","2539","2046","1836","2335","1912","1732","2458","835","298",""
"MA200-0420","23135","53","1","1.10","1.4","2023-05-06T09:39:30","120","2023/05/06","09:39:30","-15.798190474510193","34.99376493692398","3.4","11","30","64","83","-24892","-4536","-6588","16","150","149.89","112.56","37.33","28.54","44.8","15.37","90704","28.56","DUALSPOT-UV-BLUE-GREEN-RED-IR","711223","687169","907911","12.450686","4.018547","0.004462","834770","892546","840890","8.301456","2.555764","-0.016971","824587","869762","833077","7.021347","2.092468","-0.034096","848203","871454","887387","5.657796","1.694945","-0.028082","753459","896625","964216","4.053739","1.006518","-0.192350","3812","3964","4036","2874","2629","2519","2762","2387","2228","2728","2466","2354","2882","1933","1619",""
"MA200-0420","23136","53","1","1.10","1.4","2023-05-06T09:40:00","120","2023/05/06","09:40:00","-15.799100995063782","34.99359077215195","4.1","11","30","64","83","-24836","-4140","-7556","16","150","150.21","112.77","37.44","28.60","44.8","15.42","90704","28.63","DUALSPOT-UV-BLUE-GREEN-RED-IR","711801","688070","909338","12.526791","4.045501","0.007159","834936","893000","841452","8.349209","2.570850","-0.009028","825158","870598","833987","7.059771","2.104229","-0.017764","849892","873363","889454","5.689241","1.704244","-0.032533","753938","897363","965036","4.076826","1.010095","-0.597618","3963","4228","4354","3139","2986","2919","2828","2607","2513","2797","2491","2360","2859","1334","832",""
"MA200-0420","23137","53","1","1.10","1.4","2023-05-06T09:40:30","120","2023/05/06","09:40:30","-15.7999626994133","34.99411702156067","4.4","11","30","64","83","-24744","-1540","-7679","16","150","149.89","112.28","37.60","28.67","44.6","15.42","90740","28.63","DUALSPOT-UV-BLUE-GREEN-RED-IR","711757","688353","910001","12.602499","4.074131","0.012715","828847","886730","835694","8.394028","2.588695","0.025560","825392","871058","834558","7.097102","2.118206","0.020282","850482","874131","890324","5.718212","1.715086","0.025121","754215","897896","965658","4.100370","1.016391","-0.089292","3960","4471","4716","2959","3518","3767","2760","3085","3224","2588","2892","3022","2929","2338","2144",""
"MA200-0420","23138","53","1","1.10","1.4","2023-05-06T09:41:00","120","2023/05/06","09:41:00","-15.800735056400299","34.994594395160675","3.5","11","30","64","83","-24687","-6458","-6991","16","150","150.33","112.89","37.44","28.72","44.5","15.42","90776","28.69","DUALSPOT-UV-BLUE-GREEN-RED-IR","706566","684459","905646","12.855360","4.164013","0.007470","829833","888895","838270","8.582810","2.652168","0.002283","820803","867161","831277","7.261159","2.171623","-0.003670","850775","875249","891849","5.853434","1.759483","-0.002471","754707","899035","967194","4.195495","1.044215","-0.044435","13155","14100","14553","12396","12567","12644","12064","11845","11751","12017","11897","11845","11770","10381","9921",""
"MA200-0420","23139","53","1","1.10","1.4","2023-05-06T09:41:30","120","2023/05/06","09:41:30","-15.801541328430176","34.99524629116058","3.7","11","30","64","83","-24808","-5048","-6388","16","150","150.27","112.70","37.57","28.75","44.3","15.40","90700","28.75","DUALSPOT-UV-BLUE-GREEN-RED-IR","706915","685186","906872","12.942509","4.194853","0.006461","830491","889907","839407","8.637589","2.670878","0.004001","821225","867913","832093","7.306668","2.185911","-0.012377","852305","876995","893755","5.889477","1.771984","0.009291","755214","899858","968113","4.224233","1.051397","-0.118222","4541","4821","4956","3603","3692","3732","3352","3157","3074","3208","3338","3394","3562","2670","2375",""
"MA200-0420","23140","53","1","1.10","1.4","2023-05-06T09:42:00","120","2023/05/06","09:42:00","-15.80191445350647","34.99644023180008","3.8","11","30","64","83","-24341","-7975","-6683","16","150","149.56","112.68","36.88","28.82","44.1","15.39","90672","28.81","DUALSPOT-UV-BLUE-GREEN-RED-IR","707011","685592","907687","13.020201","4.221664","0.005710","831098","890857","840396","8.685743","2.687109","0.004740","821776","868674","832947","7.347511","2.199083","-0.002917","846162","870904","887595","5.920895","1.780925","-0.038775","751289","895307","963295","4.248459","1.056745","-0.180063","4049","4269","4375","3168","3262","3304","3009","2965","2946","2797","2432","2275","3003","2025","1701",""
"MA200-0420","23141","53","1","1.10","1.4","2023-05-06T09:42:30","120","2023/05/06","09:42:30","-15.80130785703659","34.99723666906357","4.0","12","30","64","83","-24620","-6236","-6884","16","150","150.15","112.56","37.59","28.87","44.0","15.39","90580","28.81","DUALSPOT-UV-BLUE-GREEN-RED-IR","708148","687040","909835","13.092503","4.247909","0.008714","832515","892650","842217","8.731279","2.700585","-0.022579","821909","869099","833404","7.384961","2.209300","-0.047891","846592","871535","888320","5.952397","1.790523","-0.024061","750958","895073","963066","4.272505","1.061605","-0.258915","3772","4101","4258","2999","2657","2505","2762","2256","2040","2807","2561","2456","2984","1806","1416",""
"MA200-0420","23142","53","1","1.10","1.4","2023-05-06T09:43:00","120","2023/05/06","09:43:00","-15.801398634910583","34.99787074327469","4.0","11","30","64","83","-24758","-4145","-6525","16","150","149.61","112.82","36.79","28.92","43.9","15.41","90536","28.88","DUALSPOT-UV-BLUE-GREEN-RED-IR","708153","687396","910567","13.170971","4.273674","0.000770","826087","886080","836137","8.779575","2.714646","-0.020920","822540","869983","834389","7.425025","2.221143","-0.020724","848540","873724","890668","5.983859","1.798749","-0.066093","751487","895902","964006","4.296354","1.066018","-0.315367","4085","4113","4127","3173","2833","2681","2948","2672","2555","2797","2243","2004","2953","1675","1253",""
"MA200-0420","23143","53","1","1.10","1.4","2023-05-06T09:43:30","120","2023/05/06","09:43:30","-15.8018057346344","34.998784482479095","3.6","11","30","64","83","-24850","-5416","-6987","16","150","149.50","112.48","37.02","28.97","43.8","15.41","90552","28.94","DUALSPOT-UV-BLUE-GREEN-RED-IR","700472","682488","905906","13.680895","4.457113","0.008866","824129","886686","838070","9.188783","2.854675","0.005936","815243","864642","830406","7.785464","2.342498","0.004095","846336","873467","891404","6.284757","1.898636","0.001952","750822","896665","965527","4.509535","1.130573","-0.026462","26627","29105","30303","26969","28042","28525","26604","27217","27480","26838","27071","27172","26476","24361","23653",""
"MA200-0420","23144","53","1","1.10","1.4","2023-05-06T09:44:00","120","2023/05/06","09:44:00","-15.801814079284668","34.99981552362442","3.3","11","30","64","83","-25556","-4388","-2960","16","150","149.76","111.93","37.83","29.02","43.5","15.36","90532","29.00","DUALSPOT-UV-BLUE-GREEN-RED-IR","699465","682524","906755","13.964670","4.561510","0.008317","823896","887490","839364","9.408195","2.934581","0.010762","814899","865182","831419","7.980075","2.411085","0.007235","846222","874130","892501","6.446261","1.953910","0.002760","750757","897153","966385","4.624054","1.166686","-0.021279","14891","16209","16848","14532","15659","16169","14435","15052","15320","14476","14659","14738","14293","13335","13012",""
"MA200-0420","23145","53","1","1.10","1.4","2023-05-06T09:44:30","120","2023/05/06","09:44:30","-15.801084876060486","34.99991852045059","1.5","11","30","64","83","-24525","-6179","-7391","16","150","149.34","112.27","37.07","29.07","43.3","15.31","90440","29.06","DUALSPOT-UV-BLUE-GREEN-RED-IR","699675","683286","908210","14.118662","4.616935","0.008371","823399","887416","839568","9.521364","2.973032","0.004268","815826","866617","832989","8.079854","2.443540","-0.002679","841202","869339","887797","6.529168","1.980274","-0.008537","751734","898658","968104","4.684412","1.182506","-0.081269","8056","8782","9135","7472","7690","7788","7378","7269","7221","7408","7135","7017","7509","5961","5439",""
"MA200-0420","23146","53","1","1.10","1.4","2023-05-06T09:45:00","120","2023/05/06","09:45:00","-15.800180554389954","35.000024833332645","3.4","11","30","64","83","-25200","-2995","-6466","16","150","150.86","112.01","38.86","29.12","43.0","15.24","90428","29.06","DUALSPOT-UV-BLUE-GREEN-RED-IR","699574","683516","908771","14.197266","4.646488","0.007796","817681","881589","834194","9.570749","2.990550","0.003311","814688","865658","832192","8.120734","2.457172","-0.007256","839693","867933","886474","6.562826","1.992449","0.008784","750336","897125","966513","4.708883","1.187784","-0.217430","4121","4467","4635","3268","3342","3375","3030","2912","2861","3014","3143","3199","3052","1897","1508",""
"MA200-0420","23147","53","1","1.10","1.4","2023-05-06T09:45:30","120","2023/05/06","09:45:30","-15.800521910190582","35.00002949999907","2.4","11","30","64","83","-24979","-4241","-5929","16","150","150.08","112.77","37.31","29.17","42.8","15.22","90416","29.13","DUALSPOT-UV-BLUE-GREEN-RED-IR","695859","680204","904594","14.269766","4.671308","0.003451","820095","884453","837045","9.616325","3.004897","-0.007891","816900","868253","834769","8.158584","2.468794","-0.014066","842236","870761","889440","6.592706","2.002006","-0.007571","747447","893852","963039","4.732074","1.193397","-0.118325","3776","3907","3971","2996","2850","2784","2786","2586","2499","2658","2570","2531","2872","2101","1841",""
"MA200-0420","23148","53","1","1.10","1.4","2023-05-06T09:46:00","120","2023/05/06","09:46:00","-15.801119565963745","34.99993443489075","3.3","11","30","64","83","-25070","-2608","-5358","16","150","149.56","112.05","37.52","29.22","42.6","15.22","90452","29.19","DUALSPOT-UV-BLUE-GREEN-RED-IR","695401","680074","904654","14.342865","4.697551","0.006763","819678","884277","836993","9.661935","3.020108","-0.000593","816426","867966","834632","8.195487","2.480239","-0.014437","841856","870562","889318","6.622746","2.010445","-0.045413","747660","894246","963516","4.754686","1.198637","-0.147104","3831","4108","4243","3017","3005","3000","2734","2532","2445","2689","2256","2067","2819","1951","1658",""
"MA200-0420","23149","53","1","1.10","1.4","2023-05-06T09:46:30","120","2023/05/06","09:46:30","-15.801776051521301","34.99994432926178","3.0","12","30","64","83","-25491","-4066","-3212","16","150","149.99","112.78","37.21","29.27","42.4","15.19","90536","29.19","DUALSPOT-UV-BLUE-GREEN-RED-IR","697431","682391","908014","14.421862","4.727586","0.012813","822235","887290","840012","9.711949","3.038252","0.013027","813550","865097","831945","8.236499","2.494502","0.008745","845392","874349","893282","6.654848","2.022525","0.025250","749529","896618","966137","4.778724","1.205097","-0.069040","4114","4741","5046","3287","3614","3763","3019","3182","3253","2855","3257","3432","2977","2425","2238",""
"MA200-0420","23150","53","1","1.10","1.4","2023-05-06T09:47:00","120","2023/05/06","09:47:00","-15.802493214607239","35.00056849990506","3.0","13","30","64","83","-24788","-6244","-5676","16","150","150.21","112.60","37.61","29.31","42.3","15.17","90496","29.25","DUALSPOT-UV-BLUE-GREEN-RED-IR","697878","683114","909225","14.494293","4.755968","0.014126","823022","888431","841217","9.757517","3.054035","0.005220","813996","865810","832759","8.274820","2.507091","-0.002952","838751","867701","886553","6.685096","2.031234","-0.037039","749453","896717","966296","4.800808","1.211277","-0.057712","3778","4431","4751","3000","3110","3161","2825","2778","2758","2695","2322","2160","2739","2295","2145",""
"MA200-0420","23151","53","1","1.10","1.4","2023-05-06T09:47:30","120","2023/05/06","09:47:30","-15.803210496902466","35.00114699988626","3.6","12","30","64","83","-24608","-6366","-6412","16","150","149.83","112.49","37.34","29.36","42.1","15.15","90408","29.31","DUALSPOT-UV-BLUE-GREEN-RED-IR","697774","683393","909859","14.572226","4.783466","0.005882","822091","887743","840672","9.806324","3.070259","0.000213","814312","866401","833408","8.315999","2.520209","-0.007367","840271","869483","888493","6.716801","2.041465","-0.006208","749791","897307","966974","4.825729","1.216183","-0.247248","4069","4325","4450","3216","3221","3223","3039","2916","2863","2827","2749","2714","3094","1835","1411",""
"MA200-0420","23152","53","1","1.10","1.4","2023-05-06T09:48:00","120","2023/05/06","09:48:00","-15.803439974784851","35.001938499859534","2.8","12","30","72","83","-24604","-6445","-6841","16","150","149.34","112.44","36.90","29.41","42.0","15.14","90348","29.31","DUALSPOT-UV-BLUE-GREEN-RED-IR","690946","678285","904177","14.697119","4.825662","0.002859","815421","882212","836296","9.896407","3.098542","-0.006807","813216","866635","834317","8.387626","2.540815","-0.025659","727162","753416","770365","6.774204","2.059336","-0.011762","748976","897209","967290","4.868416","1.227643","-0.066059","6524","6716","6810","5939","5681","5564","5288","4635","4352","5121","4858","4743","5303","4338","4012",""
"MA200-0420","23153","53","1","1.10","1.4","2023-05-06T09:48:30","120","2023/05/06","09:48:30","-15.803780615329742","35.0022344996687","4.5","12","30","64","83","-24864","-3800","-6888","16","150","150.57","111.72","38.84","29.45","41.9","15.14","90340","29.38","DUALSPOT-UV-BLUE-GREEN-RED-IR","680896","674492","903801","16.289446","5.402498","0.003627","805495","878259","836018","11.237678","3.567082","0.000617","803833","862785","833713","9.595647","2.955574","-0.001911","831230","866581","888881","7.800163","2.403175","-0.007045","744152","895486","967429","5.601600","1.460074","-0.024171","83711","87225","88968","88997","89421","89618","89768","88650","88152","92130","88809","87330","91673","83591","80741",""
"MA200-0420","23154","53","1","1.10","1.4","2023-05-06T09:49:00","120","2023/05/06","09:49:00","-15.804774284362793","35.00217333319597","1.8","12","30","64","83","-25133","-3458","-6500","16","150","149.76","112.08","37.67","29.49","41.7","15.13","90360","29.44","DUALSPOT-UV-BLUE-GREEN-RED-IR","680522","676501","908219","16.796834","5.583900","0.005190","805840","881122","839965","11.644238","3.707075","0.002982","798913","859705","831785","9.956110","3.076857","0.000160","831748","868985","892262","8.100910","2.502174","-0.003788","739897","891782","964125","5.817676","1.525168","-0.028098","26588","28283","29128","26889","27549","27857","26700","26729","26742","26919","26366","26118","26930","24138","23146",""
"MA200-0420","23155","53","1","1.10","1.4","2023-05-06T09:49:30","120","2023/05/06","09:49:30","-15.804979026317596","35.00233966624364","3.0","12","30","64","83","-24836","-4204","-7188","16","150","150.28","112.48","37.80","29.54","41.7","15.16","90360","29.50","DUALSPOT-UV-BLUE-GREEN-RED-IR","680742","677416","909905","17.049840","5.667099","-0.001943","806535","882618","841635","11.827733","3.762644","-0.014323","798945","860320","832602","10.118804","3.125089","-0.020299","826158","863642","886960","8.237207","2.541904","-0.028794","740351","892714","965277","5.916097","1.551240","-0.068016","13211","12928","12788","12093","10899","10341","12008","10594","9962","12157","10545","9826","12223","9635","8716",""
"MA200-0420","23156","53","1","1.10","1.4","2023-05-06T09:50:00","120","2023/05/06","09:50:00","-15.80508691072464","35.003521166043356","3.9","12","30","64","82","-25596","-3236","-6643","16","150","149.49","112.26","37.23","29.60","41.6","15.17","90396","29.56","DUALSPOT-UV-BLUE-GREEN-RED-IR","679152","676459","909116","17.182372","5.716469","0.009066","798606","874474","834199","11.922048","3.797072","0.010786","798399","860219","832787","10.201344","3.153324","0.004254","826328","864224","887747","8.304016","2.564040","-0.000179","740035","892615","965307","5.962063","1.564530","-0.035299","6934","7788","8213","6228","6854","7147","6104","6295","6381","5970","5964","5961","5719","4986","4725",""
"MA200-0420","23157","53","1","1.10","1.4","2023-05-06T09:50:30","120","2023/05/06","09:50:30","-15.80600893497467","35.00399549957365","4.2","12","30","64","83","-24995","-3241","-7733","16","150","149.94","112.15","37.79","29.64","41.4","15.14","90432","29.63","DUALSPOT-UV-BLUE-GREEN-RED-IR","675597","673952","906602","17.448886","5.817409","0.008987","800961","878252","838396","12.140098","3.870309","-0.000397","799292","862293","835261","10.395948","3.216344","-0.005752","827464","866339","890407","8.469459","2.616596","-0.010670","741150","894726","967882","6.080034","1.597344","-0.051015","13958","15688","16553","14413","14366","14344","14406","13844","13593","14800","13952","13573","14694","12129","11215",""
"MA200-0420","23158","53","1","1.10","1.4","2023-05-06T09:51:00","120","2023/05/06","09:51:00","-15.807031512260437","35.00428416626528","4.6","13","30","64","83","-25079","-3220","-6370","16","150","150.15","112.16","37.98","29.70","41.3","15.16","90476","29.69","DUALSPOT-UV-BLUE-GREEN-RED-IR","676090","674789","908046","17.526204","5.846777","0.008808","801449","879123","839367","12.190406","3.888184","0.005534","795468","858431","831635","10.438284","3.231174","0.004546","829823","869009","893244","8.504481","2.627635","-0.013082","737776","890810","963711","6.107948","1.604823","-0.064701","4048","4541","4787","3325","3488","3565","3133","3241","3289","3132","2915","2819","3476","2750","2491",""
"MA200-0420","23159","53","1","1.10","1.4","2023-05-06T09:51:30","120","2023/05/06","09:51:30","-15.808149933815002","35.00456999940798","4.1","12","30","64","82","-24920","-4412","-6958","16","150","149.87","112.32","37.56","29.75","41.4","15.24","90520","29.75","DUALSPOT-UV-BLUE-GREEN-RED-IR","677409","676589","910808","17.638080","5.887043","0.005827","803443","881750","842067","12.264835","3.910988","-0.011427","795974","859341","832699","10.502632","3.248632","-0.035778","824033","863288","887477","8.555795","2.642388","-0.029748","737742","891036","964015","6.143018","1.612987","-0.114055","5850","6297","6520","4912","4501","4308","4756","3859","3457","4583","3940","3653","4361","3036","2564",""
"MA200-0420","23160","53","1","1.10","1.4","2023-05-06T09:52:00","120","2023/05/06","09:52:00","-15.808988690376282","35.004826999269426","3.8","12","30","64","82","-24704","-6136","-6752","16","150","149.38","111.77","37.61","29.80","41.4","15.30","90492","29.81","DUALSPOT-UV-BLUE-GREEN-RED-IR","672130","671786","904731","17.746284","5.929401","0.011105","797338","875453","836251","12.335181","3.935718","0.005003","797135","860929","834409","10.559647","3.267807","-0.000067","825064","864647","889019","8.603035","2.658198","-0.000914","738790","892525","965761","6.177063","1.623318","-0.024866","5686","6615","7081","4665","4874","4972","4235","4233","4232","4240","4217","4207","4255","3837","3688",""
"MA200-0420","23161","53","1","1.10","1.4","2023-05-06T09:52:30","120","2023/05/06","09:52:30","-15.809785783290863","35.00513149891049","2.6","12","30","64","83","-24875","-4012","-6675","16","150","149.56","112.01","37.55","29.87","41.4","15.33","90468","29.88","DUALSPOT-UV-BLUE-GREEN-RED-IR","673123","673363","907303","17.880430","5.978649","0.006981","798527","877269","838236","12.419214","3.962701","-0.005336","792984","856867","830617","10.631152","3.290475","-0.008066","826987","867023","891604","8.659230","2.675015","-0.021264","740070","894358","967849","6.217104","1.633303","-0.085690","7034","7702","8037","5561","5326","5216","5300","5011","4881","5033","4492","4250","4993","3714","3258",""
"MA200-0420","23162","53","1","1.10","1.4","2023-05-06T09:53:00","120","2023/05/06","09:53:00","-15.81044214963913","35.005385999102145","1.8","12","30","64","83","-25991","-4916","-5016","16","150","150.02","111.93","38.09","29.91","41.3","15.36","90456","29.94","DUALSPOT-UV-BLUE-GREEN-RED-IR","672858","673699","908194","18.019422","6.025268","-0.001226","799033","878370","839491","12.504621","3.986031","-0.032610","793146","857512","831442","10.705945","3.309524","-0.053489","828041","868532","893291","8.720858","2.689333","-0.097177","735880","889687","962872","6.273592","1.642604","-0.370565","7293","7188","7136","5656","4540","4018","5547","4152","3527","5524","3771","2990","7050","3411","2120",""
"MA200-0420","23163","53","1","1.10","1.4","2023-05-06T09:53:30","120","2023/05/06","09:53:30","-15.810931861400604","35.00551649834961","1.8","12","30","64","82","-24633","-5450","-6395","16","150","149.93","112.35","37.58","29.96","41.4","15.41","90448","30.00","DUALSPOT-UV-BLUE-GREEN-RED-IR","673016","674401","909599","18.155116","6.075659","0.007832","799301","879170","840473","12.588847","4.013431","-0.003324","794063","858928","832961","10.774929","3.330713","-0.012434","822691","863279","888019","8.775290","2.705052","-0.028038","736635","890888","964262","6.313438","1.651919","-0.109024","7093","7876","8269","5557","5405","5334","5097","4681","4495","4860","4196","3900","4954","3462","2934",""
"MA200-0420","23164","53","1","1.10","1.4","2023-05-06T09:54:00","120","2023/05/06","09:54:00","-15.811538338661194","35.00565733155236","2.8","12","30","64","82","-24400","-5244","-7020","16","150","150.28","112.16","38.11","30.02","41.3","15.45","90444","30.00","DUALSPOT-UV-BLUE-GREEN-RED-IR","668659","670442","904570","18.249526","6.111818","0.008795","794804","874502","836180","12.648122","4.034812","0.006550","794474","859614","833773","10.824944","3.346610","-0.009535","822816","863597","888473","8.815930","2.718958","0.001136","736618","891073","964503","6.344867","1.659030","-0.130297","4943","5572","5889","3917","4158","4271","3702","3462","3355","3635","3660","3671","3914","2606","2142",""
"MA200-0420","23165","53","1","1.10","1.4","2023-05-06T09:54:30","120","2023/05/06","09:54:30","-15.812099814414978","35.00539849838242","2.2","12","30","64","82","-25058","-3845","-5604","16","150","150.00","112.26","37.74","30.06","41.3","15.47","90460","30.06","DUALSPOT-UV-BLUE-GREEN-RED-IR","668821","671320","906200","18.400184","6.161590","-0.001451","795317","875687","837521","12.737150","4.062080","-0.011786","794389","859972","834305","10.895775","3.367764","-0.017685","823729","864871","889914","8.868071","2.734326","-0.024456","736866","891629","965198","6.379461","1.667262","-0.102536","7882","7746","7677","5879","5356","5111","5238","4653","4392","4659","4085","3829","4304","3047","2602",""
"MA200-0420","23166","53","1","1.10","1.4","2023-05-06T09:55:00","120","2023/05/06","09:55:00","-15.812530219554901","35.00504699908197","2.8","12","30","64","82","-25045","-3945","-7320","16","150","149.47","112.07","37.40","30.11","41.2","15.49","90484","30.13","DUALSPOT-UV-BLUE-GREEN-RED-IR","668438","671303","906548","18.501200","6.200765","0.010592","794939","875572","837604","12.799127","4.082716","-0.000270","794308","860209","834646","10.947867","3.385997","0.006024","823690","865063","890239","8.907164","2.746666","-0.009537","736306","891110","964713","6.409118","1.674566","-0.085792","5294","6152","6584","4099","4090","4085","3859","4047","4131","3499","3310","3225","3696","2727","2385",""
"MA200-0420","23167","53","1","1.10","1.4","2023-05-06T09:55:30","120","2023/05/06","09:55:30","-15.813048601150513","35.00456533301622","1.4","12","30","64","82","-24216","-4487","-5100","16","150","149.81","111.78","38.03","30.17","41.2","15.53","90492","30.19","DUALSPOT-UV-BLUE-GREEN-RED-IR","669989","673329","909669","18.609884","6.241258","0.006730","797989","879322","841372","12.864093","4.105276","0.002300","790962","856891","831596","11.000250","3.402078","-0.014959","825670","867399","892742","8.948540","2.759094","-0.022783","737710","893073","966890","6.440061","1.680966","-0.175443","5711","6254","6528","4308","4398","4440","3890","3510","3340","3713","3278","3084","3867","2351","1815",""
"MA200-0420","23168","53","1","1.10","1.4","2023-05-06T09:56:00","120","2023/05/06","09:56:00","-15.813417851924896","35.00493699964136","2.1","12","30","64","82","-25695","-4508","-6208","16","150","149.38","111.41","37.96","30.21","41.2","15.56","90484","30.19","DUALSPOT-UV-BLUE-GREEN-RED-IR","669244","673044","909664","18.721216","6.284361","0.009088","790774","871717","834313","12.929605","4.126918","-0.003626","790958","857166","831986","11.055066","3.418803","-0.016135","818859","860485","885770","8.993259","2.772749","-0.019637","737679","893221","967118","6.472606","1.688944","-0.094524","5869","6668","7072","4359","4226","4163","4084","3657","3466","4026","3608","3422","4080","2935","2531",""
"MA200-0420","23169","53","1","1.10","1.4","2023-05-06T09:56:30","120","2023/05/06","09:56:30","-15.813982009887695","35.00443833274767","3.8","12","30","64","82","-24672","-4128","-5464","16","150","149.74","112.32","37.42","30.26","41.2","15.61","90508","30.25","DUALSPOT-UV-BLUE-GREEN-RED-IR","666286","670445","906413","18.812610","6.319761","0.010453","793551","875148","837712","12.987976","4.145217","-0.007317","792782","859494","834357","11.103804","3.432900","-0.021251","821336","863335","888784","9.032850","2.784137","-0.027262","734943","890111","963860","6.502199","1.696198","-0.085605","4779","5556","5949","3852","3625","3518","3602","3127","2914","3536","3053","2837","3680","2707","2364",""
"MA200-0420","23170","53","1","1.10","1.4","2023-05-06T09:57:00","120","2023/05/06","09:57:00","-15.814627766609192","35.003795000026","3.5","12","30","64","82","-24887","-4745","-7045","16","150","149.50","111.73","37.77","30.32","41.2","15.68","90508","30.31","DUALSPOT-UV-BLUE-GREEN-RED-IR","666894","671434","908080","18.902778","6.352583","0.005487","794547","876573","839240","13.044517","4.164922","0.003341","793538","860557","835541","11.151147","3.448313","-0.005055","822679","864989","890570","9.071337","2.796999","-0.001845","735612","891048","964956","6.529840","1.702974","-0.090605","4740","5104","5288","3751","3867","3922","3517","3388","3330","3455","3416","3398","3455","2506","2171",""
"MA200-0420","23171","53","1","1.10","1.4","2023-05-06T09:57:30","120","2023/05/06","09:57:30","-15.81526917219162","35.00314349983819","3.9","12","30","64","82","-24841","-4504","-8025","16","150","150.00","112.12","37.88","30.36","41.2","15.71","90508","30.38","DUALSPOT-UV-BLUE-GREEN-RED-IR","667366","672201","909484","18.987562","6.388941","0.015210","795359","877789","840563","13.099262","4.184717","0.007153","789288","856224","831463","11.198650","3.464496","0.001076","823510","866082","891820","9.107578","2.808598","-0.009035","736039","891818","965776","6.556877","1.709494","-0.096341","4441","5638","6245","3619","3874","3993","3517","3547","3560","3242","3072","2996","3368","2404","2064",""
"MA200-0420","23172","53","1","1.10","1.4","2023-05-06T09:58:00","120","2023/05/06","09:58:00","-15.8160799741745","35.002536666346714","3.6","12","30","64","82","-24648","-4356","-6088","16","150","150.21","111.89","38.32","30.40","41.2","15.73","90512","30.44","DUALSPOT-UV-BLUE-GREEN-RED-IR","668111","673337","911284","19.076538","6.423929","0.009565","789734","871857","835057","13.154506","4.202461","-0.007657","790203","857457","832805","11.244744","3.479576","-0.006180","824782","867672","893535","9.146195","2.819744","-0.032199","736719","892798","966947","6.584579","1.716595","-0.078366","4670","5362","5713","3660","3432","3325","3420","3266","3198","3462","2917","2675","3458","2588","2281",""
"MA200-0420","23173","53","1","1.10","1.4","2023-05-06T09:58:30","120","2023/05/06","09:58:30","-15.816754400730133","35.00247949967161","4.2","12","30","64","82","-24968","-4096","-6540","16","150","150.28","112.20","38.07","30.46","41.1","15.75","90536","30.50","DUALSPOT-UV-BLUE-GREEN-RED-IR","662480","667997","904367","19.159520","6.455232","0.007526","789588","872018","835368","13.206726","4.222172","0.010737","790738","858307","833720","11.288712","3.494370","-0.001090","820097","862920","888759","9.181547","2.831984","0.003120","732723","888154","961986","6.612354","1.723799","-0.070746","4343","4829","5075","3450","3838","4020","3253","3225","3213","3161","3225","3254","3458","2643","2355",""
"MA200-0420","23174","53","1","1.10","1.4","2023-05-06T09:59:00","120","2023/05/06","09:59:00","-15.816307008266449","35.003502999432385","4.3","12","30","64","82","-25044","-4096","-5608","16","150","149.32","111.57","37.74","30.51","41.0","15.77","90576","30.50","DUALSPOT-UV-BLUE-GREEN-RED-IR","663600","669453","906611","19.239316","6.486591","0.010191","790728","873562","836980","13.258255","4.240918","0.007521","791286","859137","834628","11.331866","3.508240","-0.006882","821273","864321","890316","9.216458","2.843317","-0.006743","733128","888810","962757","6.639374","1.729776","-0.132475","4200","4879","5225","3423","3681","3803","3211","3050","2978","3139","3012","2955","3383","2212","1799",""
"MA200-0420","23175","53","1","1.10","1.4","2023-05-06T09:59:30","120","2023/05/06","09:59:30","-15.816691398620605","35.004053165670484","4.3","13","30","64","82","-24854","-2933","-7091","16","150","149.71","112.25","37.46","30.55","40.9","15.77","90624","30.56","DUALSPOT-UV-BLUE-GREEN-RED-IR","664151","670360","908183","19.324358","6.521002","0.012567","792047","875341","838857","13.310215","4.259228","0.005717","787136","854897","830666","11.375556","3.522372","-0.004090","822076","865400","891535","9.250734","2.854823","0.000927","733764","889755","963861","6.665207","1.736324","-0.072311","4449","5395","5877","3431","3623","3714","3231","3132","3087","3063","3081","3089","3214","2441","2169",""
"MA200-0420","23176","53","1","1.10","1.4","2023-05-06T10:00:00","120","2023/05/06","10:00:00","-15.817822515964508","35.00420099962503","4.3","13","30","64","82","-24916","-3166","-6991","16","150","149.95","111.93","38.02","30.61","40.8","15.79","90668","30.56","DUALSPOT-UV-BLUE-GREEN-RED-IR","664435","671008","909327","19.410240","6.554207","0.008888","792333","875944","839588","13.364248","4.277038","-0.003427","787493","855555","831411","11.420058","3.537279","-0.001811","822147","865713","891979","9.288231","2.866564","-0.013757","733696","889868","964032","6.691089","1.742356","-0.110264","4506","5129","5446","3578","3472","3422","3301","3254","3234","3361","3097","2980","3230","2216","1858",""
"MA200-0420","23177","53","1","1.10","1.4","2023-05-06T10:00:30","120","2023/05/06","10:00:30","-15.818931341171265","35.00435083266348","3.8","12","30","64","82","-24970","-2145","-7825","16","150","149.95","111.73","38.22","30.65","40.8","15.82","90708","30.63","DUALSPOT-UV-BLUE-GREEN-RED-IR","664542","671431","910214","19.493614","6.586879","0.009245","792817","876782","840538","13.416693","4.295004","0.000146","791966","860678","836486","11.462994","3.551221","-0.006931","822223","865994","892352","9.322340","2.877569","-0.009618","734082","890541","964798","6.717876","1.746862","-0.326519","4382","5020","5346","3479","3484","3486","3190","3028","2955","3062","2888","2810","3349","1646","1048",""
"MA200-0420","23178","53","1","1.10","1.4","2023-05-06T10:01:00","120","2023/05/06","10:01:00","-15.819045186042786","35.00495216669515","2.9","12","30","64","82","-24716","-3920","-5941","16","150","149.69","111.94","37.76","30.69","40.8","15.85","90756","30.63","DUALSPOT-UV-BLUE-GREEN-RED-IR","659467","666700","904084","19.579690","6.617887","0.004758","793231","877576","841453","13.473197","4.312509","-0.010107","787966","856610","832638","11.509512","3.563982","-0.032208","816132","859796","886047","9.358698","2.887617","-0.037792","734367","891035","965394","6.745205","1.754714","-0.037145","4516","4823","4980","3742","3437","3293","3450","2806","2517","3258","2669","2407","3410","2904","2727",""
"MA200-0420","23179","53","1","1.10","1.4","2023-05-06T10:01:30","120","2023/05/06","10:01:30","-15.818963348865509","35.005678499117494","2.3","12","30","64","82","-24900","-4828","-5488","16","150","149.81","111.72","38.08","30.74","40.8","15.88","90728","30.69","DUALSPOT-UV-BLUE-GREEN-RED-IR","659744","667355","905228","19.669240","6.650999","0.005768","787270","871317","835623","13.530103","4.332268","0.001968","787524","856361","832560","11.557829","3.579974","-0.003801","817045","861002","887387","9.397154","2.898502","-0.034590","734242","891102","965505","6.772804","1.760088","-0.203356","4707","5106","5310","3775","3846","3879","3590","3486","3439","3453","2867","2606","3450","1971","1451",""
"MA200-0420","23180","53","1","1.10","1.4","2023-05-06T10:02:00","120","2023/05/06","10:02:00","-15.818650782108307","35.00627216557041","2.4","12","30","64","81","-25044","-4212","-7243","16","150","151.58","111.57","40.01","30.77","40.8","15.93","90720","30.69","DUALSPOT-UV-BLUE-GREEN-RED-IR","657457","665435","902959","19.762516","6.683603","-0.002005","785252","869413","833949","13.587673","4.348463","-0.034150","786877","855981","832285","11.606282","3.593117","-0.046965","816157","860281","886750","9.435896","2.909486","-0.045996","733606","890522","964967","6.802591","1.766005","-0.222688","4910","4786","4723","3825","3000","2612","3605","2727","2333","3483","2754","2429","3729","2066","1483",""
"MA200-0420","23181","53","1","1.10","1.4","2023-05-06T10:02:30","120","2023/05/06","10:02:30","-15.818285346031189","35.00673283217475","1.6","12","30","64","82","-24840","-7024","-4964","16","150","149.82","112.28","37.54","30.80","40.9","15.98","90720","30.75","DUALSPOT-UV-BLUE-GREEN-RED-IR","660071","668634","907652","19.887222","6.725326","0.000056","788566","873564","838102","13.663098","4.371667","-0.009732","788448","858063","834464","11.665306","3.610551","-0.017396","817498","861946","888565","9.478152","2.922732","-0.010456","734952","892327","966988","6.833076","1.774233","-0.051482","6523","6528","6530","4979","4582","4395","4364","3855","3628","3775","3540","3435","3792","3062","2805",""
"MA200-0420","23182","53","1","1.10","1.4","2023-05-06T10:03:00","120","2023/05/06","10:03:00","-15.817842602729797","35.00695616612211","2.0","12","30","64","81","-25312","-5887","-6287","16","150","149.89","111.53","38.35","30.84","41.0","16.06","90704","30.75","DUALSPOT-UV-BLUE-GREEN-RED-IR","660025","668964","908433","19.979018","6.759622","0.005784","788322","873601","838307","13.718602","4.390013","-0.004411","788564","858462","834980","11.712045","3.624910","-0.015595","818801","863587","890339","9.515189","2.932945","-0.042190","735279","892941","967703","6.857502","1.778831","-0.229209","4834","5252","5465","3689","3546","3478","3479","3108","2941","3331","2671","2377","3059","1674","1189",""
"MA200-0420","23183","53","1","1.10","1.4","2023-05-06T10:03:30","120","2023/05/06","10:03:30","-15.817416548728943","35.00691349897534","1.3","12","30","64","81","-24641","-5916","-4841","16","150","149.41","111.86","37.54","30.87","41.0","16.10","90676","30.81","DUALSPOT-UV-BLUE-GREEN-RED-IR","659845","669160","909019","20.069568","6.795114","0.010084","789003","874676","839506","13.775240","4.410314","0.006596","788717","858879","835517","11.757215","3.640228","0.001262","819020","864021","890892","9.551086","2.945162","0.002075","735216","893054","967906","6.885463","1.786634","-0.042802","4754","5552","5960","3753","4008","4128","3352","3387","3403","3219","3264","3284","3491","2903","2697",""
"MA200-0420","23184","53","1","1.10","1.4","2023-05-06T10:04:00","120","2023/05/06","10:04:00","-15.816966772079468","35.0066908323206","2.7","12","30","64","82","-25528","-7136","-6592","16","150","149.69","111.93","37.76","30.92","40.9","16.09","90640","30.81","DUALSPOT-UV-BLUE-GREEN-RED-IR","660154","669782","910243","20.157784","6.832784","0.014221","789485","875515","840494","13.830972","4.432511","0.015171","784723","854771","831652","11.804211","3.658026","0.012767","819565","864789","891833","9.587047","2.958008","0.008171","731144","888277","962787","6.911564","1.793575","-0.057969","4629","5859","6489","3691","4357","4671","3485","3912","4104","3223","3412","3497","3257","2567","2325",""
"MA200-0420","23185","53","1","1.10","1.4","2023-05-06T10:04:30","120","2023/05/06","10:04:30","-15.816304087638855","35.006399164907634","3.5","12","30","64","82","-24941","-5270","-7183","16","150","149.50","112.01","37.49","30.95","40.7","16.04","90592","30.88","DUALSPOT-UV-BLUE-GREEN-RED-IR","655799","665746","905021","20.247098","6.867143","0.009101","784187","869926","835297","13.886456","4.452276","0.006219","784979","855269","832302","11.848462","3.674591","0.012351","820195","865639","892842","9.624022","2.971592","0.012853","731419","888785","963413","6.937933","1.800421","-0.062647","4683","5382","5741","3672","3908","4019","3280","3667","3842","3311","3635","3779","3288","2550","2292",""
"MA200-0420","23186","53","1","1.10","1.4","2023-05-06T10:05:00","120","2023/05/06","10:05:00","-15.815755665302277","35.00686533236876","3.7","12","30","64","81","-24629","-4354","-8062","16","150","150.15","111.89","38.26","30.99","40.5","16.00","90584","30.88","DUALSPOT-UV-BLUE-GREEN-RED-IR","655554","665899","905549","20.335784","6.902006","0.009079","784532","870617","836153","13.942413","4.474336","0.013180","784391","854883","832060","11.895956","3.691524","0.004899","820421","866064","893378","9.660398","2.984785","0.008353","731418","888947","963666","6.965307","1.807529","-0.069128","4655","5352","5709","3707","4274","4542","3524","3674","3742","3261","3459","3548","3417","2595","2306",""
"MA200-0420","23187","53","1","1.10","1.4","2023-05-06T10:05:30","120","2023/05/06","10:05:30","-15.815277993679047","35.00761466566473","3.5","12","30","64","81","-24483","-3750","-7320","16","150","150.15","111.78","38.37","31.02","40.2","15.93","90580","30.88","DUALSPOT-UV-BLUE-GREEN-RED-IR","655316","665980","905977","20.423736","6.935215","0.006439","784532","870936","836609","13.996369","4.493535","0.003655","784894","855733","832985","11.940298","3.706122","-0.005288","813839","859305","886495","9.695399","2.995963","-0.011552","731852","889645","964494","6.990343","1.814067","-0.068245","4621","5083","5321","3578","3709","3771","3293","3158","3097","3141","2922","2825","3128","2380","2118",""
"MA200-0420","23188","53","1","1.10","1.4","2023-05-06T10:06:00","120","2023/05/06","10:06:00","-15.81478476524353","35.008130999282","2.4","12","30","64","81","-24991","-4708","-5112","16","150","149.40","111.62","37.78","31.06","40.1","15.91","90556","30.94","DUALSPOT-UV-BLUE-GREEN-RED-IR","654333","665392","905488","20.515522","6.971805","0.010335","783245","869839","835711","14.052288","4.513192","0.003815","784479","855528","832910","11.985647","3.721422","-0.000404","814529","860276","887583","9.729829","3.006319","-0.019777","731535","889439","964324","7.016233","1.820555","-0.077006","4830","5687","6129","3713","3856","3924","3373","3361","3356","3094","2749","2595","3240","2398","2103",""
"MA200-0420","23189","53","1","1.10","1.4","2023-05-06T10:06:30","120","2023/05/06","10:06:30","-15.814290225505829","35.008607998490334","2.6","12","30","64","81","-25441","-4958","-5683","16","150","150.28","112.32","37.96","31.09","40.0","15.88","90556","30.94","DUALSPOT-UV-BLUE-GREEN-RED-IR","655523","666966","907965","20.609478","7.006115","0.005283","784931","872001","837950","14.109524","4.534108","0.007591","785349","856711","834206","12.032144","3.736758","-0.002986","815033","861023","888490","9.766179","3.018815","0.002507","732292","890522","965535","7.042274","1.827302","-0.065331","4913","5309","5513","3777","4085","4230","3436","3354","3317","3246","3303","3328","3238","2483","2218",""
"MA200-0420","23190","53","1","1.10","1.4","2023-05-06T10:07:00","120","2023/05/06","10:07:00","-15.813896894454956","35.009024498052895","1.8","12","30","64","81","-24750","-4870","-6925","16","150","149.82","111.65","38.17","31.12","39.8","15.84","0","0.00","DUALSPOT-UV-BLUE-GREEN-RED-IR","655194","666990","908277","20.695260","7.038870","0.007272","784892","872255","838385","14.162616","4.552967","0.003840","784909","856496","834116","12.075292","3.752357","0.006371","815284","861437","889026","9.800204","3.031178","0.008508","731924","890261","965300","7.067774","1.833829","-0.072624","4512","5040","5312","3525","3662","3727","3208","3392","3475","3057","3249","3335","3190","2389","2108",""
"MA200-0420","23191","53","1","1.10","1.4","2023-05-06T10:07:30","120","2023/05/06","10:07:30","-15.813596844673157","35.009447664022446","2.1","12","30","64","81","-24036","-6515","-6140","16","150","149.87","112.23","37.64","31.15","39.7","15.83","0","0.00","DUALSPOT-UV-BLUE-GREEN-RED-IR","654287","666616","908146","20.805584","7.078409","0.004528","784203","871917","838236","14.229710","4.575747","0.001262","785103","857025","834803","12.129687","3.770310","-0.001948","815863","862304","889999","9.838843","3.043444","-0.008526","732327","890956","966128","7.095114","1.841173","-0.051842","5773","6169","6374","4431","4486","4512","4023","3959","3930","3454","3269","3186","3402","2725","2487",""
"MA200-0420","23192","53","1","1.10","1.4","2023-05-06T10:08:00","120","2023/05/06","10:08:00","-15.813186824321747","35.009954664856195","2.4","12","30","64","81","-24416","-6162","-6387","16","150","150.21","111.99","38.23","31.19","39.6","15.83","90492","31.00","DUALSPOT-UV-BLUE-GREEN-RED-IR","655580","668333","910822","20.918942","7.117321","0.000397","786166","874444","840825","14.296239","4.597313","-0.005626","785706","857980","835839","12.184265","3.787404","-0.011162","816323","863035","890881","9.878849","3.055232","-0.025024","732819","891688","967031","7.121336","1.847236","-0.108405","5945","5978","5995","4404","4181","4076","4046","3712","3561","3584","3093","2873","3271","2215","1845",""
"MA200-0420","23193","53","1","1.10","1.4","2023-05-06T10:08:30","120","2023/05/06","10:08:30","-15.812726140022278","35.01043016370386","1.5","12","30","64","81","-24904","-6064","-5224","16","150","149.81","111.74","38.07","31.22","39.5","15.82","90408","31.06","DUALSPOT-UV-BLUE-GREEN-RED-IR","654444","668159","911150","21.091072","7.171159","-0.006722","785289","874244","840938","14.400020","4.627651","-0.018368","780668","853016","831209","12.259505","3.807539","-0.036852","816987","864088","892105","9.929090","3.068805","-0.043081","732902","892045","967497","7.158638","1.855495","-0.125206","9048","8306","7924","6885","5908","5445","5590","4391","3850","4511","3577","3159","4663","3030","2459",""
"MA200-0420","23194","53","1","1.10","1.4","2023-05-06T10:09:00","120","2023/05/06","10:09:00","-15.812215268611908","35.01023066416383","2.1","12","30","64","81","-24665","-4654","-7254","16","150","149.76","111.85","37.91","31.24","39.5","15.83","90368","31.13","DUALSPOT-UV-BLUE-GREEN-RED-IR","649542","663551","905174","21.222904","7.214254","-0.002679","785827","875170","841958","14.471859","4.649378","-0.013032","781263","853938","832249","12.317100","3.826225","-0.005366","817716","865042","893185","9.970291","3.081482","-0.015445","733360","892789","968387","7.187599","1.862750","-0.075639","6923","6677","6550","4761","4248","4005","4275","4092","4010","3695","3355","3202","3617","2673","2343",""
"MA200-0420","23195","53","1","1.10","1.4","2023-05-06T10:09:30","120","2023/05/06","10:09:30","-15.811597466468811","35.009999331086874","2.7","12","30","64","81","-25033","-3595","-5058","16","150","150.15","112.48","37.67","31.28","39.4","15.84","90372","31.19","DUALSPOT-UV-BLUE-GREEN-RED-IR","649081","663409","905270","21.299362","7.243707","0.008711","779415","868274","835494","14.520493","4.667515","0.009883","780462","853270","831694","12.355442","3.838742","-0.003064","810459","857531","885504","9.998420","3.090886","-0.000238","728262","886721","961788","7.207906","1.867444","-0.099675","3992","4592","4902","3205","3569","3742","2830","2758","2726","2508","2504","2503","2522","1740","1467",""
"MA200-0420","23196","53","1","1.10","1.4","2023-05-06T10:10:00","120","2023/05/06","10:10:00","-15.811426877975464","35.009676665998995","1.8","12","30","64","81","-24637","-1337","-6441","16","150","150.28","111.81","38.47","31.30","39.4","15.84","90400","31.19","DUALSPOT-UV-BLUE-GREEN-RED-IR","650872","665585","908526","21.382916","7.276064","0.007477","781662","871070","838333","14.569877","4.684950","0.002541","782455","855669","834136","12.395083","3.852320","-0.000527","812707","860101","888248","10.028444","3.101140","-0.001074","729647","888532","963855","7.229728","1.873663","-0.041727","4389","4940","5224","3274","3359","3400","2943","2930","2924","2694","2674","2665","2726","2258","2094",""
"MA200-0420","23197","53","1","1.10","1.4","2023-05-06T10:10:30","120","2023/05/06","10:10:30","-15.811398208141327","35.009304330684245","2.3","12","30","64","81","-24720","-6545","-6941","16","150","149.95","111.97","37.98","31.35","39.3","15.84","90412","31.25","DUALSPOT-UV-BLUE-GREEN-RED-IR","650744","665714","908947","21.453312","7.303550","0.008680","781430","871046","838421","14.614222","4.700476","0.003091","778036","851025","829729","12.433393","3.864873","-0.004192","813698","861320","889592","10.058609","3.110004","-0.023888","730390","889579","965032","7.250089","1.878900","-0.066812","3692","4250","4537","2936","3030","3075","2840","2743","2699","2702","2341","2179","2540","1926","1711",""
"MA200-0420","23198","53","1","1.10","1.4","2023-05-06T10:11:00","120","2023/05/06","10:11:00","-15.810970723628998","35.008755998685956","3.1","12","30","64","81","-25076","-6288","-6832","16","150","150.21","112.48","37.73","31.40","39.2","15.84","90364","31.31","DUALSPOT-UV-BLUE-GREEN-RED-IR","650532","665842","909467","21.528842","7.334450","0.011602","781612","871537","839073","14.661006","4.718888","0.013876","777716","850932","829735","12.471893","3.878718","0.007593","813168","860962","889336","10.089136","3.120778","0.006950","729951","889204","964672","7.272459","1.885172","-0.039138","3944","4809","5257","3083","3617","3870","2841","3046","3139","2722","2864","2928","2778","2322","2162",""
"MA200-0420","23199","53","1","1.10","1.4","2023-05-06T10:11:30","120","2023/05/06","10:11:30","-15.810433626174927","35.008793332614005","3.1","12","30","64","81","-24391","-3916","-9204","16","150","150.15","112.01","38.14","31.46","39.1","15.88","90348","31.31","DUALSPOT-UV-BLUE-GREEN-RED-IR","646313","662148","904795","21.670200","7.381853","-0.001090","782970","873564","841274","14.744802","4.745317","-0.008282","779188","853010","831946","12.537387","3.899050","-0.011737","816070","864308","892949","10.134772","3.136047","-0.002561","731699","891627","967367","7.305557","1.892441","-0.125947","7412","7300","7241","5546","5136","4942","4854","4425","4231","4087","4016","3984","4128","2662","2149",""
"MA200-0420","23200","53","1","1.10","1.4","2023-05-06T10:12:00","120","2023/05/06","10:12:00","-15.810065031051636","35.0098513327539","4.1","12","30","64","81","-24433","-4575","-7879","16","150","149.94","112.19","37.75","31.46","39.0","15.84","90340","31.38","DUALSPOT-UV-BLUE-GREEN-RED-IR","646563","662720","905886","21.760414","7.417267","0.009274","776653","866797","834909","14.805446","4.767752","0.008643","779523","853549","832602","12.586227","3.916639","0.007360","810469","858563","887121","10.174389","3.149422","0.000481","732090","892213","968087","7.335319","1.902996","0.009253","4722","5510","5917","4007","4405","4595","3614","3868","3983","3542","3554","3560","3705","3905","3975",""
"MA200-0420","23201","53","1","1.10","1.4","2023-05-06T10:12:30","120","2023/05/06","10:12:30","-15.809534966945648","35.010899162851274","3.8","12","30","64","81","-24568","-3596","-8604","16","150","149.87","112.15","37.72","31.48","38.9","15.82","90296","31.38","DUALSPOT-UV-BLUE-GREEN-RED-IR","646419","662889","906332","21.832862","7.444858","0.007655","776748","867141","835371","14.849984","4.781872","-0.006236","779272","853520","832668","12.625756","3.928328","-0.016861","810446","858699","887335","10.203894","3.159264","-0.001192","727631","886965","962438","7.357099","1.907199","-0.184135","3794","4296","4555","2944","2774","2694","2926","2572","2412","2639","2617","2607","2712","1556","1152",""
"MA200-0420","23202","53","1","1.10","1.4","2023-05-06T10:13:00","120","2023/05/06","10:13:00","-15.809120893478394","35.01182316429913","4.4","12","30","64","81","-25092","-2332","-7764","16","150","149.82","111.93","37.89","31.50","38.9","15.83","90284","31.44","DUALSPOT-UV-BLUE-GREEN-RED-IR","645563","663196","907779","22.107762","7.547395","0.006051","776792","868427","837278","15.059978","4.857326","0.005510","777954","853164","832905","12.807160","3.991532","0.003169","808928","858036","887129","10.356484","3.210815","-0.000300","726503","886297","962123","7.468292","1.943657","-0.005964","14425","15893","16653","13908","14761","15167","13455","13847","14025","13677","13648","13635","13877","13440","13286",""
"MA200-0420","23203","53","1","1.10","1.4","2023-05-06T10:13:30","120","2023/05/06","10:13:30","-15.808264911174774","35.01196116488427","7.8","12","30","64","81","-25260","-1888","-6788","16","150","149.76","111.81","37.95","31.54","38.9","15.87","90328","31.38","DUALSPOT-UV-BLUE-GREEN-RED-IR","645212","663387","908490","22.244198","7.600500","0.008197","777051","869258","838325","15.152966","4.889119","0.000711","778295","853961","833875","12.886330","4.019219","0.003281","808915","858344","887623","10.420907","3.231522","-0.007977","726490","886514","962457","7.513590","1.956443","-0.039218","7167","8219","8765","6165","6210","6232","5878","6057","6138","5780","5474","5337","5659","4706","4371",""
"MA200-0420","23204","53","1","1.10","1.4","2023-05-06T10:14:00","120","2023/05/06","10:14:00","-15.80612587928772","35.01106116361916","8.6","12","30","64","81","-24732","-6496","-7124","16","150","149.89","112.20","37.68","31.57","39.0","15.93","90348","31.44","DUALSPOT-UV-BLUE-GREEN-RED-IR","644988","663517","908956","22.339832","7.635700","0.005695","776791","869299","838491","15.214631","4.908640","-0.006088","777497","853358","833422","12.938359","4.034913","-0.013429","808762","858421","887802","10.461906","3.245267","-0.000246","726494","886703","962740","7.544479","1.964144","-0.070862","5006","5486","5736","4074","3840","3728","3849","3457","3279","3666","3659","3656","3845","2854","2506",""
"MA200-0420","23205","53","1","1.10","1.4","2023-05-06T10:14:30","120","2023/05/06","10:14:30","-15.804454028606415","35.01062216423452","7.6","12","30","64","81","-24595","-5233","-7141","16","150","149.47","112.10","37.37","31.59","39.0","15.94","90224","31.38","DUALSPOT-UV-BLUE-GREEN-RED-IR","643639","662574","908051","22.446084","7.675569","0.007147","774980","867695","837176","15.288180","4.934400","0.004563","777235","853426","833669","13.000283","4.055023","-0.002983","808960","858935","888488","10.512964","3.260248","-0.019986","726569","887040","963199","7.579950","1.973036","-0.066511","5567","6267","6630","4863","5110","5228","4586","4468","4414","4569","4022","3776","4420","3324","2938",""
"MA200-0420","23206","53","1","1.10","1.4","2023-05-06T10:15:00","120","2023/05/06","10:15:00","-15.802783370018005","35.011814665049314","7.6","12","30","64","81","-24720","-6340","-7192","16","150","150.42","112.11","38.31","31.63","39.0","15.99","90192","31.38","DUALSPOT-UV-BLUE-GREEN-RED-IR","642917","662325","908140","22.561550","7.718229","0.004867","774987","868179","837910","15.369358","4.963089","0.003125","776456","852974","833448","13.070690","4.079807","0.003207","807406","857618","887316","10.568290","3.278992","-0.001190","730317","891877","968565","7.618465","1.983418","-0.052460","6049","6540","6795","5367","5551","5638","5213","5370","5442","4951","4908","4889","4799","3785","3428",""
"MA200-0420","23207","53","1","1.10","1.4","2023-05-06T10:15:30","120","2023/05/06","10:15:30","-15.80159217119217","35.0142658315599","13.3","12","30","64","81","-24554","-4562","-7633","16","150","149.89","112.60","37.29","31.65","39.0","16.00","90120","31.38","DUALSPOT-UV-BLUE-GREEN-RED-IR","642080","661977","908106","22.694698","7.771721","0.010787","774085","867651","837653","15.463592","4.998368","0.010457","775311","852136","832838","13.149315","4.108471","0.009730","806577","857080","886931","10.631840","3.301267","0.007350","729372","891035","967758","7.666361","1.996519","-0.040141","6945","8426","9197","6204","7014","7400","5797","6382","6647","5662","5993","6142","5942","4908","4543",""
"MA200-0420","23208","53","1","1.10","1.4","2023-05-06T10:16:00","120","2023/05/06","10:16:00","-15.801044404506683","35.017479829490185","13.0","12","30","64","80","-24508","-3732","-8440","16","150","149.96","112.40","37.56","31.66","38.9","15.95","90040","31.38","DUALSPOT-UV-BLUE-GREEN-RED-IR","638998","659295","904858","22.817138","7.819299","0.008708","769776","863287","833782","15.551381","5.033362","0.014274","773589","850635","831606","13.224874","4.135525","0.007133","804832","855585","885558","10.693435","3.322672","0.005133","728041","889668","966410","7.708976","2.008988","-0.026216","6398","7440","7984","5790","6907","7442","5581","5980","6162","5497","5717","5817","5296","4637","4405",""
"MA200-0420","23209","53","1","1.10","1.4","2023-05-06T10:16:30","120","2023/05/06","10:16:30","-15.800313889980316","35.019536493346095","5.3","13","30","64","81","-25012","-5533","-6870","16","150","149.89","112.76","37.13","31.67","38.7","15.89","90040","31.38","DUALSPOT-UV-BLUE-GREEN-RED-IR","639725","660657","907223","22.960484","7.875068","0.009426","771962","866352","837037","15.655090","5.071014","0.008411","773790","851391","832622","13.317177","4.168945","0.009504","811110","862650","893119","10.767576","3.349967","0.013581","728148","890130","967066","7.761207","2.025837","-0.003657","7467","8822","9529","6818","7517","7852","6796","7472","7781","6596","7375","7726","6470","6338","6292",""
"MA200-0420","23210","53","1","1.10","1.4","2023-05-06T10:17:00","120","2023/05/06","10:17:00","-15.800067484378815","35.02044815942645","8.2","13","30","64","80","-25387","-4187","-4670","16","150","149.74","112.36","37.38","31.69","38.6","15.86","90036","31.38","DUALSPOT-UV-BLUE-GREEN-RED-IR","637195","658940","905643","23.116612","7.935796","0.008861","774980","870709","841787","15.777099","5.115473","0.007834","772195","850452","832133","13.419500","4.206711","0.010242","809762","861929","892761","10.853015","3.379380","0.004434","726971","889175","966304","7.820415","2.045601","0.000589","8161","9542","10264","8050","8817","9185","7560","8387","8765","7629","7894","8014","7361","7386","7395",""
"MA200-0420","23211","53","1","1.10","1.4","2023-05-06T10:17:30","120","2023/05/06","10:17:30","-15.800827860832214","35.022626996040344","9.7","13","30","64","80","-24825","-4437","-6500","16","150","149.38","112.05","37.33","31.69","38.4","15.79","90008","31.31","DUALSPOT-UV-BLUE-GREEN-RED-IR","633658","656804","904017","23.560218","8.103100","0.007107","765319","861473","833791","16.134796","5.246609","0.008023","768858","848260","830826","13.740664","4.320526","0.006182","806531","859791","891277","11.123222","3.472962","0.004881","724772","887501","964993","8.013469","2.107226","-0.007528","23254","26323","27931","23666","26041","27185","23797","25312","26006","24194","25150","25583","24069","23060","22700",""
"MA200-0420","23212","53","1","1.10","1.4","2023-05-06T10:18:00","120","2023/05/06","10:18:00","-15.800842106342316","35.02513932995498","11.1","13","30","64","80","-24916","-2937","-6904","16","150","149.76","112.05","37.71","31.70","38.2","15.72","90020","31.38","DUALSPOT-UV-BLUE-GREEN-RED-IR","634188","657939","906099","23.708644","8.162853","0.009712","766246","863123","835775","16.250971","5.290407","0.009303","769420","849428","832314","13.843243","4.359668","0.011801","807741","861511","893317","11.208675","3.504366","0.010523","725922","889280","967112","8.073858","2.127138","-0.003513","7780","9306","10108","7686","8609","9055","7600","8617","9084","7651","8354","8674","7529","7376","7321",""
"MA200-0420","23213","53","1","1.10","1.4","2023-05-06T10:18:30","120","2023/05/06","10:18:30","-15.800879716873169","35.02788899280131","11.9","13","30","64","80","-24445","-5708","-6679","16","150","150.08","112.27","37.80","31.71","37.9","15.60","89956","31.38","DUALSPOT-UV-BLUE-GREEN-RED-IR","633718","657948","906552","23.831162","8.211590","0.009097","765635","862923","835880","16.339144","5.326837","0.015425","769006","849412","832538","13.920064","4.390663","0.016133","801014","854747","886565","11.274427","3.530648","0.018989","725175","888711","966666","8.124117","2.143448","-0.006356","6409","7572","8183","5821","7144","7783","5680","6806","7325","5875","6974","7476","6253","6027","5946",""
"MA200-0420","23214","53","1","1.10","1.4","2023-05-06T10:19:00","120","2023/05/06","10:19:00","-15.800943076610565","35.031849663704634","14.7","13","30","64","80","-24628","-3496","-7243","16","150","150.28","112.40","37.88","31.72","37.7","15.53","89736","31.38","DUALSPOT-UV-BLUE-GREEN-RED-IR","625362","654213","905949","24.507046","8.474689","0.007824","757371","859322","835819","16.922214","5.545533","0.008508","761203","845877","832082","14.430965","4.577220","0.007560","800469","858639","893285","11.704354","3.684063","0.006769","720707","886737","966498","8.442820","2.250396","-0.000675","35318","40799","43697","38455","42804","44923","37737","40892","42358","38374","40637","41676","39609","39444","39384",""
"MA200-0420","23215","53","1","1.10","1.4","2023-05-06T10:19:30","120","2023/05/06","10:19:30","-15.801590502262115","35.03502082452178","9.7","13","30","64","80","-24758","-4300","-6645","16","150","149.77","112.44","37.33","31.72","37.5","15.46","89768","31.31","DUALSPOT-UV-BLUE-GREEN-RED-IR","621804","652593","905596","25.486344","8.870686","0.009829","759260","863984","841843","17.757748","5.867952","0.010983","757510","843952","831454","15.200287","4.868120","0.011160","790749","850138","885522","12.370538","3.926922","0.010147","718423","885448","965940","8.927309","2.417057","0.005277","51156","62302","68253","55087","64024","68434","56804","64692","68409","59441","65265","67974","60192","62362","63168",""
