"Serial number","Datum ID","Session ID","Data format version","Firmware version","App version","Date / time local","Timezone offset (mins)","Date local (yyyy/MM/dd)","Time local (hh:mm:ss)","GPS lat (ddmm.mmmmm)","GPS long (dddmm.mmmmm)","GPS speed (km/h)","GPS sat count","Timebase (s)","Status","Battery remaining (%)","Accel X","Accel Y","Accel Z","Tape position","Flow setpoint (mL/min)","Flow total (mL/min)","Flow1 (mL/min)","Flow2 (mL/min)","Sample temp (C)","Sample RH (%)","Sample dewpoint (C)","Internal pressure (Pa)","Internal temp (C)","Optical config","UV Sen1","UV Sen2","UV Ref","UV ATN1","UV ATN2","UV K","Blue Sen1","Blue Sen2","Blue Ref","Blue ATN1","Blue ATN2","Blue K","Green Sen1","Green Sen2","Green Ref","Green ATN1","Green ATN2","Green K","Red Sen1","Red Sen2","Red Ref","Red ATN1","Red ATN2","Red K","IR Sen1","IR Sen2","IR Ref","IR ATN1","IR ATN2","IR K","UV BC1","UV BC2","UV BCc","Blue BC1","Blue BC2","Blue BCc","Green BC1","Green BC2","Green BCc","Red BC1","Red BC2","Red BCc","IR BC1","IR BC2","IR BCc","Readable status"
"MA200-0416","21923","62","1","1.10","1.4","2023-05-10T08:50:30","120","2023/05/10","08:50:30","-15.795667231082916","35.00287816626951","0.0","12","30","66","91","-14076","-21736","3296","7","150","149.89","115.75","34.14","23.36","55.9","14.04","90476","22.63","DUALSPOT-UV-BLUE-GREEN-RED-IR","862980","742719","908622","0.000000","0.000000","0.000000","812328","926767","766317","0.000000","0.000000","0.000000","905172","926750","817034","0.000000","0.000000","0.000000","886193","943116","866502","0.000000","0.000000","0.000000","748626","860525","951745","0.000000","0.000000","0.000000","","","","","","","","","","","","","","","","Start up"
"MA200-0416","21924","62","1","1.10","1.4","2023-05-10T08:51:00","120","2023/05/10","08:51:00","-15.795644998550415","35.002872666111216","0.0","12","30","66","90","-14084","-21868","3276","7","150","149.63","115.47","34.16","23.39","55.7","14.02","90484","22.81","DUALSPOT-UV-BLUE-GREEN-RED-IR","860178","740623","906206","0.000000","0.000000","0.000000","809264","923452","763679","0.000000","0.000000","0.000000","902185","923855","814575","0.000000","0.000000","0.000000","884149","941069","864712","0.000000","0.000000","0.000000","751038","863507","955099","0.000000","0.000000","0.000000","","","","","","","","","","","","","","","","Start up"
"MA200-0416","21925","62","1","1.10","1.4","2023-05-10T08:51:30","120","2023/05/10","08:51:30","-15.795634090900421","35.00287799956277","0.0","12","30","66","90","-13923","-21552","3287","7","150","149.95","115.59","34.36","23.44","55.6","14.05","90484","22.94","DUALSPOT-UV-BLUE-GREEN-RED-IR","860833","741460","907347","0.000000","0.000000","0.000000","810045","924493","764619","0.000000","0.000000","0.000000","902720","924532","815200","0.000000","0.000000","0.000000","885017","942102","865663","0.000000","0.000000","0.000000","747649","859682","950895","0.000000","0.000000","0.000000","","","","","","","","","","","","","","","","Start up"
"MA200-0416","21926","62","1","1.10","1.4","2023-05-10T08:52:00","120","2023/05/10","08:52:00","-15.795634508132935","35.00287649943493","0.0","12","30","66","90","-14012","-21844","3371","7","150","149.70","115.79","33.91","23.50","55.5","14.07","90488","23.00","DUALSPOT-UV-BLUE-GREEN-RED-IR","856715","738067","903303","0.000000","0.000000","0.000000","807310","921512","762208","0.000000","0.000000","0.000000","904196","926159","816703","0.000000","0.000000","0.000000","880328","937164","861172","0.000000","0.000000","0.000000","749053","861366","952787","0.000000","0.000000","0.000000","","","","","","","","","","","","","","","","Start up"
"MA200-0416","21927","62","1","1.10","1.4","2023-05-10T08:52:30","120","2023/05/10","08:52:30","-15.795638859272003","35.00287816626951","0.1","12","30","64","90","-13940","-21702","3397","7","150","149.94","115.79","34.14","23.54","55.5","14.10","90488","23.06","DUALSPOT-UV-BLUE-GREEN-RED-IR","860854","741824","907995","0.000000","0.000000","0.000000","810393","925174","765288","0.000000","0.000000","0.000000","901271","923279","814177","0.000000","0.000000","0.000000","884396","941631","865280","0.000000","0.000000","0.000000","751098","863783","955513","0.000000","0.000000","0.000000","","","","","","","","","","","","","","","",""
"MA200-0416","21928","62","1","1.10","1.4","2023-05-10T08:53:00","120","2023/05/10","08:53:00","-15.795644164085388","35.00286733312532","0.0","12","30","64","90","-14108","-21768","3716","7","150","149.53","116.04","33.48","23.59","55.4","14.13","90488","23.19","DUALSPOT-UV-BLUE-GREEN-RED-IR","862238","743161","909707","0.029324","0.008388","0.000000","806489","920819","761701","0.019020","0.006568","0.000000","902140","924258","815056","0.013703","0.003582","0.000000","886051","943467","866995","0.010937","0.002336","0.000000","748087","860388","951747","0.008417","0.002664","0.000000","1484","1471","1484","1215","1454","1215","980","888","980","945","700","945","1013","1111","1013",""
"MA200-0416","21929","62","1","1.10","1.4","2023-05-10T08:53:30","120","2023/05/10","08:53:30","-15.796045482158661","35.00283283274621","0.5","12","30","64","90","-15656","-20884","3304","7","150","150.24","116.09","34.14","23.64","55.3","14.16","90484","23.25","DUALSPOT-UV-BLUE-GREEN-RED-IR","856816","738715","904332","0.063991","0.018110","0.000000","807309","921901","762655","0.036287","0.011205","0.000000","903014","925273","815976","0.027871","0.007271","0.000000","881050","938220","862170","0.021684","0.004917","0.000000","748769","861215","952671","0.017791","0.004419","0.000000","1753","1672","1753","1102","1006","1102","1013","897","1013","928","758","928","1128","717","1128",""
"MA200-0416","21930","62","1","1.10","1.4","2023-05-10T08:54:00","120","2023/05/10","08:54:00","-15.796115219593048","35.00287849968299","0.6","12","30","64","89","-12808","-22108","3423","7","150","149.46","116.29","33.17","23.68","55.2","14.15","90488","23.25","DUALSPOT-UV-BLUE-GREEN-RED-IR","858619","740426","906528","0.098204","0.027418","0.000000","809033","923969","764406","0.058657","0.018537","0.000000","904061","926412","817032","0.043231","0.011580","0.000000","882829","940152","864041","0.034421","0.009364","0.000000","749776","862460","954101","0.029243","0.007740","0.000000","1727","1648","1727","1425","1638","1425","1096","1078","1096","1098","1345","1098","1375","1398","1375",""
"MA200-0416","21931","62","1","1.10","1.4","2023-05-10T08:54:30","120","2023/05/10","08:54:30","-15.796113133430481","35.00290549965575","0.1","12","30","64","89","-13272","-22388","3300","7","150","150.23","116.59","33.64","23.73","54.9","14.12","90488","23.31","DUALSPOT-UV-BLUE-GREEN-RED-IR","860526","742312","908941","0.140990","0.039926","0.000000","810209","925500","765717","0.083035","0.024753","0.000000","900858","923298","814311","0.063687","0.016200","0.000000","878960","936186","860395","0.050115","0.011247","0.000000","751205","864196","956043","0.043640","0.010457","0.000000","2155","2184","2155","1550","1369","1550","1456","1140","1456","1350","561","1350","1725","1128","1725",""
"MA200-0416","21932","62","1","1.10","1.4","2023-05-10T08:55:00","120","2023/05/10","08:55:00","-15.796109974384308","35.002892166376114","0.1","12","30","64","89","-13023","-22336","2776","7","150","149.63","116.75","32.89","23.79","54.6","14.09","90488","23.44","DUALSPOT-UV-BLUE-GREEN-RED-IR","855095","737834","903550","0.179323","0.049545","0.000000","806109","921020","762021","0.106287","0.031208","0.000000","901420","923998","814971","0.081932","0.020640","0.000000","880796","938242","862329","0.064808","0.015086","0.000000","748027","860629","952117","0.058206","0.014928","0.000000","1928","1717","1928","1476","1455","1476","1297","1121","1297","1262","1171","1262","1742","1899","1742",""
"MA200-0416","21933","62","1","1.10","1.4","2023-05-10T08:55:30","120","2023/05/10","08:55:30","-15.796117544174194","35.002870166208595","0.2","12","30","64","89","-13344","-22196","3723","7","150","149.66","116.84","32.82","23.84","54.4","14.08","90492","23.50","DUALSPOT-UV-BLUE-GREEN-RED-IR","857754","740397","906796","0.225773","0.062671","0.000000","808276","923666","764305","0.136131","0.039636","0.000000","902171","924954","815849","0.104188","0.026905","0.000000","882228","939933","863882","0.082296","0.017595","0.000000","748597","861394","953024","0.071861","0.018925","0.000000","2335","2348","2335","1893","1903","1893","1581","1584","1581","1501","766","1501","1632","1700","1632",""
"MA200-0416","21934","62","1","1.10","1.4","2023-05-10T08:56:00","120","2023/05/10","08:56:00","-15.796150863170624","35.002990833017975","2.6","12","30","64","89","-13323","-21656","1735","7","150","150.09","116.55","33.55","23.88","54.2","14.07","90492","23.56","DUALSPOT-UV-BLUE-GREEN-RED-IR","858475","741379","908148","0.288470","0.077840","0.000000","808680","924447","765037","0.175661","0.048774","0.000000","902965","925993","816849","0.137633","0.032258","0.000000","883840","941836","865693","0.107938","0.021964","0.000000","749397","862458","954243","0.092954","0.022182","0.000000","3159","2655","3159","2514","2019","2514","2382","1324","2382","2207","1306","2207","2528","1356","2528",""
"MA200-0416","21935","62","1","1.10","1.4","2023-05-10T08:56:30","120","2023/05/10","08:56:30","-15.796126067638397","35.00353733287193","4.8","12","30","64","89","-13956","-21588","3104","7","150","149.76","116.55","33.22","23.94","53.9","14.04","90540","23.63","DUALSPOT-UV-BLUE-GREEN-RED-IR","852912","737274","903399","0.384509","0.099308","0.000000","804551","920281","761730","0.235468","0.062572","0.000000","899110","922510","813890","0.181406","0.042611","0.000000","879681","937745","861987","0.136870","0.028729","0.000000","746535","859357","950899","0.116350","0.027458","0.000000","4840","3796","4840","3804","3079","3804","3118","2587","3118","2490","2043","2490","2804","2218","2804",""
"MA200-0416","21936","62","1","1.10","1.4","2023-05-10T08:57:00","120","2023/05/10","08:57:00","-15.795318245887756","35.004108499735594","6.4","12","30","64","89","-13861","-22080","3469","7","150","149.57","116.31","33.26","23.99","53.7","14.02","90636","23.69","DUALSPOT-UV-BLUE-GREEN-RED-IR","846652","736122","903899","1.203028","0.321975","0.000000","799415","918463","761557","0.870192","0.240545","0.000000","894152","920862","813606","0.717973","0.192754","0.000000","875331","935959","861371","0.572818","0.149822","0.000000","744030","858414","950584","0.425512","0.109613","0.000000","41335","39326","41335","40456","39672","40456","38300","37482","38300","37604","36531","37604","37132","34509","37132",""
"MA200-0416","21937","62","1","1.10","1.4","2023-05-10T08:57:30","120","2023/05/10","08:57:30","-15.794608533382416","35.003730666358024","2.1","12","30","64","89","-16948","-19804","1724","7","150","149.83","116.15","33.68","24.04","53.5","14.00","90644","23.75","DUALSPOT-UV-BLUE-GREEN-RED-IR","849307","738825","907424","1.288117","0.345279","0.000000","802257","922078","764601","0.923699","0.253963","0.000000","895443","922476","815111","0.762653","0.202923","0.000000","878256","939282","864504","0.606387","0.157629","0.000000","745355","860064","952491","0.451755","0.116767","0.000000","4302","4064","4302","3415","2953","3415","3193","2506","3193","2899","2325","2899","3156","2967","3156",""
"MA200-0416","21938","62","1","1.10","1.4","2023-05-10T08:58:00","120","2023/05/10","08:58:00","-15.794380724430084","35.00298683298752","4.0","12","30","64","89","-15384","-20764","4352","7","150","149.90","116.43","33.47","24.10","53.2","13.97","90576","23.75","DUALSPOT-UV-BLUE-GREEN-RED-IR","843795","734277","901963","1.333633","0.356307","0.000000","802842","922976","765420","0.952518","0.260490","0.000000","896835","924034","816527","0.785571","0.208234","0.000000","880455","941764","866814","0.623357","0.160157","0.000000","746695","861735","954393","0.467142","0.120319","0.000000","2296","1935","2296","1834","1445","1834","1634","1317","1634","1462","757","1462","1846","1482","1846",""
"MA200-0416","21939","62","1","1.10","1.4","2023-05-10T08:58:30","120","2023/05/10","08:58:30","-15.794931292533875","35.001993499696255","4.5","12","30","64","89","-12940","-22448","1880","7","150","149.89","116.06","33.83","24.13","53.0","13.95","90528","23.81","DUALSPOT-UV-BLUE-GREEN-RED-IR","845380","735890","904067","1.380125","0.368753","0.000000","799134","918877","762086","0.983661","0.270116","0.000000","897018","924426","816946","0.810133","0.214302","0.000000","873910","934944","860535","0.642025","0.163513","0.000000","746720","861849","954509","0.480638","0.124294","0.000000","2352","2160","2352","1989","2109","1989","1757","1488","1757","1613","995","1613","1624","1641","1624",""
"MA200-0416","21940","62","1","1.10","1.4","2023-05-10T08:59:00","120","2023/05/10","08:59:00","-15.795307457447052","35.00073899986455","4.7","12","30","64","89","-12128","-22168","5072","7","150","150.49","116.43","34.06","24.18","53.0","13.99","90656","23.88","DUALSPOT-UV-BLUE-GREEN-RED-IR","846394","737010","905555","1.424407","0.381597","0.000000","799695","919722","762841","1.012051","0.275218","0.000000","892873","920334","813333","0.831705","0.217121","0.000000","875643","936917","862384","0.658649","0.164991","0.000000","747625","862954","955800","0.495029","0.127039","0.000000","2233","2214","2233","1807","1110","1807","1538","687","1538","1432","435","1432","1726","1126","1726",""
"MA200-0416","21941","62","1","1.10","1.4","2023-05-10T08:59:30","120","2023/05/10","08:59:30","-15.795468509197235","34.999367415905","3.3","12","30","64","88","-16272","-20000","2600","7","150","150.43","116.36","34.07","24.23","53.2","14.09","90688","23.94","DUALSPOT-UV-BLUE-GREEN-RED-IR","845753","737458","906458","1.594320","0.425355","0.000000","799495","920400","763657","1.139170","0.307500","0.000000","892396","920600","813814","0.939965","0.244116","0.000000","876580","938577","864102","0.747585","0.186430","0.000000","742229","857160","949551","0.560518","0.143189","0.000000","8576","7544","8576","8098","7024","8098","7724","6578","7724","7668","6313","7668","7862","6622","7862",""
"MA200-0416","21942","62","1","1.10","1.4","2023-05-10T09:00:00","120","2023/05/10","09:00:00","-15.795460164546967","34.998143911361694","4.4","12","30","64","88","-14248","-21216","3787","7","150","150.49","116.87","33.63","24.27","53.2","14.13","90612","23.94","DUALSPOT-UV-BLUE-GREEN-RED-IR","847557","739233","908806","1.646954","0.439729","0.000000","801075","922403","765376","1.170885","0.315694","0.000000","892918","921288","814436","0.964039","0.248515","0.000000","877671","939853","865318","0.765687","0.189596","0.000000","743036","858191","950678","0.575113","0.145102","0.000000","2645","2510","2645","2011","1806","2011","1710","1085","1710","1554","944","1554","1744","794","1744",""
"MA200-0416","21943","62","1","1.10","1.4","2023-05-10T09:00:30","120","2023/05/10","09:00:30","-15.795442461967468","34.99668204784393","5.1","12","30","64","88","-12784","-22815","2746","7","150","150.03","116.47","33.56","24.31","53.1","14.16","90692","24.00","DUALSPOT-UV-BLUE-GREEN-RED-IR","842530","735037","903698","1.679808","0.447557","0.000000","797114","917968","761710","1.190299","0.319789","0.000000","894397","922922","815928","0.979495","0.252777","0.000000","878954","941329","866678","0.778442","0.192111","0.000000","743627","858959","951515","0.584554","0.146648","0.000000","1656","1369","1656","1235","904","1235","1101","1054","1101","1098","752","1098","1132","643","1132",""
"MA200-0416","21944","62","1","1.10","1.4","2023-05-10T09:01:00","120","2023/05/10","09:01:00","-15.795451164245605","34.9951269030571","4.6","12","30","64","88","-14192","-21740","3655","7","150","150.01","115.96","34.05","24.35","53.2","14.20","90812","24.06","DUALSPOT-UV-BLUE-GREEN-RED-IR","843085","735738","904652","1.718967","0.457233","0.000000","797467","918561","762241","1.213485","0.324749","0.000000","894648","923308","816264","0.997519","0.255434","0.000000","872968","935026","860875","0.789773","0.192194","0.000000","744173","859628","952318","0.595521","0.149157","0.000000","1983","1669","1983","1482","1079","1482","1290","648","1290","980","24","980","1321","1029","1321",""
"MA200-0416","21945","62","1","1.10","1.4","2023-05-10T09:01:30","120","2023/05/10","09:01:30","-15.795237183570862","34.99405187368393","3.7","12","30","64","88","-12215","-22757","3103","7","150","150.23","116.22","34.02","24.40","53.1","14.23","90856","24.13","DUALSPOT-UV-BLUE-GREEN-RED-IR","844678","737690","907292","1.822394","0.484615","0.000000","798880","920543","763955","1.262867","0.335096","0.000000","895424","924400","817298","1.033407","0.262218","0.000000","874937","937342","863037","0.815838","0.196814","0.000000","745352","861123","953973","0.610065","0.151666","0.000000","5227","4727","5227","3150","2254","3150","2563","1655","2563","2250","1362","2250","1748","1030","1748",""
"MA200-0416","21946","62","1","1.10","1.4","2023-05-10T09:02:00","120","2023/05/10","09:02:00","-15.795656621456146","34.99329370260239","3.8","12","30","64","88","-14908","-20844","3407","7","150","149.61","115.87","33.74","24.44","53.1","14.28","90820","24.19","DUALSPOT-UV-BLUE-GREEN-RED-IR","845612","738678","908540","1.849746","0.490053","0.000000","798809","920595","764043","1.278615","0.338661","0.000000","891130","920042","813449","1.046365","0.262808","0.000000","877077","939707","865204","0.824153","0.196105","0.000000","745866","861779","954709","0.619291","0.152960","0.000000","1386","946","1386","1007","783","1007","928","145","928","719","-210","719","1112","535","1112",""
"MA200-0416","21947","62","1","1.10","1.4","2023-05-10T09:02:30","120","2023/05/10","09:02:30","-15.796488523483276","34.99271088838577","4.4","12","30","64","88","-13050","-22461","2696","7","150","147.77","116.63","31.14","24.48","53.0","14.29","90856","24.19","DUALSPOT-UV-BLUE-GREEN-RED-IR","844631","737936","907724","1.875763","0.497648","0.000000","798918","920798","764234","1.293492","0.342296","0.000000","890796","919799","813247","1.058787","0.265389","0.000000","875623","938228","863845","0.832128","0.195926","0.000000","745380","861273","954178","0.626876","0.154505","0.000000","1310","1432","1310","945","865","945","884","687","884","686","-57","686","908","693","908",""
"MA200-0416","21948","62","1","1.10","1.4","2023-05-10T09:03:00","120","2023/05/10","09:03:00","-15.797322869300842","34.99227321147919","3.3","12","30","64","88","-14480","-21350","3161","7","150","149.45","115.59","33.85","24.53","52.9","14.29","90856","24.25","DUALSPOT-UV-BLUE-GREEN-RED-IR","840227","734221","903209","1.900273","0.504232","0.000000","800773","923047","766139","1.309073","0.345485","0.000000","892484","921611","814853","1.068228","0.266796","0.000000","872666","935134","861014","0.840246","0.196308","0.000000","742139","857578","950056","0.633516","0.155220","0.000000","1245","1142","1245","999","698","999","678","344","678","704","113","704","802","294","802",""
"MA200-0416","21949","62","1","1.10","1.4","2023-05-10T09:03:30","120","2023/05/10","09:03:30","-15.798244833946228","34.99197953939438","3.4","12","30","64","88","-13984","-21604","2600","7","150","149.72","116.39","33.32","24.58","52.8","14.30","90868","24.31","DUALSPOT-UV-BLUE-GREEN-RED-IR","840357","734612","903752","1.941708","0.513221","0.000000","795935","917663","761686","1.334923","0.350606","0.000000","891819","921076","814430","1.087522","0.268864","0.000000","871425","933942","859939","0.855129","0.197225","0.000000","741492","856904","949361","0.644733","0.157359","0.000000","2090","1584","2090","1646","1139","1646","1376","515","1376","1282","276","1282","1346","896","1346",""
"MA200-0416","21950","62","1","1.10","1.4","2023-05-10T09:04:00","120","2023/05/10","09:04:00","-15.7992644906044","34.99182564020157","3.9","12","30","64","88","-13348","-21940","3700","7","150","149.99","116.02","33.97","24.62","52.7","14.31","90908","24.38","DUALSPOT-UV-BLUE-GREEN-RED-IR","843128","737167","906991","1.972877","0.522539","0.000000","798056","920237","763886","1.353162","0.355022","0.000000","893674","923111","816232","1.103353","0.272553","0.000000","875066","937914","863593","0.866925","0.199687","0.000000","743346","859102","951818","0.654777","0.160397","0.000000","1577","1611","1577","1165","963","1165","1132","901","1132","1020","727","1020","1209","1249","1209",""
"MA200-0416","21951","62","1","1.10","1.4","2023-05-10T09:04:30","120","2023/05/10","09:04:30","-15.800272166728973","34.99194186925888","3.4","12","30","64","88","-15264","-20972","2320","7","150","150.36","116.03","34.33","24.66","52.6","14.31","90908","24.38","DUALSPOT-UV-BLUE-GREEN-RED-IR","844724","738744","909061","2.008057","0.532302","0.000000","799300","921828","765226","1.374048","0.360095","0.000000","894578","924206","817228","1.119703","0.274425","0.000000","876582","939629","865212","0.877565","0.200480","0.000000","744188","860165","953033","0.664649","0.161914","0.000000","1780","1670","1780","1334","1095","1334","1169","452","1169","919","231","919","1188","617","1188",""
"MA200-0416","21952","62","1","1.10","1.4","2023-05-10T09:05:00","120","2023/05/10","09:05:00","-15.800990879535675","34.99204021692276","2.7","12","30","64","88","-16616","-20328","548","7","150","149.96","116.07","33.89","24.72","52.4","14.32","90880","24.44","DUALSPOT-UV-BLUE-GREEN-RED-IR","839465","734441","903857","2.054158","0.543863","0.000000","799560","922360","765731","1.400000","0.365459","0.000000","890244","919837","813434","1.139783","0.279199","0.000000","878429","941741","867175","0.891786","0.201117","0.000000","744853","861028","954004","0.677093","0.164093","0.000000","2332","2003","2332","1657","1173","1657","1436","1169","1436","1229","188","1229","1497","898","1497",""
"MA200-0416","21953","62","1","1.10","1.4","2023-05-10T09:05:30","120","2023/05/10","09:05:30","-15.80095374584198","34.99282383918762","3.3","12","30","64","87","-15120","-20876","2952","7","150","149.70","115.95","33.75","24.75","52.1","14.27","90796","24.44","DUALSPOT-UV-BLUE-GREEN-RED-IR","839976","735295","905094","2.126170","0.563816","0.000000","795856","918398","762548","1.448392","0.379270","0.000000","890815","920747","814262","1.176714","0.287413","0.000000","872100","935167","861165","0.921368","0.208288","0.000000","745122","861481","954571","0.699571","0.171002","0.000000","3647","3472","3647","3093","3033","3093","2644","2020","2644","2559","2131","2559","2708","2859","2708",""
"MA200-0416","21954","62","1","1.10","1.4","2023-05-10T09:06:00","120","2023/05/10","09:06:00","-15.800671398639679","34.99374598264694","3.6","12","30","64","88","-14836","-21400","3239","7","150","149.45","115.75","33.69","24.79","52.0","14.28","90804","24.50","DUALSPOT-UV-BLUE-GREEN-RED-IR","841168","736522","906709","2.171721","0.575073","0.000000","796011","918753","762876","1.476103","0.385761","0.000000","891270","921332","814802","1.196527","0.291102","0.000000","873820","937137","862973","0.936329","0.209629","0.000000","745638","862162","955345","0.712232","0.172864","0.000000","2311","1962","2311","1774","1428","1774","1421","908","1421","1296","399","1296","1527","772","1527",""
"MA200-0416","21955","62","1","1.10","1.4","2023-05-10T09:06:30","120","2023/05/10","09:06:30","-15.800377428531647","34.99420201778412","0.0","12","30","64","87","-15968","-20216","2516","7","150","149.62","116.45","33.17","24.84","51.9","14.27","90780","24.56","DUALSPOT-UV-BLUE-GREEN-RED-IR","841464","736998","907330","2.205519","0.583715","0.000000","796716","919666","763675","1.495558","0.389862","0.000000","891773","921972","815400","1.213574","0.294726","0.000000","874979","938500","864226","0.947868","0.210118","0.000000","741442","857363","950018","0.721399","0.174317","0.000000","1704","1530","1704","1238","916","1238","1215","907","1215","994","147","994","1099","611","1099",""
"MA200-0416","21956","62","1","1.10","1.4","2023-05-10T09:07:00","120","2023/05/10","09:07:00","-15.800399661064148","34.9942330121994","0.1","12","30","64","87","-16116","-20172","3287","7","150","149.45","115.59","33.85","24.87","51.8","14.29","90780","24.56","DUALSPOT-UV-BLUE-GREEN-RED-IR","842854","738454","909272","2.252648","0.596101","0.000000","797701","921054","764863","1.524674","0.395542","0.000000","892147","922531","815963","1.235980","0.298445","0.000000","875881","939581","865262","0.965040","0.212764","0.000000","742346","858488","951306","0.735279","0.177726","0.000000","2394","2149","2394","1867","1243","1867","1609","912","1609","1490","784","1490","1677","1406","1677",""
"MA200-0416","21957","62","1","1.10","1.4","2023-05-10T09:07:30","120","2023/05/10","09:07:30","-15.800415277481079","34.994404673576355","2.7","12","30","64","86","-14668","-21352","3864","7","150","149.93","115.80","34.12","24.92","51.7","14.30","90776","24.63","DUALSPOT-UV-BLUE-GREEN-RED-IR","835572","732266","901681","2.286950","0.605115","0.000000","797198","920569","764497","1.543146","0.400054","0.000000","891668","922158","815624","1.251220","0.301247","0.000000","874656","938370","864153","0.975352","0.213784","0.000000","741101","857127","949809","0.743957","0.177963","0.000000","1739","1551","1739","1182","980","1182","1092","681","1092","893","299","893","1046","96","1046",""
"MA200-0416","21958","62","1","1.10","1.4","2023-05-10T09:08:00","120","2023/05/10","09:08:00","-15.801065504550934","34.99488031864166","3.4","12","30","64","87","-15892","-20328","3236","7","150","150.13","116.08","34.05","24.95","51.5","14.26","90700","24.69","DUALSPOT-UV-BLUE-GREEN-RED-IR","838707","735179","905377","2.320196","0.614378","0.000000","794439","917515","762030","1.564264","0.406330","0.000000","893443","924112","817373","1.263922","0.302743","0.000000","871930","935538","861534","0.986313","0.215739","0.000000","743388","859837","952848","0.752927","0.180686","0.000000","1682","1597","1682","1348","1366","1348","908","364","908","947","576","947","1079","1117","1079",""
"MA200-0416","21959","62","1","1.10","1.4","2023-05-10T09:08:30","120","2023/05/10","09:08:30","-15.801730334758759","34.99559599161148","4.3","12","30","64","86","-13769","-21888","3130","7","150","149.83","116.35","33.48","25.00","51.2","14.22","90676","24.69","DUALSPOT-UV-BLUE-GREEN-RED-IR","839559","736076","906567","2.350735","0.622173","0.000000","795645","919052","763293","1.582634","0.410806","0.000000","889220","919830","813618","1.280135","0.307780","0.000000","872184","935887","861883","0.997775","0.217705","0.000000","743589","860150","953195","0.762292","0.182996","0.000000","1541","1367","1541","1170","991","1170","1156","1248","1156","988","589","988","1124","964","1124",""
"MA200-0416","21960","62","1","1.10","1.4","2023-05-10T09:09:00","120","2023/05/10","09:09:00","-15.801880538463593","34.99648320674896","2.9","12","30","64","86","-16104","-19824","3287","7","150","150.14","116.50","33.64","25.03","51.1","14.21","90628","24.75","DUALSPOT-UV-BLUE-GREEN-RED-IR","837538","734976","905511","2.462294","0.653305","0.000000","794180","917939","762528","1.655882","0.428926","0.000000","892324","923510","817009","1.339393","0.321364","0.000000","870482","934421","860595","1.041156","0.226402","0.000000","742116","858646","951618","0.793834","0.190408","0.000000","5624","5435","5624","4660","3992","4660","4222","3352","4222","3735","2593","3735","3782","3077","3782",""
"MA200-0416","21961","62","1","1.10","1.4","2023-05-10T09:09:30","120","2023/05/10","09:09:30","-15.801446318626404","34.99712824821472","3.0","12","30","64","86","-15704","-20204","4244","7","150","149.76","116.51","33.26","25.07","51.1","14.25","90564","24.81","DUALSPOT-UV-BLUE-GREEN-RED-IR","837553","737064","909023","2.826230","0.751483","0.000000","793920","919548","764467","1.928931","0.501764","0.000000","888024","920679","815026","1.566707","0.381207","0.000000","873620","939132","865399","1.224768","0.274008","0.000000","743625","861294","954899","0.924367","0.225835","0.000000","18347","17340","18347","17373","16236","17373","16198","14939","16198","15811","14362","15811","15651","14881","15651",""
"MA200-0416","21962","62","1","1.10","1.4","2023-05-10T09:10:00","120","2023/05/10","09:10:00","-15.800829529762268","34.997456669807434","4.5","12","30","64","86","-13895","-21516","3896","7","150","149.76","116.43","33.34","25.10","51.1","14.28","90516","24.81","DUALSPOT-UV-BLUE-GREEN-RED-IR","831358","732369","903586","3.000449","0.799583","-0.017071","794497","920963","765883","2.057815","0.537145","0.000000","887319","920544","815067","1.673764","0.408881","0.000000","873056","939044","865445","1.310533","0.294929","0.000000","743434","861398","955142","0.987922","0.241379","0.000000","8789","8474","8360","8206","7868","8206","7634","6892","7634","7390","6296","7390","7625","6513","7625",""
"MA200-0416","21963","62","1","1.10","1.4","2023-05-10T09:10:30","120","2023/05/10","09:10:30","-15.800234735012054","34.99669921398163","3.7","12","30","64","86","-13995","-21728","2952","7","150","149.47","116.63","32.84","25.16","51.0","14.32","90540","24.88","DUALSPOT-UV-BLUE-GREEN-RED-IR","832226","733361","904944","3.046893","0.811908","-0.027989","790171","916145","761911","2.087086","0.544876","0.000000","888177","921578","816048","1.696515","0.413781","0.000000","874438","940650","866977","1.328373","0.299382","0.000000","744234","862398","956289","1.001169","0.244313","0.000000","2339","2204","2155","1860","1744","1860","1619","1238","1619","1534","1360","1534","1586","1247","1586",""
"MA200-0416","21964","62","1","1.10","1.4","2023-05-10T09:11:00","120","2023/05/10","09:11:00","-15.799685537815094","34.995996832847595","3.9","12","30","64","86","-13744","-21464","3720","7","150","150.09","116.51","33.59","25.21","51.0","14.35","90560","24.94","DUALSPOT-UV-BLUE-GREEN-RED-IR","830869","732495","904000","3.096497","0.825487","-0.023858","788850","914831","760895","2.115941","0.551557","0.000000","887563","921159","815678","1.717412","0.418281","0.000000","867206","932990","859939","1.342195","0.300460","0.000000","738934","856341","949570","1.012887","0.246877","0.000000","2500","2374","2328","1835","1474","1835","1489","1112","1489","1190","322","1190","1405","1066","1405",""
"MA200-0416","21965","62","1","1.10","1.4","2023-05-10T09:11:30","120","2023/05/10","09:11:30","-15.79884535074234","34.99540197849274","3.6","12","30","64","86","-13620","-21792","3900","7","150","150.19","116.77","33.42","25.22","51.0","14.35","90584","24.94","DUALSPOT-UV-BLUE-GREEN-RED-IR","833575","735227","907539","3.169665","0.846042","-0.008050","791641","918303","763870","2.154291","0.560909","0.000000","888517","922329","816806","1.745754","0.424218","0.000000","869814","935954","862665","1.361388","0.302624","0.000000","740129","857810","951228","1.025753","0.249599","0.000000","3680","3613","3588","2434","2074","2434","2015","1475","2015","1648","649","1648","1539","1137","1539",""
"MA200-0416","21966","62","1","1.10","1.4","2023-05-10T09:12:00","120","2023/05/10","09:12:00","-15.797987580299377","34.9948188662529","3.2","12","30","64","86","-12944","-22568","2416","7","150","149.76","116.63","33.14","25.22","50.9","14.33","90664","25.00","DUALSPOT-UV-BLUE-GREEN-RED-IR","834878","736541","909280","3.204360","0.857355","0.052336","792807","919770","765079","2.173978","0.566768","0.000000","884639","918396","813342","1.760935","0.428438","0.000000","871145","937435","864084","1.373356","0.306797","0.000000","740996","858880","952449","1.035638","0.252388","0.000000","1747","2005","2099","1251","1310","1251","1080","1057","1080","1029","1263","1029","1184","1175","1184",""
"MA200-0416","21967","62","1","1.10","1.4","2023-05-10T09:12:30","120","2023/05/10","09:12:30","-15.797491908073425","34.99495714902878","3.8","12","30","64","86","-14764","-20904","4404","7","150","149.45","116.63","32.82","25.29","50.8","14.36","90684","25.00","DUALSPOT-UV-BLUE-GREEN-RED-IR","835067","736873","909747","3.237872","0.866422","-0.017117","793210","920367","765631","2.193701","0.572341","0.000000","884759","918616","813583","1.776987","0.432735","0.000000","872086","938537","865120","1.384681","0.308328","0.000000","741143","859119","952727","1.045000","0.254055","0.000000","1687","1622","1599","1253","1258","1253","1142","1087","1142","974","468","974","1121","709","1121",""
"MA200-0416","21968","62","1","1.10","1.4","2023-05-10T09:13:00","120","2023/05/10","09:13:00","-15.797421634197235","34.9959135055542","4.0","12","30","64","86","-13519","-22361","3542","7","150","149.87","116.63","33.24","25.33","50.7","14.36","90704","25.06","DUALSPOT-UV-BLUE-GREEN-RED-IR","829431","732085","903935","3.275189","0.876958","-0.003965","793276","920594","765838","2.215201","0.576406","0.000000","885393","919402","814279","1.792847","0.434803","0.000000","872940","939597","866087","1.397723","0.309597","0.000000","741457","859553","953246","1.056800","0.257690","0.000000","1879","1861","1855","1366","906","1366","1129","516","1129","1121","383","1121","1413","1527","1413",""
"MA200-0416","21969","62","1","1.10","1.4","2023-05-10T09:13:30","120","2023/05/10","09:13:30","-15.79741883277893","34.99664795398712","3.4","12","30","64","86","-16296","-19976","3388","7","150","150.09","116.71","33.39","25.37","50.6","14.38","90636","25.13","DUALSPOT-UV-BLUE-GREEN-RED-IR","829824","733221","905670","3.392350","0.906696","-0.053630","788984","916287","762450","2.293688","0.596284","0.000000","885688","920262","815176","1.852459","0.447511","0.000000","873367","940443","866985","1.441299","0.318861","0.000000","741837","860232","954098","1.085802","0.263879","0.000000","5896","5231","4988","4985","4413","4985","4240","3159","4240","3746","2783","3746","3471","2589","3471",""
"MA200-0416","21970","62","1","1.10","1.4","2023-05-10T09:14:00","120","2023/05/10","09:14:00","-15.797412514686584","34.99751305580139","2.3","12","30","64","85","-16342","-19765","3561","7","150","149.96","116.87","33.10","25.40","50.5","14.36","90536","25.13","DUALSPOT-UV-BLUE-GREEN-RED-IR","828299","732374","904852","3.502303","0.938049","0.002657","787964","915500","761948","2.366340","0.616704","0.000000","884529","919409","814511","1.912146","0.463253","0.000000","865448","932195","859480","1.488024","0.329911","0.000000","740839","859265","953095","1.118354","0.272194","0.000000","5526","5564","5578","4608","4573","4608","4240","3948","4240","4011","3349","4011","3891","3509","3891",""
"MA200-0416","21971","62","1","1.10","1.4","2023-05-10T09:14:30","120","2023/05/10","09:14:30","-15.798228859901428","34.99781972169876","3.8","12","30","64","86","-13895","-21828","3016","7","150","149.39","116.55","32.84","25.44","50.4","14.36","90496","25.19","DUALSPOT-UV-BLUE-GREEN-RED-IR","831280","735280","908587","3.559702","0.953853","-0.009028","789930","918049","764127","2.406073","0.625890","0.000000","885930","921042","816051","1.945554","0.470685","0.000000","868543","935696","862747","1.513809","0.334298","0.000000","742452","861234","955311","1.137878","0.275593","0.000000","2892","2826","2802","2527","2073","2527","2379","1879","2379","2219","1340","2219","2340","1445","2340",""
"MA200-0416","21972","62","1","1.10","1.4","2023-05-10T09:15:00","120","2023/05/10","09:15:00","-15.799272954463959","34.99803268909454","4.7","12","30","64","86","-15187","-21008","2352","7","150","150.09","116.75","33.35","25.48","50.1","14.32","90440","25.19","DUALSPOT-UV-BLUE-GREEN-RED-IR","832288","736380","910053","3.600880","0.964445","-0.043693","790551","918924","764915","2.433455","0.633472","0.000000","886943","922289","817196","1.969284","0.476586","0.000000","870233","937669","864584","1.532208","0.338536","0.000000","738818","857124","950782","1.153184","0.280392","0.000000","2071","1865","1790","1738","1685","1738","1687","1468","1687","1581","1275","1581","1831","2010","1831",""
"MA200-0416","21973","62","1","1.10","1.4","2023-05-10T09:15:30","120","2023/05/10","09:15:30","-15.80037248134613","34.99790471792221","4.3","12","30","64","86","-12592","-22504","2524","7","150","149.67","116.86","32.81","25.51","49.9","14.29","90468","25.25","DUALSPOT-UV-BLUE-GREEN-RED-IR","829684","735633","909809","3.733521","1.000408","-0.013229","788723","918467","765021","2.539528","0.662427","0.000000","884895","921556","816985","2.057480","0.500422","0.000000","868847","937375","864687","1.603883","0.356841","0.000000","737488","856540","950483","1.212173","0.296422","0.000000","6667","6437","6353","6729","6541","6729","6266","6030","6266","6153","5596","6153","7051","6824","7051",""
"MA200-0416","21974","62","1","1.10","1.4","2023-05-10T09:16:00","120","2023/05/10","09:16:00","-15.801191627979279","34.99777466058731","3.5","13","30","64","86","-14380","-21640","2736","7","150","150.25","116.43","33.82","25.54","49.8","14.30","90512","25.31","DUALSPOT-UV-BLUE-GREEN-RED-IR","822574","731375","905430","4.255461","1.137060","-0.036509","782224","912893","760983","2.968025","0.774496","0.000000","878741","917019","813514","2.441144","0.598161","0.000000","868496","938674","866385","1.938331","0.439369","0.000000","736805","856972","951379","1.486059","0.361631","0.000000","26329","23735","22789","27282","24568","27282","27357","23996","27357","28818","24484","28818","32860","26938","32860",""
"MA200-0416","21975","62","1","1.10","1.4","2023-05-10T09:16:30","120","2023/05/10","09:16:30","-15.80179077386856","34.99861580133438","4.0","12","30","64","86","-14292","-21746","2692","7","150","149.99","117.05","32.94","25.58","49.7","14.27","90532","25.31","DUALSPOT-UV-BLUE-GREEN-RED-IR","821761","730864","904942","4.310052","1.153249","0.015874","782725","913685","761695","3.006881","0.784296","-0.054341","878669","917077","813596","2.472806","0.606411","0.000000","862277","932088","860353","1.961982","0.445019","0.000000","736958","857237","951732","1.504455","0.365773","0.000000","2739","2886","2940","2461","2205","2115","2245","2079","2245","2027","1721","2027","2195","1756","2195",""
"MA200-0416","21976","62","1","1.10","1.4","2023-05-10T09:17:00","120","2023/05/10","09:17:00","-15.80173248052597","34.9996372461319","4.1","12","30","64","85","-13895","-22092","2048","7","150","149.53","116.38","33.14","25.62","49.4","14.23","90500","25.31","DUALSPOT-UV-BLUE-GREEN-RED-IR","821110","730485","904578","4.350451","1.164997","0.006451","782413","913483","761584","3.029740","0.788669","-0.263095","877790","916276","812966","2.492380","0.610881","0.000000","867506","937868","865692","1.976078","0.446349","0.000000","736084","856290","950676","1.515369","0.367705","0.000000","2038","2081","2097","1456","978","810","1396","1119","1396","1215","402","1215","1309","814","1309",""
"MA200-0416","21977","62","1","1.10","1.4","2023-05-10T09:17:30","120","2023/05/10","09:17:30","-15.801185309886932","34.99993461370468","3.2","13","30","64","86","-15559","-20492","4188","7","150","150.16","116.87","33.29","25.64","49.1","14.17","90424","25.38","DUALSPOT-UV-BLUE-GREEN-RED-IR","824259","733520","908426","4.395859","1.177766","-0.004078","783948","915503","763324","3.063452","0.799566","0.050271","879855","918624","815088","2.517324","0.616860","0.000000","864885","935166","863222","1.996403","0.451713","0.000000","738168","858816","953528","1.532550","0.373130","0.000000","2282","2252","2241","2138","2426","2527","1772","1490","1772","1744","1616","1744","2053","2276","2053",""
"MA200-0416","21978","62","1","1.10","1.4","2023-05-10T09:18:00","120","2023/05/10","09:18:00","-15.800462007522583","35.000031833333196","2.5","13","30","64","86","-14044","-21592","3996","7","150","150.16","116.55","33.61","25.68","48.9","14.13","90400","25.44","DUALSPOT-UV-BLUE-GREEN-RED-IR","824909","734334","909558","4.439184","1.188385","-0.058138","785255","917190","764784","3.088808","0.805479","-0.113148","879836","918818","815262","2.539134","0.620126","0.000000","864964","935381","863473","2.013868","0.454485","0.000000","738126","858885","953669","1.546554","0.376454","0.000000","2183","1855","1735","1612","1304","1195","1553","806","1553","1503","827","1503","1678","1381","1678",""
"MA200-0416","21979","62","1","1.10","1.4","2023-05-10T09:18:30","120","2023/05/10","09:18:30","-15.800302565097809","35.00006233332533","3.4","13","30","64","85","-15148","-21140","2772","7","150","150.03","116.87","33.16","25.71","48.7","14.09","90404","25.44","DUALSPOT-UV-BLUE-GREEN-RED-IR","825779","735349","910908","4.478778","1.199253","-0.010435","785777","917983","765467","3.114337","0.811904","-0.057913","880269","919374","815816","2.557957","0.624644","0.000000","865846","936469","864469","2.028501","0.456011","0.000000","738541","859431","954299","1.558517","0.378253","0.000000","1989","1924","1901","1619","1436","1371","1337","1130","1337","1256","461","1256","1429","758","1429",""
"MA200-0416","21980","62","1","1.10","1.4","2023-05-10T09:19:00","120","2023/05/10","09:19:00","-15.800947725772858","34.99997401237488","2.4","13","30","64","85","-12748","-22268","3172","7","150","149.67","116.08","33.59","25.74","48.7","14.14","90420","25.44","DUALSPOT-UV-BLUE-GREEN-RED-IR","820090","730517","905009","4.524929","1.210857","-0.048201","786124","918569","766021","3.141999","0.816701","-0.375939","880486","919786","816211","2.580780","0.628792","0.000000","866860","937729","865651","2.045530","0.458735","0.000000","738924","859966","954906","1.571809","0.381960","0.000000","2335","2028","1917","1766","1058","809","1632","1025","1632","1471","813","1471","1599","1541","1599",""
"MA200-0416","21981","62","1","1.10","1.4","2023-05-10T09:19:30","120","2023/05/10","09:19:30","-15.801267564296722","34.99991261959076","0.1","13","30","64","85","-12260","-22924","3276","7","150","150.85","116.48","34.37","25.77","48.7","14.16","90452","25.50","DUALSPOT-UV-BLUE-GREEN-RED-IR","818302","729136","903420","4.563282","1.223161","0.023315","785070","917545","765235","3.168660","0.823854","-0.044194","879964","919389","815893","2.602685","0.633626","0.000000","865190","936031","864110","2.061766","0.460475","0.000000","737949","858947","953783","1.583477","0.382913","0.000000","1933","2102","2164","1696","1542","1488","1561","1167","1561","1398","507","1398","1399","387","1399",""
"MA200-0416","21982","62","1","1.10","1.4","2023-05-10T09:20:00","120","2023/05/10","09:20:00","-15.80160105228424","34.99994248151779","1.7","13","30","64","85","-11556","-23360","2824","7","150","150.09","116.75","33.35","25.81","48.6","14.15","90500","25.50","DUALSPOT-UV-BLUE-GREEN-RED-IR","821366","732073","907210","4.609206","1.235258","-0.025831","781830","913969","762327","3.199887","0.832784","0.000491","876987","916473","813351","2.629023","0.639378","0.000000","862445","933208","861558","2.082455","0.466025","0.000000","735498","856170","950720","1.600160","0.386473","0.000000","2310","2130","2064","1982","1985","1986","1873","1431","1873","1777","1669","1777","1996","1491","1996",""
"MA200-0416","21983","62","1","1.10","1.4","2023-05-10T09:20:30","120","2023/05/10","09:20:30","-15.802212178707123","35.000377166608814","3.2","13","30","64","85","-16126","-20830","1519","7","150","150.13","116.46","33.66","25.83","48.3","14.10","90492","25.56","DUALSPOT-UV-BLUE-GREEN-RED-IR","821745","732955","908519","4.693003","1.259485","0.000058","782231","914943","763238","3.260100","0.847839","-0.068473","877195","917063","814000","2.677167","0.652324","0.000000","862861","933987","862382","2.120143","0.474166","0.000000","735731","856685","951367","1.627574","0.394987","0.000000","4226","4227","4227","3832","3315","3133","3431","3192","3431","3246","2426","3246","3288","3532","3288",""
"MA200-0416","21984","62","1","1.10","1.4","2023-05-10T09:21:00","120","2023/05/10","09:21:00","-15.802988708019257","35.00094833323965","3.6","13","30","64","85","-15931","-20456","2312","7","150","149.96","116.51","33.45","25.86","48.4","14.13","90416","25.56","DUALSPOT-UV-BLUE-GREEN-RED-IR","821708","733320","909130","4.778108","1.281757","-0.028833","782045","915061","763461","3.320778","0.862634","-0.077060","876689","916827","813867","2.727776","0.662761","0.000000","863224","934602","863017","2.159679","0.483113","0.000000","735638","856715","951463","1.655586","0.401142","0.000000","4290","3910","3770","3860","3278","3074","3606","2590","3606","3404","2682","3404","3358","2570","3358",""
"MA200-0416","21985","62","1","1.10","1.4","2023-05-10T09:21:30","120","2023/05/10","09:21:30","-15.803438186645508","35.001728499890305","3.3","13","30","64","85","-15616","-20076","4132","7","150","149.57","116.35","33.22","25.91","48.4","14.19","90336","25.63","DUALSPOT-UV-BLUE-GREEN-RED-IR","819384","731596","907186","4.840546","1.298988","-0.009869","781091","914263","762872","3.363609","0.872987","-0.077650","875097","915430","812679","2.760892","0.671935","0.000000","860895","932324","860937","2.186626","0.488257","0.000000","734029","854952","949557","1.675073","0.405260","0.000000","3152","3046","3008","2729","2310","2163","2363","2292","2363","2323","1553","2323","2339","1731","2339",""
"MA200-0416","21986","62","1","1.10","1.4","2023-05-10T09:22:00","120","2023/05/10","09:22:00","-15.80326932668686","35.00228999974206","2.9","13","30","64","85","-14600","-20988","4844","7","150","149.39","116.63","32.76","25.93","48.5","14.25","90284","25.69","DUALSPOT-UV-BLUE-GREEN-RED-IR","815180","728378","903413","4.945566","1.327404","-0.010681","782325","916163","764591","3.437305","0.892835","-0.017129","876975","917786","814889","2.821797","0.686299","0.000000","864340","936358","864738","2.231709","0.498652","0.000000","735926","857370","952316","1.706850","0.413032","0.000000","5289","5094","5023","4684","4491","4423","4335","3640","4335","3878","3183","3878","3806","3314","3806",""
"MA200-0416","21987","62","1","1.10","1.4","2023-05-10T09:22:30","120","2023/05/10","09:22:30","-15.802439451217651","35.00246816617437","4.1","13","30","64","85","-13856","-21412","4068","7","150","149.76","116.31","33.45","25.96","48.6","14.30","90284","25.69","DUALSPOT-UV-BLUE-GREEN-RED-IR","816393","729673","905128","4.986302","1.338523","-0.015025","783636","917893","766085","3.460973","0.898128","-0.124158","877024","917949","815065","2.838719","0.689166","0.000000","864923","937113","865471","2.246260","0.501311","0.000000","736256","857846","952859","1.717987","0.416049","0.000000","2057","1952","1913","1508","1172","1055","1207","711","1207","1255","797","1255","1337","1259","1337",""
"MA200-0416","21988","62","1","1.10","1.4","2023-05-10T09:23:00","120","2023/05/10","09:23:00","-15.80157721042633","35.00265133311041","2.7","13","30","64","85","-13384","-22144","4316","7","150","150.03","116.83","33.20","26.01","48.5","14.32","90320","25.69","DUALSPOT-UV-BLUE-GREEN-RED-IR","816986","730367","906093","5.023324","1.349304","0.006473","779308","912945","761993","3.483838","0.903940","-0.047759","877426","918499","815623","2.857690","0.692730","0.000000","865701","938050","866327","2.259584","0.502902","0.000000","736512","858209","953286","1.728813","0.418354","0.000000","1861","1907","1923","1450","1297","1243","1348","891","1348","1144","480","1144","1294","969","1294",""
"MA200-0416","21989","62","1","1.10","1.4","2023-05-10T09:23:30","120","2023/05/10","09:23:30","-15.800653100013733","35.00276549952105","4.1","13","30","64","85","-13695","-21364","3896","7","150","149.63","116.75","32.89","26.04","48.4","14.31","90344","25.75","DUALSPOT-UV-BLUE-GREEN-RED-IR","818284","731750","907946","5.062279","1.361446","0.025127","780183","914143","763068","3.507787","0.910604","-0.004743","878260","919547","816554","2.876377","0.696807","0.000000","866725","939272","867492","2.273579","0.504863","0.000000","737243","859133","954346","1.739894","0.420857","0.000000","1959","2168","2245","1520","1502","1495","1328","1029","1328","1202","598","1202","1326","1063","1326",""
"MA200-0416","21990","62","1","1.10","1.4","2023-05-10T09:24:00","120","2023/05/10","09:24:00","-15.799573183059692","35.00270349951461","3.4","13","30","64","85","-14164","-21316","3223","7","150","149.83","116.47","33.36","26.08","48.2","14.29","90368","25.81","DUALSPOT-UV-BLUE-GREEN-RED-IR","817044","730944","907072","5.112497","1.377098","0.021042","778777","912742","761957","3.541463","0.919931","-0.013233","877601","919086","816200","2.904886","0.704896","0.000000","860187","932365","861152","2.293625","0.509953","0.000000","736615","858502","953687","1.756300","0.426671","0.000000","2532","2755","2837","2143","2072","2047","2032","2012","2032","1726","1530","1726","1967","2434","1967",""
"MA200-0416","21991","62","1","1.10","1.4","2023-05-10T09:24:30","120","2023/05/10","09:24:30","-15.798729956150055","35.002802999224514","3.0","13","30","64","85","-14159","-21324","4168","7","150","149.96","116.47","33.49","26.12","48.1","14.28","90352","25.81","DUALSPOT-UV-BLUE-GREEN-RED-IR","811156","726784","902475","5.249995","1.415430","-0.008330","780184","915392","764462","3.626662","0.942014","-0.042424","878656","920990","818154","2.971572","0.720828","0.000000","862896","935935","864666","2.345287","0.521427","0.000000","733269","854990","949972","1.793226","0.437092","0.000000","6934","6721","6643","5422","4887","4699","4753","3949","4753","4450","3436","4450","4429","4346","4429",""
"MA200-0416","21992","62","1","1.10","1.4","2023-05-10T09:25:00","120","2023/05/10","09:25:00","-15.797789514064789","35.00307866651565","4.3","13","30","64","85","-13044","-21868","3848","7","150","150.08","116.38","33.70","26.16","48.1","14.31","90372","25.88","DUALSPOT-UV-BLUE-GREEN-RED-IR","810246","727896","904849","5.700598","1.544660","-0.002331","779407","916356","765897","3.971118","1.039112","-0.009378","871971","915555","813861","3.258800","0.799530","-0.023523","861540","935783","864985","2.575370","0.582486","0.000000","737212","860464","956401","1.953762","0.477390","0.000000","22742","22524","22443","21942","21360","21154","20490","19389","19031","19835","18178","19835","19270","16705","19270",""
"MA200-0416","21993","62","1","1.10","1.4","2023-05-10T09:25:30","120","2023/05/10","09:25:30","-15.796870231628418","35.00330233294517","4.2","13","30","64","85","-12524","-22556","3455","7","150","150.36","116.59","33.77","26.20","48.0","14.32","90472","25.88","DUALSPOT-UV-BLUE-GREEN-RED-IR","810421","728602","905916","5.790683","1.569971","-0.007427","775052","911748","762148","4.038244","1.055133","-0.077468","872112","916128","814481","3.316360","0.814407","-0.050224","862717","937426","866560","2.621419","0.593042","0.000000","733077","855895","951403","1.988246","0.486492","0.000000","4538","4402","4351","4268","3516","3251","4098","3657","3513","3962","3136","3962","4131","3764","4131",""
"MA200-0416","21994","62","1","1.10","1.4","2023-05-10T09:26:00","120","2023/05/10","09:26:00","-15.796292543411255","35.00338816619478","1.0","13","30","64","85","-15164","-20864","4264","7","150","150.36","116.31","34.05","26.23","47.9","14.31","90516","25.94","DUALSPOT-UV-BLUE-GREEN-RED-IR","810983","729564","907379","5.898704","1.599988","-0.012699","775203","912351","762817","4.116565","1.076698","-0.021288","872206","916612","815055","3.381360","0.830095","-0.089686","856519","931000","860714","2.673969","0.605261","0.000000","733123","856115","951713","2.026563","0.497146","0.000000","5455","5178","5074","4991","4694","4589","4639","3825","3560","4533","3600","4533","4602","4371","4602",""
"MA200-0416","21995","62","1","1.10","1.4","2023-05-10T09:26:30","120","2023/05/10","09:26:30","-15.79618752002716","35.003073333296925","1.0","13","30","64","85","-15272","-21308","2972","7","150","150.49","116.31","34.18","26.27","47.7","14.30","90492","26.00","DUALSPOT-UV-BLUE-GREEN-RED-IR","810776","729569","907490","5.941952","1.612176","-0.010053","775094","912391","762910","4.145897","1.083910","-0.068527","872847","917444","815802","3.404688","0.834399","-0.285732","857873","932612","862240","2.690082","0.607400","0.000000","733673","856869","952588","2.041399","0.499547","0.000000","2183","2094","2060","1869","1564","1455","1665","1045","844","1389","627","1389","1781","980","1781",""
"MA200-0416","21996","62","1","1.10","1.4","2023-05-10T09:27:00","120","2023/05/10","09:27:00","-15.796059012413025","35.00262699997984","1.9","13","30","64","84","-13920","-21624","3744","7","150","149.09","116.63","32.46","26.32","47.5","14.25","90476","26.06","DUALSPOT-UV-BLUE-GREEN-RED-IR","811003","729986","908065","5.979264","1.621551","-0.025761","774581","911951","762578","4.169917","1.089996","-0.033112","872526","917234","815652","3.423804","0.838809","-0.085471","857441","932269","861949","2.706737","0.609529","0.000000","733172","856368","952078","2.056821","0.503813","0.000000","1879","1696","1628","1526","1390","1341","1360","1128","1052","1432","657","1432","1847","1836","1847",""
"MA200-0416","21997","62","1","1.10","1.4","2023-05-10T09:27:30","120","2023/05/10","09:27:30","-15.795722305774689","35.00223216623999","2.2","13","30","64","85","-14123","-21872","2980","7","150","149.46","115.79","33.67","26.34","47.3","14.23","90500","26.06","DUALSPOT-UV-BLUE-GREEN-RED-IR","807446","726974","904396","6.010461","1.630193","-0.011539","776991","914948","765121","4.189825","1.094560","-0.095740","869713","914402","813130","3.438478","0.840103","-3.450048","860670","935854","865250","2.717619","0.610983","0.000000","735054","858651","954613","2.065210","0.504158","0.000000","1582","1507","1479","1274","1004","909","1052","318","81","942","433","942","1012","143","1012",""
"MA200-0416","21998","62","1","1.10","1.4","2023-05-10T09:28:00","120","2023/05/10","09:28:00","-15.795100033283234","35.00243749958463","2.6","13","30","64","85","-12744","-22172","3484","7","150","149.76","116.35","33.42","26.38","47.3","14.24","90512","26.13","DUALSPOT-UV-BLUE-GREEN-RED-IR","807219","726956","904484","6.047118","1.638872","-0.052504","777242","915427","765541","4.213059","1.098669","-0.256998","874662","919751","817931","3.459513","0.844484","-0.165086","861518","936883","866222","2.732025","0.612002","0.000000","735317","859002","955038","2.077367","0.506863","0.000000","1850","1525","1404","1480","911","710","1500","1088","955","1242","305","1242","1459","1130","1459",""
"MA200-0416","21999","62","1","1.10","1.4","2023-05-10T09:28:30","120","2023/05/10","09:28:30","-15.794759035110474","35.002235166262835","3.6","13","30","64","84","-15268","-20808","3828","7","150","149.70","116.03","33.67","26.41","47.2","14.24","90532","26.19","DUALSPOT-UV-BLUE-GREEN-RED-IR","806984","726915","904475","6.075678","1.646434","-0.022417","771856","909167","760376","4.230881","1.102899","-0.077130","869167","914065","812897","3.471631","0.845830","-1.275385","860810","936242","865620","2.742358","0.612378","0.000000","734845","858546","954519","2.087228","0.507843","0.000000","1445","1319","1272","1138","931","858","867","332","159","893","111","893","1187","406","1187",""
"MA200-0416","22000","62","1","1.10","1.4","2023-05-10T09:29:00","120","2023/05/10","09:29:00","-15.795119106769562","35.00144833314698","4.6","13","30","64","85","-12672","-22388","4772","7","150","150.17","116.13","34.04","26.45","47.1","14.26","90584","26.19","DUALSPOT-UV-BLUE-GREEN-RED-IR","809184","729562","908118","6.168309","1.672443","-0.009953","773568","911864","762796","4.300153","1.120477","-0.051632","870314","915847","814634","3.528822","0.858967","-0.113518","856680","932205","862010","2.784982","0.621724","0.000000","735962","860176","956459","2.120473","0.515649","0.000000","4684","4487","4413","4422","3827","3618","4088","3203","2919","3682","2754","3682","3999","3203","3999",""
"MA200-0416","22001","62","1","1.10","1.4","2023-05-10T09:29:30","120","2023/05/10","09:29:30","-15.795409619808197","35.000236666659475","4.8","13","30","64","85","-12428","-22984","3120","7","150","150.49","116.56","33.93","26.49","47.1","14.27","90704","26.19","DUALSPOT-UV-BLUE-GREEN-RED-IR","809373","730066","908902","6.261906","1.697458","-0.020173","774284","913017","763855","4.368901","1.137119","-0.067420","870048","915793","814645","3.585905","0.873589","-0.052549","856692","932384","862240","2.831079","0.632685","0.000000","731335","854903","950613","2.152588","0.524556","0.000000","4716","4330","4187","4372","3636","3377","4065","3578","3421","3967","3241","3967","3848","3667","3848",""
"MA200-0416","22002","62","1","1.10","1.4","2023-05-10T09:30:00","120","2023/05/10","09:30:00","-15.795466840267181","34.99889385700226","4.2","13","30","64","84","-15788","-20197","2908","7","150","149.51","116.51","33.00","26.51","47.2","14.34","90660","26.25","DUALSPOT-UV-BLUE-GREEN-RED-IR","809705","730593","909618","6.306289","1.707017","-0.077540","774408","913352","764152","4.398275","1.143205","-0.129373","870123","916076","814924","3.610218","0.877421","-0.391965","857068","932962","862787","2.849966","0.634182","0.000000","731411","855057","950838","2.164631","0.526001","0.000000","2237","1701","1502","1868","1367","1191","1732","964","717","1626","454","1626","1443","612","1443",""
"MA200-0416","22003","62","1","1.10","1.4","2023-05-10T09:30:30","120","2023/05/10","09:30:30","-15.795872807502747","34.99779033660889","6.0","13","30","64","84","-15516","-20840","3787","7","150","149.93","116.19","33.74","26.54","47.2","14.38","90580","26.25","DUALSPOT-UV-BLUE-GREEN-RED-IR","804263","725980","904024","6.353478","1.720138","-0.009712","774493","913709","764556","4.431885","1.152109","-0.030321","870979","917212","815977","3.636866","0.883090","-0.150108","858801","935023","864746","2.870104","0.638365","0.000000","732177","856060","951979","2.180963","0.529991","0.000000","2385","2284","2246","2144","1956","1890","1904","1395","1231","1738","1244","1738","1963","1651","1963",""
"MA200-0416","22004","62","1","1.10","1.4","2023-05-10T09:31:00","120","2023/05/10","09:31:00","-15.797331392765045","34.997714042663574","5.6","13","30","64","84","-15776","-20796","3452","7","150","149.73","115.79","33.94","26.57","47.0","14.34","90516","26.31","DUALSPOT-UV-BLUE-GREEN-RED-IR","802563","724650","902456","6.402257","1.734951","0.007383","773438","912656","763714","4.465640","1.161813","-0.005893","869741","916032","815030","3.663802","0.890064","-0.049645","857322","933561","863422","2.892300","0.643295","0.000000","731218","855040","950886","2.197813","0.533291","0.000000","2474","2563","2597","2160","2120","2105","1931","1706","1634","1923","1457","1923","2032","1358","2032",""
"MA200-0416","22005","62","1","1.10","1.4","2023-05-10T09:31:30","120","2023/05/10","09:31:30","-15.798885881900787","34.99803805351257","6.4","13","30","64","84","-15800","-20180","3115","7","150","149.73","115.84","33.89","26.61","46.7","14.26","90456","26.31","DUALSPOT-UV-BLUE-GREEN-RED-IR","805096","727084","905633","6.434030","1.745210","0.019335","771043","909973","761517","4.484183","1.166557","-0.045655","871036","917498","816368","3.680867","0.895815","0.045423","859324","935830","865524","2.903069","0.643909","0.000000","732275","856353","952366","2.208276","0.536116","0.000000","1611","1777","1840","1186","1037","985","1223","1408","1468","932","181","932","1261","1164","1261",""
"MA200-0416","22006","62","1","1.10","1.4","2023-05-10T09:32:00","120","2023/05/10","09:32:00","-15.80050641298294","34.99784058332443","6.2","13","30","64","84","-12248","-22780","4023","7","150","149.61","116.21","33.40","26.64","46.5","14.24","90488","26.38","DUALSPOT-UV-BLUE-GREEN-RED-IR","805786","727959","906777","6.470896","1.754728","-0.025055","771554","910762","762246","4.511446","1.174085","-0.012390","871683","918386","817164","3.700245","0.898777","-0.437734","860169","936898","866547","2.919675","0.648313","0.000000","732915","857195","953330","2.220420","0.539762","0.000000","1863","1673","1603","1739","1671","1647","1384","736","528","1433","1323","1433","1459","1525","1459",""
"MA200-0416","22007","62","1","1.10","1.4","2023-05-10T09:32:30","120","2023/05/10","09:32:30","-15.801663339138031","34.99814969301224","5.3","13","30","64","84","-13795","-21848","2360","7","150","149.80","116.02","33.78","26.66","46.5","14.25","90520","26.38","DUALSPOT-UV-BLUE-GREEN-RED-IR","806059","728540","907678","6.539245","1.772903","-0.020625","771338","910827","762386","4.557639","1.184314","-0.104892","867713","914472","813719","3.739589","0.906484","-0.203297","854757","931228","861327","2.949425","0.652480","0.000000","733397","857917","954151","2.244468","0.544005","0.000000","3460","3160","3049","2951","2245","1996","2815","1894","1599","2572","1237","2572","2895","1754","2895",""
"MA200-0416","22008","62","1","1.10","1.4","2023-05-10T09:33:00","120","2023/05/10","09:33:00","-15.801725924015045","34.99961072206497","5.8","13","30","64","84","-14020","-21837","2033","7","150","150.23","116.31","33.92","26.69","46.4","14.26","90500","26.38","DUALSPOT-UV-BLUE-GREEN-RED-IR","806010","728714","907975","6.581401","1.783672","-0.031143","771504","911207","762744","4.585928","1.191610","-0.040368","872032","919170","817981","3.763133","0.911974","-0.095526","855324","931974","862028","2.967481","0.656426","0.000000","733337","857942","954223","2.257513","0.546151","0.000000","2128","1864","1766","1803","1594","1521","1680","1343","1236","1557","1167","1557","1566","883","1566",""
"MA200-0416","22009","62","1","1.10","1.4","2023-05-10T09:33:30","120","2023/05/10","09:33:30","-15.802720308303833","35.000730499916244","5.9","13","30","64","84","-15887","-20176","2272","7","150","149.59","115.92","33.67","26.71","46.4","14.28","90440","26.44","DUALSPOT-UV-BLUE-GREEN-RED-IR","806346","729433","909083","6.637278","1.799596","-0.004011","771870","912026","763527","4.622972","1.200574","-0.062966","871470","918888","817795","3.792089","0.918709","-0.094108","854829","931685","861842","2.989494","0.660300","0.000000","732945","857636","953923","2.274341","0.549943","0.000000","2831","2777","2757","2369","1973","1834","2073","1660","1528","1905","1154","1905","2028","1573","2028",""
"MA200-0416","22010","62","1","1.10","1.4","2023-05-10T09:34:00","120","2023/05/10","09:34:00","-15.803465843200684","35.001782999839634","4.1","13","30","64","84","-15944","-20252","3307","7","150","149.96","116.39","33.57","26.75","46.4","14.31","90324","26.44","DUALSPOT-UV-BLUE-GREEN-RED-IR","806468","729840","909721","6.716431","1.821315","-0.010680","772131","912581","764060","4.676557","1.214521","-0.032523","867108","914480","813951","3.835153","0.929427","-0.057690","855140","932166","862330","3.021512","0.667971","-0.092030","732995","857798","954147","2.297445","0.555169","0.000000","3994","3799","3727","3413","3079","2962","3071","2650","2515","2760","2292","2159","2773","2174","2773",""
"MA200-0416","22011","62","1","1.10","1.4","2023-05-10T09:34:30","120","2023/05/10","09:34:30","-15.804405808448792","35.00206183316186","8.5","13","30","64","84","-12450","-22723","3700","7","150","149.92","115.83","34.09","26.78","46.4","14.33","90312","26.50","DUALSPOT-UV-BLUE-GREEN-RED-IR","800804","725065","903916","6.780522","1.839504","-0.007633","772597","913392","764812","4.719204","1.225811","-0.033345","867445","915072","814522","3.868449","0.938039","-0.049232","856285","933579","863694","3.046675","0.673442","-0.165622","733884","858955","955494","2.314682","0.559610","0.000000","3250","3133","3090","2729","2454","2358","2386","2097","2004","2179","1610","1448","2078","1819","2078",""
"MA200-0416","22012","62","1","1.10","1.4","2023-05-10T09:35:00","120","2023/05/10","09:35:00","-15.80513221025467","35.003343666670844","6.8","13","30","64","84","-12356","-22804","2232","7","150","150.32","115.91","34.41","26.80","46.4","14.34","90356","26.50","DUALSPOT-UV-BLUE-GREEN-RED-IR","805311","729452","909576","6.842190","1.857091","-0.008365","771132","911935","763705","4.760134","1.237642","-0.007784","865893","913654","813317","3.901166","0.946085","-0.075125","853857","931146","861475","3.069450","0.677495","-0.344698","732279","857176","953504","2.332039","0.563138","0.000000","3125","3001","2955","2617","2548","2524","2343","1941","1812","1971","1181","957","2091","1432","2091",""
"MA200-0416","22013","62","1","1.10","1.4","2023-05-10T09:35:30","120","2023/05/10","09:35:30","-15.805771112442017","35.003883165773004","0.2","13","30","64","84","-12880","-22088","3287","7","150","149.84","115.95","33.90","26.82","46.3","14.34","90396","26.50","DUALSPOT-UV-BLUE-GREEN-RED-IR","801056","725842","905153","6.884029","1.867357","-0.041120","772808","914130","765563","4.786521","1.242506","-0.208159","867278","915255","814793","3.921771","0.949275","-0.417659","856776","934459","864555","3.086361","0.680232","-0.434513","728872","853297","949255","2.345993","0.565962","0.000000","2119","1778","1651","1687","1063","845","1475","781","559","1463","809","625","1681","1163","1681",""
"MA200-0416","22014","62","1","1.10","1.4","2023-05-10T09:36:00","120","2023/05/10","09:36:00","-15.806175947189331","35.00399099942297","4.4","13","30","64","84","-13312","-21940","4160","7","150","149.73","115.75","33.98","26.84","46.2","14.33","90408","26.50","DUALSPOT-UV-BLUE-GREEN-RED-IR","801429","726331","905846","6.920148","1.877752","-0.003977","773020","914518","765926","4.808820","1.247238","-0.124249","867181","915289","814842","3.939259","0.952112","-0.365108","857360","935195","865245","3.100063","0.681895","-0.978047","733703","859033","955643","2.356626","0.567381","0.000000","1832","1796","1783","1428","1032","893","1254","693","514","1187","490","294","1283","583","1283",""
"MA200-0416","22015","62","1","1.10","1.4","2023-05-10T09:36:30","120","2023/05/10","09:36:30","-15.807204186916351","35.00430549914017","4.7","13","30","64","84","-12492","-22524","2984","7","150","149.76","115.87","33.89","26.87","46.0","14.28","90456","26.56","DUALSPOT-UV-BLUE-GREEN-RED-IR","800107","725350","904731","6.961453","1.889425","-0.006998","767141","907706","760294","4.834634","1.257074","0.060043","866191","914345","814031","3.957260","0.957715","0.019712","855981","933720","863946","3.114392","0.685489","-0.071728","732754","857991","954475","2.366581","0.570671","0.000000","2093","2022","1996","1651","2151","2327","1289","1372","1398","1240","1064","1014","1200","1355","1200",""
"MA200-0416","22016","62","1","1.10","1.4","2023-05-10T09:37:00","120","2023/05/10","09:37:00","-15.808469772338867","35.004632166121155","4.4","13","30","64","84","-15269","-21315","2626","7","150","149.46","115.79","33.67","26.89","45.8","14.23","90504","26.56","DUALSPOT-UV-BLUE-GREEN-RED-IR","801968","727198","907142","6.993119","1.899311","0.013136","768920","909935","762212","4.852450","1.260261","-0.223010","867754","916116","815653","3.973198","0.961320","-0.104185","858452","936537","866504","3.123260","0.686443","-1.344434","734073","859577","956309","2.375526","0.572500","0.000000","1606","1724","1768","1140","701","547","1142","889","808","768","284","147","1079","758","1079",""
"MA200-0416","22017","62","1","1.10","1.4","2023-05-10T09:37:30","120","2023/05/10","09:37:30","-15.809382021427155","35.00498666614294","4.2","13","30","64","84","-15292","-20264","3220","7","150","149.87","115.96","33.91","26.92","45.7","14.21","90440","26.56","DUALSPOT-UV-BLUE-GREEN-RED-IR","801383","727566","908069","7.132972","1.939781","-0.002023","768588","910309","762765","4.946417","1.288116","0.003699","867741","916732","816417","4.045510","0.981741","-0.011695","858246","936786","866948","3.176966","0.700939","-0.034469","729310","854279","950502","2.413110","0.583111","0.000000","7083","7010","6983","6007","6090","6119","5177","5000","4943","4646","4289","4187","4527","4371","4527",""
"MA200-0416","22018","62","1","1.10","1.4","2023-05-10T09:38:00","120","2023/05/10","09:38:00","-15.810281097888947","35.00530866580084","3.7","13","30","64","84","-13776","-21772","2948","7","150","150.03","115.55","34.48","26.94","45.5","14.15","90420","26.63","DUALSPOT-UV-BLUE-GREEN-RED-IR","801617","728227","909136","7.242862","1.972202","-0.002141","768247","910301","762902","5.022043","1.310508","-0.002060","863266","912304","812603","4.107004","0.999379","-0.013111","853407","931783","862370","3.225509","0.714153","-0.039303","730224","855520","951963","2.444746","0.590736","0.000000","5585","5523","5500","4851","4815","4802","4418","4247","4192","4214","3845","3740","3824","3089","3824",""
"MA200-0416","22019","62","1","1.10","1.4","2023-05-10T09:38:30","120","2023/05/10","09:38:30","-15.81097537279129","35.00555116543546","2.5","13","30","64","84","-13876","-21612","3668","7","150","150.29","116.23","34.06","26.97","45.3","14.13","90416","26.63","DUALSPOT-UV-BLUE-GREEN-RED-IR","795408","722964","902697","7.321847","1.993946","-0.012421","768738","911213","763743","5.076939","1.323186","-0.079163","868470","918089","817783","4.151457","1.009409","-0.105194","854106","932727","863341","3.257543","0.720399","-0.231251","730761","856280","952856","2.466568","0.596256","0.000000","3991","3749","3658","3501","2759","2497","3175","2444","2210","2765","1839","1577","2622","2263","2622",""
"MA200-0416","22020","62","1","1.10","1.4","2023-05-10T09:39:00","120","2023/05/10","09:39:00","-15.811546862125397","35.00565566541627","2.1","13","30","64","84","-14136","-21628","2252","7","150","150.03","115.75","34.28","26.98","45.3","14.13","90416","26.69","DUALSPOT-UV-BLUE-GREEN-RED-IR","795966","723679","903659","7.360883","2.003950","-0.030816","769268","912009","764442","5.100411","1.328271","-0.111689","867614","917324","817142","4.170793","1.012873","-0.261577","853706","932404","863020","3.270581","0.721109","6.799039","730157","855628","952160","2.476154","0.598218","0.000000","1980","1714","1614","1503","1099","957","1386","838","663","1130","207","-53","1156","799","1156",""
"MA200-0416","22021","62","1","1.10","1.4","2023-05-10T09:39:30","120","2023/05/10","09:39:30","-15.81205278635025","35.005408831872046","2.6","13","30","64","84","-13516","-22240","2932","7","150","149.61","115.75","33.85","27.01","45.3","14.16","90428","26.69","DUALSPOT-UV-BLUE-GREEN-RED-IR","796362","724315","904609","7.415205","2.017690","-0.030739","769220","912138","764622","5.129934","1.334880","-0.090504","863695","913321","813616","4.190505","1.016133","-0.321124","855341","934289","864802","3.285550","0.723713","-0.329059","731290","857036","953714","2.485906","0.598711","0.000000","2756","2383","2244","1890","1447","1291","1413","799","602","1297","771","623","1176","203","1176",""
"MA200-0416","22022","62","1","1.10","1.4","2023-05-10T09:40:00","120","2023/05/10","09:40:00","-15.812558710575104","35.00497916620225","2.4","13","30","64","83","-13716","-21996","2128","7","150","150.03","115.87","34.16","27.04","45.4","14.21","90452","26.69","DUALSPOT-UV-BLUE-GREEN-RED-IR","794944","723282","903464","7.462810","2.030256","-0.022481","767962","910837","763572","5.155927","1.340198","-0.136734","862635","912330","812755","4.209089","1.019048","-0.383217","853474","932405","863060","3.297880","0.725370","-0.699345","730057","855646","952210","2.495384","0.601402","0.000000","2413","2160","2066","1663","1154","975","1331","708","509","1067","486","322","1142","1100","1142",""
"MA200-0416","22023","62","1","1.10","1.4","2023-05-10T09:40:30","120","2023/05/10","09:40:30","-15.813031494617462","35.00455333292484","1.5","13","30","72","84","-14392","-21784","2116","7","150","150.30","116.09","34.21","27.06","45.5","14.26","90456","26.69","DUALSPOT-UV-BLUE-GREEN-RED-IR","796711","725066","905755","7.495765","2.038892","-0.023892","769848","913222","765582","5.173505","1.341610","-10.652321","864184","914093","814345","4.222727","1.021099","-0.432002","856124","935338","865781","3.307765","0.726545","-0.982688","633881","742983","826846","2.501436","0.601681","0.000000","1667","1482","1414","1122","305","20","975","497","345","854","344","200","728","114","728",""
"MA200-0416","22024","62","1","1.10","1.4","2023-05-10T09:41:00","120","2023/05/10","09:41:00","-15.813373565673828","35.004895333666354","2.1","13","30","64","84","-14200","-21844","2796","7","150","149.83","116.23","33.60","27.06","45.5","14.26","90448","26.69","DUALSPOT-UV-BLUE-GREEN-RED-IR","797355","725850","906816","7.533200","2.049600","-0.001950","765530","908269","761466","5.196440","1.348857","0.021498","863784","913797","814089","4.240024","1.024538","-0.165097","856003","935348","865791","3.318832","0.727248","-333.939209","731191","857088","953833","2.511795","0.604307","0.000000","1891","1871","1864","1462","1599","1646","1235","849","726","955","210","0","1245","1091","1245",""
"MA200-0416","22025","62","1","1.10","1.4","2023-05-10T09:41:30","120","2023/05/10","09:41:30","-15.813815176486969","35.004623000044376","1.8","13","30","64","83","-12936","-22036","3612","7","150","149.63","115.67","33.96","27.09","45.5","14.29","90468","26.75","DUALSPOT-UV-BLUE-GREEN-RED-IR","794877","723770","904267","7.565984","2.058700","-0.010704","763591","906078","759690","5.217421","1.354873","-0.006239","862891","912941","813381","4.256016","1.028430","-0.068412","854688","933950","864531","3.329805","0.729518","-0.182413","730343","856139","952822","2.522152","0.606948","0.000000","1664","1573","1540","1344","1313","1302","1147","951","888","951","670","592","1250","1086","1250",""
"MA200-0416","22026","62","1","1.10","1.4","2023-05-10T09:42:00","120","2023/05/10","09:42:00","-15.814188718795776","35.00422166613862","2.0","13","30","64","84","-13995","-21668","2620","7","150","149.70","116.11","33.59","27.11","45.4","14.28","90484","26.75","DUALSPOT-UV-BLUE-GREEN-RED-IR","797013","725820","906907","7.589176","2.064582","-0.026840","765765","908739","761925","5.229235","1.357238","-0.136136","864065","914257","814569","4.265642","1.030188","-0.221488","856304","935793","866231","3.337486","0.729370","1.119770","731582","857635","954479","2.528265","0.607305","0.000000","1173","1028","974","754","522","440","688","434","353","663","-44","-242","735","148","735",""
"MA200-0416","22027","62","1","1.10","1.4","2023-05-10T09:42:30","120","2023/05/10","09:42:30","-15.814569115638733","35.003842499572784","1.9","13","30","64","83","-14536","-21296","3944","7","150","150.08","115.96","34.12","27.13","45.4","14.31","90484","26.81","DUALSPOT-UV-BLUE-GREEN-RED-IR","793267","722511","902809","7.606554","2.068845","-0.038883","767039","910355","763282","5.242878","1.358402","-4.401736","865300","915665","815832","4.277134","1.031392","-1.311053","850895","929969","860822","3.345650","0.730914","-0.251810","732033","858221","955123","2.533846","0.609071","0.000000","880","733","679","872","252","36","822","292","124","706","453","383","672","723","672",""
"MA200-0416","22028","62","1","1.10","1.4","2023-05-10T09:43:00","120","2023/05/10","09:43:00","-15.814962029457092","35.003408833174035","2.4","13","30","64","84","-15416","-20804","4768","7","150","149.43","115.41","34.02","27.15","45.5","14.35","90468","26.81","DUALSPOT-UV-BLUE-GREEN-RED-IR","799589","728342","910171","7.627393","2.075353","0.009888","767296","910756","763634","5.254716","1.360677","-0.168398","865384","915789","815950","4.284453","1.032178","-1.198409","851794","930992","861803","3.351583","0.730705","0.990396","732248","858497","955445","2.538089","0.608567","0.000000","1060","1123","1147","760","495","403","526","192","85","515","-61","-222","513","-207","513",""
"MA200-0416","22029","62","1","1.10","1.4","2023-05-10T09:43:30","120","2023/05/10","09:43:30","-15.815440952777863","35.00299183302559","2.6","13","30","64","83","-13504","-21812","4120","7","150","149.39","115.59","33.79","27.19","45.6","14.42","90468","26.81","DUALSPOT-UV-BLUE-GREEN-RED-IR","791711","721295","901386","7.646501","2.080625","-0.010949","766233","909569","762689","5.265534","1.363170","-0.075975","864247","914683","814946","4.294306","1.033115","-1.858321","850803","929962","860825","3.357746","0.730323","0.840754","731541","857714","954574","2.544670","0.610490","0.000000","970","916","895","693","546","495","707","230","78","534","-113","-293","795","795","795",""
"MA200-0416","22030","62","1","1.10","1.4","2023-05-10T09:44:00","120","2023/05/10","09:44:00","-15.815996527671814","35.00258566648699","2.4","13","30","64","83","-14220","-21872","2880","7","150","149.63","115.71","33.92","27.21","45.6","14.44","90484","26.88","DUALSPOT-UV-BLUE-GREEN-RED-IR","794922","724326","905237","7.668232","2.086170","-0.028235","768623","912521","765175","5.279452","1.366727","-0.039574","866203","916829","816883","4.305386","1.035881","-0.056481","853419","932897","863542","3.365116","0.730067","0.990330","728885","854653","951193","2.550239","0.610411","0.000000","1103","960","906","891","777","737","795","676","639","638","-75","-273","672","-32","672",""
"MA200-0416","22031","62","1","1.10","1.4","2023-05-10T09:44:30","120","2023/05/10","09:44:30","-15.81643944978714","35.00224799965508","2.1","13","30","64","83","-13808","-21936","1372","7","150","149.63","115.51","34.12","27.24","45.5","14.44","90508","26.94","DUALSPOT-UV-BLUE-GREEN-RED-IR","796036","725482","906739","7.693716","2.093616","-0.001943","769081","913177","765736","5.294424","1.371002","-0.008931","862586","913088","813589","4.315668","1.037341","-0.500370","855556","935276","865750","3.373452","0.732165","-0.068965","729761","855721","952374","2.556432","0.611526","0.000000","1295","1281","1276","960","928","917","738","355","233","723","616","587","748","456","748",""
"MA200-0416","22032","62","1","1.10","1.4","2023-05-10T09:45:00","120","2023/05/10","09:45:00","-15.816758751869202","35.00279733305797","2.9","13","30","64","83","-14004","-21772","3220","7","150","149.96","115.95","34.01","27.27","45.4","14.44","90504","26.94","DUALSPOT-UV-BLUE-GREEN-RED-IR","796642","726153","907673","7.718974","2.102260","0.024151","765254","908710","762045","5.309952","1.374280","-0.114406","862356","912916","813446","4.328161","1.040809","-0.017505","855792","935656","866116","3.382246","0.732475","2.698101","729529","855502","952141","2.564891","0.614310","0.000000","1279","1492","1572","992","714","617","894","846","831","760","91","-93","1019","1143","1019",""
"MA200-0416","22033","62","1","1.10","1.4","2023-05-10T09:45:30","120","2023/05/10","09:45:30","-15.816353678703308","35.003483165986836","3.3","13","30","64","83","-13784","-21792","3392","7","150","150.03","115.59","34.44","27.29","45.2","14.40","90544","27.00","DUALSPOT-UV-BLUE-GREEN-RED-IR","796447","726135","907731","7.747361","2.109918","-0.019248","765032","908582","761942","5.327088","1.379781","0.017784","862811","913516","813979","4.339975","1.042216","-0.866881","850472","929882","860793","3.391632","0.735097","-0.025385","730244","856420","953171","2.574016","0.615772","0.000000","1442","1306","1255","1099","1184","1214","848","339","178","814","764","750","1102","593","1102",""
"MA200-0416","22034","62","1","1.10","1.4","2023-05-10T09:46:00","120","2023/05/10","09:46:00","-15.816259503364563","35.003965499810874","2.5","13","30","64","83","-12624","-22608","3188","7","150","150.14","115.42","34.73","27.32","45.0","14.35","90584","27.00","DUALSPOT-UV-BLUE-GREEN-RED-IR","796540","726361","908076","7.776930","2.118576","-0.004927","765341","909036","762393","5.344832","1.385032","-0.004247","863158","913953","814422","4.354304","1.046669","0.009516","850938","930478","861331","3.401816","0.735950","-3.426310","730238","856460","953259","2.583150","0.618637","0.000000","1504","1464","1449","1139","1120","1114","1030","1064","1075","885","246","69","1105","1152","1105",""
"MA200-0416","22035","62","1","1.10","1.4","2023-05-10T09:46:30","120","2023/05/10","09:46:30","-15.81695556640625","35.004077665973455","2.5","13","30","64","83","-13226","-22592","3353","7","150","150.13","115.53","34.59","27.35","44.7","14.26","90616","27.06","DUALSPOT-UV-BLUE-GREEN-RED-IR","797820","727665","909756","7.801461","2.126148","0.005218","765685","909556","762844","5.359870","1.390033","0.024247","863215","914114","814601","4.365712","1.048832","-0.213521","851778","931427","862264","3.410070","0.737529","-0.250426","730652","856995","953884","2.589990","0.620162","0.000000","1247","1285","1300","964","1071","1109","819","519","424","716","458","386","827","615","827",""
"MA200-0416","22036","62","1","1.10","1.4","2023-05-10T09:47:00","120","2023/05/10","09:47:00","-15.817630767822266","35.00416783289984","2.4","13","30","64","83","-13136","-22012","3232","7","150","150.14","115.59","34.56","27.37","44.4","14.17","90644","27.06","DUALSPOT-UV-BLUE-GREEN-RED-IR","792385","722801","903772","7.825580","2.134199","0.017629","766456","910540","763716","5.372834","1.393711","-0.013848","863695","914662","815127","4.377836","1.053339","0.055393","852486","932267","863050","3.418168","0.740152","0.028078","731075","857543","954521","2.597000","0.621782","0.000000","1225","1368","1421","831","788","773","870","1082","1149","702","761","777","847","654","847",""
"MA200-0416","22037","62","1","1.10","1.4","2023-05-10T09:47:30","120","2023/05/10","09:47:30","-15.818298518657684","35.00424399925396","2.6","13","30","64","83","-13512","-21624","3504","7","150","150.49","116.15","34.34","27.40","44.1","14.09","90676","27.13","DUALSPOT-UV-BLUE-GREEN-RED-IR","793513","723946","905256","7.848191","2.141096","0.005320","767682","912121","765064","5.386382","1.395416","-0.639913","863860","914940","815344","4.387468","1.053636","1.504486","846814","926132","857378","3.425144","0.740469","3.929906","731185","857686","954693","2.603569","0.623214","0.000000","1143","1179","1193","864","368","194","688","71","-122","602","92","-48","790","582","790",""
"MA200-0416","22038","62","1","1.10","1.4","2023-05-10T09:48:00","120","2023/05/10","09:48:00","-15.819003880023956","35.004334666300565","2.6","13","30","64","83","-12992","-22392","3148","7","150","150.23","116.47","33.76","27.42","43.8","14.02","90708","27.13","DUALSPOT-UV-BLUE-GREEN-RED-IR","793397","723980","905343","7.870973","2.146675","-0.034455","767557","912062","765033","5.399531","1.399618","0.022511","864075","915251","815644","4.395908","1.054787","-0.522366","853568","933569","864251","3.432120","0.740385","1.180554","731416","858052","955060","2.609991","0.623626","0.000000","1148","970","903","836","922","952","601","283","182","600","-24","-196","770","170","770",""
"MA200-0416","22039","62","1","1.10","1.4","2023-05-10T09:48:30","120","2023/05/10","09:48:30","-15.819097936153412","35.00479483278468","2.9","13","30","64","83","-13437","-22000","2233","7","150","150.11","116.40","33.71","27.45","43.7","14.01","90752","27.19","DUALSPOT-UV-BLUE-GREEN-RED-IR","794797","725411","907186","7.896250","2.153141","-0.024230","768355","913071","765901","5.414242","1.401727","-0.394748","865248","916572","816855","4.407644","1.056235","-0.699372","855170","935410","865984","3.439628","0.740814","12.947927","732254","859041","956193","2.615722","0.625391","0.000000","1275","1126","1070","936","463","298","837","356","205","647","127","-14","687","731","687",""
"MA200-0416","22040","62","1","1.10","1.4","2023-05-10T09:49:00","120","2023/05/10","09:49:00","-15.819006145000458","35.00547616509721","2.5","13","30","64","83","-15412","-21184","2140","7","150","149.94","115.96","33.98","27.47","43.7","14.01","90728","27.19","DUALSPOT-UV-BLUE-GREEN-RED-IR","793484","724327","905916","7.923330","2.160732","-0.007979","763125","907008","760827","5.431700","1.404785","-0.218416","864506","915905","816266","4.420423","1.057487","-1.581771","853803","933992","864659","3.449249","0.740575","1.050643","727116","853040","949543","2.622249","0.626147","0.000000","1371","1312","1290","1116","667","510","914","305","114","832","-70","-317","786","310","786",""
"MA200-0416","22041","62","1","1.10","1.4","2023-05-10T09:49:30","120","2023/05/10","09:49:30","-15.818800568580627","35.006058998871595","1.9","13","30","64","83","-14436","-21332","3320","7","150","149.83","115.87","33.96","27.50","43.6","14.02","90712","27.19","DUALSPOT-UV-BLUE-GREEN-RED-IR","795545","726383","908548","7.950918","2.167022","-0.055234","764359","908613","762219","5.448741","1.409034","-0.046200","865804","917364","817577","4.433244","1.060473","-0.083371","850243","930196","861140","3.458207","0.741100","15.942645","728248","854457","951129","2.630281","0.627833","0.000000","1398","1088","971","1090","927","871","918","730","670","775","154","-14","968","693","968",""
"MA200-0416","22042","62","1","1.10","1.4","2023-05-10T09:50:00","120","2023/05/10","09:50:00","-15.81853300333023","35.00652549928054","2.0","13","30","64","83","-14446","-21838","2069","7","150","149.43","115.18","34.25","27.53","43.6","14.04","90712","27.25","DUALSPOT-UV-BLUE-GREEN-RED-IR","795477","726441","908676","7.975793","2.173061","-0.042308","764379","908750","762337","5.462331","1.410818","-0.558727","861168","912561","813277","4.444456","1.060908","1.807237","850456","930499","861399","3.466273","0.741613","1099.978760","728368","854638","951338","2.635744","0.628045","0.000000","1268","1035","948","874","386","215","808","105","-114","702","150","0","662","86","662",""
"MA200-0416","22043","62","1","1.10","1.4","2023-05-10T09:50:30","120","2023/05/10","09:50:30","-15.818151116371155","35.0068021658808","1.4","13","30","64","83","-14512","-20512","4488","7","150","149.72","115.58","34.14","27.54","43.6","14.06","90708","27.25","DUALSPOT-UV-BLUE-GREEN-RED-IR","794179","725364","907376","7.999544","2.178489","-0.056399","763243","907483","761305","5.477685","1.414453","-0.066656","864351","916021","816388","4.456568","1.063459","-0.135680","848808","928755","859805","3.474979","0.743163","-0.294116","727305","853416","949962","2.643030","0.629518","0.000000","1207","933","831","984","789","721","870","620","542","755","455","373","880","602","880",""
"MA200-0416","22044","62","1","1.10","1.4","2023-05-10T09:51:00","120","2023/05/10","09:51:00","-15.817726194858551","35.006991332396865","1.5","13","30","64","83","-15644","-20496","-72","7","150","149.51","115.63","33.87","27.57","43.8","14.15","90680","27.31","DUALSPOT-UV-BLUE-GREEN-RED-IR","790354","722034","903261","8.025042","2.184528","-0.044509","765650","910465","763797","5.493039","1.415449","3.903083","861219","912795","813528","4.467786","1.063459","0.940327","850825","931032","861944","3.482490","0.741833","0.563674","728302","854625","951315","2.648325","0.629941","0.000000","1295","1047","954","984","217","-48","805","0","-251","651","-393","-676","639","174","639",""
"MA200-0416","22045","62","1","1.10","1.4","2023-05-10T09:51:30","120","2023/05/10","09:51:30","-15.817421853542328","35.00693349959329","1.1","13","30","64","83","-15780","-20568","1376","7","150","149.96","116.03","33.93","27.59","44.1","14.27","90652","27.31","DUALSPOT-UV-BLUE-GREEN-RED-IR","786551","721752","904625","8.587070","2.352932","0.003819","763604","910019","764033","5.750664","1.480400","-0.039653","860333","913332","814413","4.651892","1.105683","-0.084855","851327","932694","863732","3.616991","0.769120","-0.175996","728549","855627","952607","2.733221","0.646251","0.000000","28450","29150","29415","16459","14190","13403","13173","10331","9445","11629","8068","7106","10221","6714","10221",""
"MA200-0416","22046","62","1","1.10","1.4","2023-05-10T09:52:00","120","2023/05/10","09:52:00","-15.81738156080246","35.00691333273426","0.4","13","30","64","83","-17008","-19562","2337","7","150","149.90","115.75","34.14","27.61","44.1","14.30","90644","27.38","DUALSPOT-UV-BLUE-GREEN-RED-IR","786312","721889","904956","8.723425","2.394718","0.005835","764222","911013","764964","5.825688","1.502477","-0.000554","860139","913321","814471","4.708708","1.121449","-0.017908","850967","932446","863606","3.658416","0.780332","-0.032009","728280","855393","952413","2.762060","0.652026","0.000000","6919","7188","7290","4804","4793","4789","4075","3833","3758","3590","3294","3214","3480","2362","3480",""
"MA200-0416","22047","62","1","1.10","1.4","2023-05-10T09:52:30","120","2023/05/10","09:52:30","-15.817372500896454","35.00691349897534","0.0","13","30","64","83","-15964","-20140","2564","7","150","149.92","115.83","34.09","27.65","44.1","14.33","0","0.00","DUALSPOT-UV-BLUE-GREEN-RED-IR","786283","722317","905774","8.801075","2.416692","-0.006380","764595","911829","765710","5.867352","1.512592","-0.052672","860557","914046","815177","4.739660","1.128756","-0.074077","852299","934136","865154","3.681187","0.785237","-0.140473","729056","856463","953595","2.777528","0.656287","0.000000","3937","3785","3728","2666","2199","2037","2218","1779","1642","1972","1443","1300","1865","1745","1865",""
"MA200-0416","22048","62","1","1.10","1.4","2023-05-10T09:53:00","120","2023/05/10","09:53:00","-15.817022681236267","35.00672599952668","2.3","13","30","64","82","-15748","-20568","3407","7","150","149.90","116.11","33.79","27.68","44.1","14.35","0","0.00","DUALSPOT-UV-BLUE-GREEN-RED-IR","787196","723644","907703","8.912772","2.451692","0.010755","760377","907073","761847","5.923018","1.527345","-0.023059","861049","914800","815913","4.780507","1.137321","-0.121083","853145","935273","866272","3.711067","0.791138","-0.186004","729284","856815","954070","2.796894","0.660639","0.000000","5650","6084","6249","3554","3237","3127","2920","2104","1849","2581","1752","1527","2329","1799","2329",""
"MA200-0416","22049","62","1","1.10","1.4","2023-05-10T09:53:30","120","2023/05/10","09:53:30","-15.816559135913849","35.00650949915871","2.3","13","30","64","82","-15108","-20412","2752","7","150","150.09","115.99","34.10","27.71","44.0","14.36","90576","27.44","DUALSPOT-UV-BLUE-GREEN-RED-IR","788087","724703","909153","8.959295","2.465091","-0.003240","760908","907909","762573","5.950576","1.534133","-0.047002","861728","915686","816725","4.799783","1.141172","-0.151188","848324","930091","861492","3.723584","0.791525","2.240706","730209","858007","955363","2.806907","0.660957","0.000000","2355","2307","2289","1761","1475","1376","1379","937","799","1082","114","-147","1206","130","1206",""
"MA200-0416","22050","62","1","1.10","1.4","2023-05-10T09:54:00","120","2023/05/10","09:54:00","-15.816066980361938","35.006345498841256","1.7","13","30","64","83","-15250","-20553","3076","7","150","149.70","116.11","33.59","27.75","44.1","14.42","90552","27.50","DUALSPOT-UV-BLUE-GREEN-RED-IR","783458","720597","904072","8.988949","2.472416","-0.028094","762450","909906","764293","5.970146","1.537811","-0.149758","857350","911140","812700","4.813319","1.143067","-0.434999","848913","930834","862180","3.733184","0.792759","-0.642158","730452","858315","955764","2.815967","0.664077","0.000000","1500","1280","1197","1249","811","659","967","468","312","829","368","244","1090","1297","1090",""
"MA200-0416","22051","62","1","1.10","1.4","2023-05-10T09:54:30","120","2023/05/10","09:54:30","-15.815783560276031","35.00677299965173","2.3","13","30","64","82","-13731","-20988","4640","7","150","150.01","116.09","33.92","27.79","44.2","14.48","90552","27.50","DUALSPOT-UV-BLUE-GREEN-RED-IR","783496","720926","904581","9.042416","2.485296","-0.035330","762822","910562","764878","6.000729","1.543903","-0.124978","862678","916948","817928","4.837322","1.146900","-0.303058","849676","931776","863037","3.749069","0.793915","-5.362281","730773","858788","956304","2.828069","0.665246","0.000000","2705","2230","2050","1953","1331","1116","1716","938","696","1372","342","65","1456","481","1456",""
"MA200-0416","22052","62","1","1.10","1.4","2023-05-10T09:55:00","120","2023/05/10","09:55:00","-15.815497994422913","35.00733049865812","2.7","13","30","64","83","-14108","-21488","1552","7","150","149.90","116.27","33.63","27.82","44.1","14.49","90560","27.56","DUALSPOT-UV-BLUE-GREEN-RED-IR","785122","722524","906689","9.069103","2.493356","0.006349","763593","911619","765792","6.016748","1.547002","-0.133542","858822","912941","814357","4.847229","1.148110","-0.642219","851847","934217","865300","3.756358","0.793827","1.094041","727211","854633","951700","2.836811","0.667782","0.000000","1348","1407","1430","1021","683","566","707","298","171","629","-26","-202","1050","1053","1050",""
"MA200-0416","22053","62","1","1.10","1.4","2023-05-10T09:55:30","120","2023/05/10","09:55:30","-15.815168559551239","35.0077601657249","2.1","13","30","64","82","-15600","-21184","2027","7","150","150.03","115.87","34.16","27.85","44.0","14.49","90556","27.56","DUALSPOT-UV-BLUE-GREEN-RED-IR","785146","722751","907012","9.093006","2.498861","-0.047511","759241","906548","761584","6.032768","1.551919","0.008707","859352","913631","815001","4.859227","1.151597","-0.003902","852767","935297","866360","3.765732","0.796061","-0.084953","727782","855378","952525","2.843467","0.668949","0.000000","1211","946","846","1024","1067","1081","859","847","843","811","656","614","802","477","802",""
"MA200-0416","22054","62","1","1.10","1.4","2023-05-10T09:56:00","120","2023/05/10","09:56:00","-15.814829170703888","35.00811499916017","1.8","13","30","64","82","-14276","-20772","1696","7","150","149.94","115.79","34.14","27.88","44.0","14.49","90536","27.63","DUALSPOT-UV-BLUE-GREEN-RED-IR","786006","723693","908311","9.134874","2.512041","0.009335","759614","907138","762121","6.059185","1.558452","-0.045782","859493","913896","815250","4.879069","1.154953","-0.259433","847219","929341","860803","3.779030","0.796723","5.231887","728061","855784","953029","2.854984","0.672016","0.000000","2123","2267","2321","1691","1418","1323","1422","816","627","1152","194","-61","1389","1254","1389",""
"MA200-0416","22055","62","1","1.10","1.4","2023-05-10T09:56:30","120","2023/05/10","09:56:30","-15.81446486711502","35.00850133318454","2.0","13","30","64","82","-14580","-21588","1569","7","150","149.85","115.53","34.32","27.91","44.1","14.56","90540","27.63","DUALSPOT-UV-BLUE-GREEN-RED-IR","786498","724299","909136","9.161300","2.518295","-0.042528","760320","908139","762960","6.077102","1.560478","-0.823523","859564","914066","815422","4.893404","1.156312","-1.679796","847219","929404","860896","3.789689","0.797760","-1.516465","727782","855538","952769","2.865034","0.673582","0.000000","1343","1070","966","1149","437","191","1030","328","111","925","303","137","1215","637","1215",""
"MA200-0416","22056","62","1","1.10","1.4","2023-05-10T09:57:00","120","2023/05/10","09:57:00","-15.814079344272614","35.00887049827725","2.3","14","30","64","82","-13548","-22256","1416","7","150","149.59","116.38","33.21","27.97","44.1","14.63","90540","27.69","DUALSPOT-UV-BLUE-GREEN-RED-IR","782295","720577","904526","9.189312","2.527740","0.021785","761541","909702","764297","6.092893","1.564443","-0.031641","860527","915190","816425","4.904783","1.157957","-0.371919","848131","930499","861902","3.796485","0.797117","0.647437","728777","856720","954078","2.871055","0.674020","0.000000","1413","1670","1767","1005","885","843","811","411","287","585","-194","-401","722","184","722",""
"MA200-0416","22057","62","1","1.10","1.4","2023-05-10T09:57:30","120","2023/05/10","09:57:30","-15.813707649707794","35.00930966436863","1.8","14","30","64","82","-14516","-21240","2684","7","150","150.49","116.27","34.22","27.98","44.1","14.64","90544","27.69","DUALSPOT-UV-BLUE-GREEN-RED-IR","782789","721180","905329","9.215878","2.533979","-0.041942","762052","910392","764932","6.110374","1.568239","-0.089238","856360","910852","812576","4.917419","1.160871","-0.080372","848902","931407","862763","3.805293","0.798315","-0.560395","728659","856641","954027","2.879345","0.676929","0.000000","1342","1070","967","1114","822","721","902","707","646","759","351","242","995","1187","995",""
"MA200-0416","22058","62","1","1.10","1.4","2023-05-10T09:58:00","120","2023/05/10","09:58:00","-15.813397824764252","35.00972999818623","2.0","14","30","64","82","-15908","-20624","1340","7","150","150.29","116.07","34.22","27.99","44.1","14.64","90500","27.75","DUALSPOT-UV-BLUE-GREEN-RED-IR","782069","720680","904813","9.248158","2.542417","-0.020049","761017","909347","764078","6.129223","1.572668","-0.061310","860463","915345","816605","4.932814","1.162188","-2.638806","848211","930757","862143","3.816088","0.798905","8.934362","728361","856382","953727","2.887943","0.676875","0.000000","1633","1448","1377","1203","959","875","1101","319","78","933","173","-28","1034","-22","1034",""
"MA200-0416","22059","62","1","1.10","1.4","2023-05-10T09:58:30","120","2023/05/10","09:58:30","-15.813058197498322","35.010117998346686","1.6","14","30","64","82","-16056","-20308","3008","7","150","150.05","115.94","34.11","28.03","44.1","14.67","90448","27.75","DUALSPOT-UV-BLUE-GREEN-RED-IR","783545","722210","906795","9.280792","2.551891","-0.001985","762938","911803","766155","6.150397","1.576412","-0.188101","861002","916056","817252","4.948080","1.164137","-0.575186","850784","933672","864915","3.827054","0.799852","-2.178450","729364","857625","955102","2.896528","0.678601","0.000000","1653","1631","1623","1353","813","627","1093","474","284","948","278","101","1034","707","1034",""
"MA200-0416","22060","62","1","1.10","1.4","2023-05-10T09:59:00","120","2023/05/10","09:59:00","-15.81274300813675","35.01044616475701","1.6","14","30","64","82","-17588","-18860","3040","7","150","149.53","115.87","33.66","28.08","44.2","14.73","90380","27.81","DUALSPOT-UV-BLUE-GREEN-RED-IR","784595","723386","908357","9.315964","2.561535","-0.008997","758625","906772","761967","6.170510","1.581363","-0.041794","861379","916543","817739","4.963052","1.166784","-0.211256","851318","934340","865492","3.837440","0.800502","-29.923264","729495","857860","955408","2.906900","0.681348","0.000000","1782","1682","1645","1286","1090","1023","1072","652","523","899","193","7","1250","1140","1250",""
"MA200-0416","22061","62","1","1.10","1.4","2023-05-10T09:59:30","120","2023/05/10","09:59:30","-15.812348306179047","35.01031733117998","1.7","14","30","64","82","-14136","-20968","3771","7","150","149.63","116.15","33.48","28.11","44.1","14.74","90352","27.81","DUALSPOT-UV-BLUE-GREEN-RED-IR","784077","723616","908978","9.422475","2.589290","-0.016193","758361","906945","762281","6.230011","1.596193","-0.035722","857363","912583","814308","5.002230","1.176732","-0.036900","846500","929226","860835","3.859645","0.804954","-0.161966","725899","853723","950862","2.922588","0.684827","0.000000","5386","4869","4673","3797","3283","3106","2800","2466","2364","1918","1334","1180","1886","1451","1886",""
"MA200-0416","22062","62","1","1.10","1.4","2023-05-10T10:00:00","120","2023/05/10","10:00:00","-15.81193631887436","35.0101486640051","1.6","14","30","64","82","-13023","-22856","2752","7","150","150.01","115.92","34.09","28.15","44.1","14.78","90340","27.88","DUALSPOT-UV-BLUE-GREEN-RED-IR","779549","719732","904270","9.507805","2.611332","-0.021183","760116","909239","764267","6.275079","1.607471","-0.039922","857926","913380","815003","5.033707","1.183312","-0.120703","847448","930386","861926","3.877818","0.807815","-0.366324","726160","854106","951290","2.937378","0.687813","0.000000","4323","3797","3598","2882","2452","2304","2254","1602","1402","1572","842","649","1782","1223","1782",""
"MA200-0416","22063","62","1","1.10","1.4","2023-05-10T10:00:30","120","2023/05/10","10:00:30","-15.811498522758484","35.00995216425508","1.3","14","30","64","82","-13550","-21962","3887","7","150","149.33","115.63","33.69","28.19","44.3","14.87","90352","27.94","DUALSPOT-UV-BLUE-GREEN-RED-IR","780301","720712","905591","9.555450","2.622087","-0.047121","760188","909592","764584","6.302579","1.611303","-0.371979","858556","914211","815812","5.053883","1.186143","-0.415371","849138","932422","863761","3.889482","0.806927","0.691848","727035","855209","952516","2.946399","0.688943","0.000000","2420","1874","1668","1762","843","527","1448","697","467","1012","-264","-598","1089","468","1089",""
"MA200-0416","22064","62","1","1.10","1.4","2023-05-10T10:01:00","120","2023/05/10","10:01:00","-15.81142383813858","35.00967599824071","1.4","15","30","64","82","-11500","-23360","1927","7","150","149.57","115.87","33.69","28.23","44.4","14.96","90380","28.00","DUALSPOT-UV-BLUE-GREEN-RED-IR","779336","720271","905160","9.639482","2.639265","-0.071796","759751","909370","764460","6.348951","1.618843","-0.228295","857448","913259","814969","5.084538","1.189606","-0.778481","847732","930958","862458","3.908618","0.809198","-0.753285","725836","853912","951095","2.961414","0.691398","0.000000","4259","2994","2517","2966","1658","1211","2196","853","442","1656","676","420","1810","1017","1810",""
"MA200-0416","22065","62","1","1.10","1.4","2023-05-10T10:01:30","120","2023/05/10","10:01:30","-15.811421632766724","35.009311497211456","1.6","15","30","64","82","-15508","-21044","2972","7","150","149.51","115.59","33.91","28.28","44.4","15.01","90392","28.00","DUALSPOT-UV-BLUE-GREEN-RED-IR","782626","723507","909335","9.673574","2.650533","0.015355","762323","912623","767225","6.369788","1.624565","-0.014748","859290","915342","816860","5.097872","1.191764","-0.276575","851068","934722","865922","3.916599","0.808936","0.891298","727959","856458","953985","2.969972","0.694001","0.000000","1732","1951","2034","1336","1250","1221","957","528","397","692","-77","-278","1034","1072","1034",""
"MA200-0416","22066","62","1","1.10","1.4","2023-05-10T10:02:00","120","2023/05/10","10:02:00","-15.811020314693451","35.00881749764085","2.3","15","30","64","82","-15516","-20176","3236","7","150","149.83","115.67","34.16","28.32","44.5","15.07","90344","28.06","DUALSPOT-UV-BLUE-GREEN-RED-IR","777962","719356","904148","9.706404","2.657243","-0.075799","758555","908235","763564","6.388014","1.627235","-0.326681","860250","916489","817875","5.111557","1.192032","1.094503","845992","929248","860825","3.925017","0.808251","0.674868","728457","857100","954733","2.980064","0.695836","0.000000","1666","1153","960","1168","579","378","982","65","-213","730","-201","-442","1218","750","1218",""
"MA200-0416","22067","62","1","1.10","1.4","2023-05-10T10:02:30","120","2023/05/10","10:02:30","-15.81051242351532","35.00873099733144","0.0","15","30","64","81","-14036","-21760","2924","7","150","149.98","115.96","34.02","28.37","44.5","15.12","90320","28.06","DUALSPOT-UV-BLUE-GREEN-RED-IR","776447","718214","902863","9.755932","2.671163","-0.006297","757917","907641","763121","6.413239","1.633167","-0.056592","855000","911010","813007","5.127967","1.195025","-0.189884","845331","928586","860234","3.935934","0.808733","3.936684","727848","856477","954045","2.990236","0.697627","0.000000","2508","2403","2363","1612","1292","1183","1174","730","595","944","142","-65","1225","735","1225",""
"MA200-0416","22068","62","1","1.10","1.4","2023-05-10T10:03:00","120","2023/05/10","10:03:00","-15.81004786491394","35.00983299780637","3.7","15","30","64","82","-13784","-21180","5316","7","150","150.08","115.67","34.41","28.42","44.4","15.12","90312","28.13","DUALSPOT-UV-BLUE-GREEN-RED-IR","780064","721769","907456","9.794903","2.683307","0.006282","760531","910926","765922","6.435686","1.639091","-0.027696","856990","913251","815029","5.144376","1.198941","-0.067533","849267","933047","864365","3.946124","0.809508","-3.736552","725413","853653","950934","3.000238","0.699632","-0.246377","1978","2073","2108","1438","1276","1221","1177","944","874","883","225","56","1207","814","694",""
"MA200-0416","22069","62","1","1.10","1.4","2023-05-10T10:03:30","120","2023/05/10","10:03:30","-15.809582710266113","35.010809829458594","4.3","15","30","64","82","-14980","-21276","3212","7","150","149.32","115.90","33.41","28.46","44.3","15.12","90268","28.19","DUALSPOT-UV-BLUE-GREEN-RED-IR","781580","723326","909484","9.827801","2.692566","-0.003439","756842","906634","762366","6.456313","1.643413","-0.089563","857899","914343","816021","5.159867","1.199483","1.534502","850478","934445","865682","3.957409","0.810503","-1.731368","726087","854523","951919","3.011753","0.701186","-0.750930","1667","1627","1612","1319","958","835","1109","134","-160","976","298","124","1387","649","425",""
"MA200-0416","22070","62","1","1.10","1.4","2023-05-10T10:04:00","120","2023/05/10","10:04:00","-15.809118092060089","35.01184399891645","4.9","15","30","64","82","-13080","-22303","2803","7","150","149.76","115.71","34.05","28.52","44.0","15.08","90248","28.25","DUALSPOT-UV-BLUE-GREEN-RED-IR","776461","718792","903916","9.865355","2.703930","0.003804","757725","907872","763448","6.478842","1.649820","-0.007291","858201","914817","816501","5.175739","1.203005","-0.091122","851862","936067","867197","3.969471","0.811851","-0.893354","726630","855287","952776","3.023191","0.703935","-0.103761","1906","1960","1980","1443","1394","1378","1138","858","773","1045","396","230","1380","1127","1051",""
"MA200-0416","22071","62","1","1.10","1.4","2023-05-10T10:04:30","120","2023/05/10","10:04:30","-15.809369087219238","35.012672998942435","3.3","15","30","64","82","-12808","-22268","4004","7","150","150.09","115.83","34.26","28.57","43.8","15.04","90288","28.31","DUALSPOT-UV-BLUE-GREEN-RED-IR","777187","719768","905285","9.923876","2.721828","0.004506","758156","908653","764185","6.519072","1.659816","-0.041917","859085","915973","817581","5.208957","1.211863","-0.028280","847208","931161","862682","3.994569","0.816572","-0.211298","727184","856057","953701","3.045873","0.710349","-0.020035","2967","3068","3106","2574","2162","2022","2380","2146","2075","2173","1382","1178","2735","2614","2578",""
"MA200-0416","22072","62","1","1.10","1.4","2023-05-10T10:05:00","120","2023/05/10","10:05:00","-15.809208750724792","35.01377866603434","5.8","15","30","64","82","-9324","-24984","3692","7","150","149.51","116.11","33.40","28.62","43.5","14.98","90316","28.38","DUALSPOT-UV-BLUE-GREEN-RED-IR","777191","721091","907685","10.169113","2.796102","0.006700","758140","909924","765688","6.701074","1.713884","0.006311","854123","911734","814159","5.357909","1.253640","-0.006259","847204","932042","863809","4.111239","0.847643","-0.025022","727400","856885","954830","3.129287","0.731705","-0.053472","12405","13063","13312","11620","12002","12133","10650","10385","10305","10081","9334","9140","10035","8933","8597",""
"MA200-0416","22073","62","1","1.10","1.4","2023-05-10T10:05:30","120","2023/05/10","10:05:30","-15.809670269489288","35.01348433177918","3.5","14","30","64","82","-12858","-22550","3429","7","150","149.90","115.59","34.30","28.69","43.2","14.95","90320","28.44","DUALSPOT-UV-BLUE-GREEN-RED-IR","777646","722038","909136","10.275729","2.825847","-0.008758","753642","904951","761651","6.776851","1.733850","-0.026178","854597","912653","815080","5.421990","1.269578","-0.049419","849148","934511","866207","4.161624","0.858730","-0.116094","727880","857697","955840","3.167673","0.741709","-0.059684","5417","5093","4970","4859","4314","4127","4602","3857","3629","4373","3242","2948","4638","4074","3901",""
"MA200-0416","22074","62","1","1.10","1.4","2023-05-10T10:06:00","120","2023/05/10","10:06:00","-15.809839487075806","35.01335833314806","3.5","14","30","64","82","-14500","-19572","7196","7","150","150.29","115.79","34.50","28.74","43.0","14.94","90324","28.44","DUALSPOT-UV-BLUE-GREEN-RED-IR","772752","717745","903863","10.341114","2.845884","0.003656","755126","907008","763435","6.822613","1.745039","-0.046562","855275","913582","815966","5.459321","1.277375","-0.117322","843282","928221","860355","4.189897","0.863814","-0.238085","723822","853043","950700","3.192892","0.747195","-0.170469","3316","3411","3447","2929","2404","2223","2676","1876","1631","2449","1478","1226","3042","2221","1970",""
"MA200-0416","22075","62","1","1.10","1.4","2023-05-10T10:06:30","120","2023/05/10","10:06:30","-15.80987936258316","35.01302633155137","1.3","14","30","64","82","-11291","-23016","3012","7","150","149.66","116.04","33.62","28.79","42.9","14.95","90324","28.50","DUALSPOT-UV-BLUE-GREEN-RED-IR","772363","718734","905809","10.603454","2.924125","0.003697","754683","907838","764612","7.032628","1.805805","-0.000227","854205","913637","816442","5.638986","1.327663","-0.008199","844097","930131","862498","4.337545","0.903463","-0.023417","723735","853617","951624","3.304540","0.778527","-0.012902","13278","13670","13820","13416","13400","13395","12854","12419","12286","12765","11833","11588","13440","13020","12890",""
"MA200-0416","22076","62","1","1.10","1.4","2023-05-10T10:07:00","120","2023/05/10","10:07:00","-15.809895515441895","35.01304949820042","0.1","14","30","64","81","-12788","-22400","3212","7","150","150.03","116.27","33.76","28.85","42.9","14.99","90328","28.56","DUALSPOT-UV-BLUE-GREEN-RED-IR","772937","719689","907244","10.683752","2.944814","-0.017235","755708","909426","766030","7.082639","1.815109","-0.131939","854677","914489","817273","5.681336","1.334834","-0.210710","845382","931844","864094","4.372421","0.907707","-0.628251","724231","854448","952594","3.333648","0.783020","-0.473579","4056","3599","3425","3188","2043","1648","3023","1763","1376","3009","1261","803","3497","1859","1356",""
"MA200-0416","22077","62","1","1.10","1.4","2023-05-10T10:07:30","120","2023/05/10","10:07:30","-15.809903860092163","35.01305499859154","0.0","14","30","64","81","-12831","-22480","2848","7","150","150.03","115.99","34.04","28.90","42.9","15.04","90328","28.63","DUALSPOT-UV-BLUE-GREEN-RED-IR","773931","721043","909142","10.758711","2.965902","-0.005624","751804","905100","762459","7.129351","1.824920","-0.086709","850705","910505","813758","5.719393","1.341915","-0.160192","846618","933477","865680","4.403301","0.911349","-0.696979","724754","855241","953517","3.359821","0.787883","-0.273726","3795","3638","3579","2985","2136","1844","2724","1727","1421","2671","1073","656","3152","1996","1642",""
"MA200-0416","22078","62","1","1.10","1.4","2023-05-10T10:08:00","120","2023/05/10","10:08:00","-15.809907495975494","35.013044831342995","0.0","15","30","64","81","-12851","-22340","3644","7","150","149.70","116.27","33.43","28.94","42.9","15.08","90328","28.69","DUALSPOT-UV-BLUE-GREEN-RED-IR","770021","717661","905000","10.819061","2.981454","-0.015436","752664","906386","763566","7.167909","1.832717","-0.092449","851257","911310","814499","5.751270","1.345955","-0.469938","847716","934871","866973","4.429742","0.915032","-0.418545","725335","856091","954490","3.385322","0.793173","-0.168844","3048","2732","2612","2458","1729","1478","2276","1003","614","2281","1105","799","3063","2210","1949",""
"MA200-0416","22079","62","1","1.10","1.4","2023-05-10T10:08:30","120","2023/05/10","10:08:30","-15.809926569461823","35.013046332634985","0.1","15","30","64","81","-12851","-22420","3104","7","150","150.16","116.35","33.81","28.99","43.0","15.13","90332","28.75","DUALSPOT-UV-BLUE-GREEN-RED-IR","768507","716425","903537","10.860018","2.994100","0.007310","751351","904989","762441","7.192619","1.837604","-0.104508","851059","911254","814494","5.772906","1.350474","-0.100562","841462","928123","860696","4.443665","0.914586","0.790183","720614","850594","948392","3.398752","0.793785","3.226030","2067","2196","2245","1574","1071","898","1543","1109","976","1200","-132","-478","1612","252","-161",""
"MA200-0416","22080","62","1","1.10","1.4","2023-05-10T10:09:00","120","2023/05/10","10:09:00","-15.809894680976868","35.013024664483964","0.0","15","30","64","81","-12911","-22534","3588","7","150","149.61","116.25","33.36","29.03","43.0","15.18","90336","28.81","DUALSPOT-UV-BLUE-GREEN-RED-IR","772500","720337","908539","10.891905","3.003599","0.004581","754091","908425","765364","7.212289","1.842659","-0.022659","853083","913558","816573","5.786567","1.351421","-16.356920","845318","932474","864732","4.454675","0.913751","0.604774","722454","852853","950912","3.409078","0.795312","-0.503430","1611","1672","1695","1254","1123","1078","975","235","10","950","-250","-560","1240","639","456",""
"MA200-0416","22081","62","1","1.10","1.4","2023-05-10T10:09:30","120","2023/05/10","10:09:30","-15.809871971607208","35.01303666550666","0.3","15","30","64","81","-14066","-21654","3004","7","150","149.83","115.99","33.84","29.07","42.9","15.19","90332","28.81","DUALSPOT-UV-BLUE-GREEN-RED-IR","772897","721278","910051","10.999874","3.033481","-0.006934","750570","904596","762275","7.275137","1.856582","-0.065598","853459","914322","817331","5.839729","1.362329","-0.108084","846263","933838","866105","4.497756","0.922256","-0.152375","723077","853887","952126","3.445472","0.802570","-0.203847","5467","5186","5079","4016","3050","2719","3805","2676","2332","3726","2521","2210","4383","2996","2574",""
"MA200-0416","22082","62","1","1.10","1.4","2023-05-10T10:10:00","120","2023/05/10","10:10:00","-15.809736907482147","35.012912831269205","1.7","15","30","64","82","-12984","-22640","2772","7","150","150.11","116.28","33.83","29.12","42.7","15.14","90316","28.88","DUALSPOT-UV-BLUE-GREEN-RED-IR","768083","717101","904896","11.060509","3.051065","-0.000389","750935","905315","762931","7.311971","1.865266","-0.046672","849412","910226","813701","5.870109","1.369493","-0.055878","841419","928619","861299","4.522121","0.926261","-0.266928","723571","854586","952934","3.466203","0.805349","-0.680841","3062","3053","3049","2348","1903","1750","2169","1758","1633","2102","1187","952","2490","1147","741",""
"MA200-0416","22083","62","1","1.10","1.4","2023-05-10T10:10:30","120","2023/05/10","10:10:30","-15.809580743312836","35.01352816540748","7.2","15","30","64","80","-13904","-21780","2972","7","150","149.53","115.97","33.55","29.17","42.4","15.09","90328","28.94","DUALSPOT-UV-BLUE-GREEN-RED-IR","766679","716021","903670","11.105400","3.063203","-0.008950","750129","904510","762306","7.339394","1.872301","-0.024474","848793","909731","813308","5.891484","1.373916","-0.100284","840112","927393","860152","4.539791","0.929051","-0.293563","722654","853574","951857","3.479459","0.807396","-0.443920","2273","2124","2068","1752","1554","1486","1530","1094","961","1528","834","655","1596","852","627",""
"MA200-0416","22084","62","1","1.10","1.4","2023-05-10T10:11:00","120","2023/05/10","10:11:00","-15.808833658695221","35.01585299894214","8.4","15","30","64","81","-13576","-22588","6584","7","150","150.42","116.25","34.17","29.21","42.2","15.04","90284","28.94","DUALSPOT-UV-BLUE-GREEN-RED-IR","770104","719532","908340","11.169430","3.084224","0.012451","752898","908150","765483","7.381935","1.884954","0.002136","850214","911480","814958","5.923093","1.381342","-0.059847","842650","930351","862934","4.562593","0.932282","-0.408804","724252","855626","954195","3.501220","0.812767","-0.075424","3235","3613","3757","2712","2745","2756","2257","1804","1666","1967","948","686","2614","2195","2068",""
"MA200-0416","22085","62","1","1.10","1.4","2023-05-10T10:11:30","120","2023/05/10","10:11:30","-15.809043228626251","35.01618683151901","0.1","15","30","64","81","-14251","-21096","1376","7","150","149.90","116.51","33.39","29.26","41.8","14.94","90292","29.00","DUALSPOT-UV-BLUE-GREEN-RED-IR","770084","720199","909445","11.272421","3.111692","-0.009400","748497","903415","761645","7.450990","1.902019","-0.030437","850118","911864","815425","5.979633","1.394402","-0.056645","843435","931625","864217","4.605548","0.941413","-0.104330","724285","855936","954626","3.533994","0.820052","-0.116781","5192","4832","4694","4393","3788","3581","4029","3247","3009","3698","2743","2498","3929","3048","2781",""
"MA200-0416","22086","62","1","1.10","1.4","2023-05-10T10:12:00","120","2023/05/10","10:12:00","-15.809041619300842","35.016182497143745","0.0","15","30","64","81","-14392","-21260","2027","7","150","150.49","116.04","34.45","29.31","41.6","14.90","90292","29.06","DUALSPOT-UV-BLUE-GREEN-RED-IR","768118","720252","910377","11.654060","3.211349","-0.017091","747113","903455","762098","7.709727","1.963090","-0.049159","849111","912219","816110","6.194031","1.441812","-0.080406","843945","933352","866103","4.776661","0.978243","-0.110625","724117","856550","955525","3.659483","0.846139","-0.174568","19316","16992","16108","16529","13142","11986","15339","11426","10239","14793","10726","9679","15106","10579","9217",""
"MA200-0416","22087","62","1","1.10","1.4","2023-05-10T10:12:30","120","2023/05/10","10:12:30","-15.80907154083252","35.01618283055723","0.0","15","30","64","81","-14387","-21328","3092","7","150","150.09","116.04","34.04","29.36","41.5","14.91","90292","29.13","DUALSPOT-UV-BLUE-GREEN-RED-IR","763199","715937","905055","11.719038","3.230638","0.001379","748135","904899","763411","7.748059","1.972930","-0.026001","849965","913360","817181","6.225252","1.448273","-0.100085","845522","935297","867954","4.800054","0.981086","-0.581500","720248","852051","950569","3.678026","0.850369","-0.110739","3288","3327","3342","2448","2142","2038","2233","1575","1376","2022","837","533","2232","1735","1586",""
"MA200-0416","22088","62","1","1.10","1.4","2023-05-10T10:13:00","120","2023/05/10","10:13:00","-15.809083580970764","35.01617616415024","0.0","15","30","64","81","-14326","-21411","2780","7","150","150.36","116.47","33.89","29.41","41.3","14.90","90296","29.19","DUALSPOT-UV-BLUE-GREEN-RED-IR","765065","717860","907576","11.750450","3.239395","-0.005227","749189","906290","764614","7.769263","1.978397","-0.023229","846058","909235","813517","6.241071","1.450240","-0.470946","840728","930110","863124","4.812439","0.980723","0.750917","720969","853014","951661","3.689874","0.851858","-0.766242","1584","1517","1492","1349","1195","1143","1127","481","286","1066","-107","-408","1421","613","371",""
"MA200-0416","22089","62","1","1.10","1.4","2023-05-10T10:13:30","120","2023/05/10","10:13:30","-15.80906856060028","35.01617566682398","0.0","15","30","64","81","-14323","-21373","2173","7","150","150.35","116.42","33.93","29.45","41.3","14.91","90292","29.19","DUALSPOT-UV-BLUE-GREEN-RED-IR","766441","719352","909616","11.791395","3.253667","0.018059","745810","902447","761387","7.794876","1.983869","-0.071594","846906","910326","814491","6.261617","1.454549","-0.091879","841196","930736","863728","4.826624","0.982713","-0.386566","721119","853290","951991","3.703247","0.855503","-0.024880","2065","2470","2624","1630","1195","1046","1465","1054","930","1222","588","426","1604","1500","1469",""
"MA200-0416","22090","62","1","1.10","1.4","2023-05-10T10:14:00","120","2023/05/10","10:14:00","-15.809065818786621","35.01617783308029","0.0","15","30","64","80","-14184","-21320","3148","7","150","151.95","116.63","35.32","29.50","41.2","14.93","90296","29.25","DUALSPOT-UV-BLUE-GREEN-RED-IR","765406","718607","908754","11.832615","3.264551","-0.018170","745040","901654","760805","7.821847","1.989603","-0.085126","845858","909367","813686","6.281441","1.457172","-0.437637","840715","930325","863378","4.841814","0.984126","-1.379249","720626","852781","951435","3.716045","0.856952","-1.174713","2075","1809","1708","1714","1203","1029","1411","616","376","1306","401","170","1532","573","285",""
"MA200-0416","22091","62","1","1.10","1.4","2023-05-10T10:14:30","120","2023/05/10","10:14:30","-15.809073209762573","35.016173496842384","0.0","15","30","64","81","-14468","-21412","2248","7","150","150.28","115.92","34.36","29.54","41.2","14.98","90292","29.31","DUALSPOT-UV-BLUE-GREEN-RED-IR","759148","714004","903553","12.001986","3.311084","-0.009375","745828","903812","762978","7.940296","2.019863","-0.028667","847133","911688","816045","6.374264","1.480036","-0.044310","837562","927624","861064","4.911187","0.998914","-0.110935","722374","855392","954545","3.768291","0.870106","-0.064684","8582","7953","7714","7575","6527","6170","6648","5523","5183","6004","4317","3886","6296","5347","5062",""
