"Serial number","Datum ID","Session ID","Data format version","Firmware version","App version","Date / time local","Timezone offset (mins)","Date local (yyyy/MM/dd)","Time local (hh:mm:ss)","GPS lat (ddmm.mmmmm)","GPS long (dddmm.mmmmm)","GPS speed (km/h)","GPS sat count","Timebase (s)","Status","Battery remaining (%)","Accel X","Accel Y","Accel Z","Tape position","Flow setpoint (mL/min)","Flow total (mL/min)","Flow1 (mL/min)","Flow2 (mL/min)","Sample temp (C)","Sample RH (%)","Sample dewpoint (C)","Internal pressure (Pa)","Internal temp (C)","Optical config","UV Sen1","UV Sen2","UV Ref","UV ATN1","UV ATN2","UV K","Blue Sen1","Blue Sen2","Blue Ref","Blue ATN1","Blue ATN2","Blue K","Green Sen1","Green Sen2","Green Ref","Green ATN1","Green ATN2","Green K","Red Sen1","Red Sen2","Red Ref","Red ATN1","Red ATN2","Red K","IR Sen1","IR Sen2","IR Ref","IR ATN1","IR ATN2","IR K","UV BC1","UV BC2","UV BCc","Blue BC1","Blue BC2","Blue BCc","Green BC1","Green BC2","Green BCc","Red BC1","Red BC2","Red BCc","IR BC1","IR BC2","IR BCc","Readable status"
"MA200-0416","21358","60","1","1.10","1.4","2023-05-09T08:53:00","120","2023/05/09","08:53:00","0","0","0.0","1","30","74","92","-4220","24032","-2016","5","150","149.55","114.88","34.67","26.06","55.1","16.35","89652","25.00","DUALSPOT-UV-BLUE-GREEN-RED-IR","748986","641720","783793","0.000000","0.000000","0.000000","816823","926266","764895","0.000000","0.000000","0.000000","908333","924969","813710","0.000000","0.000000","0.000000","893861","946460","867225","0.000000","0.000000","0.000000","753737","865554","952025","0.000000","0.000000","0.000000","","","","","","","","","","","","","","","","Start up"
"MA200-0416","21359","60","1","1.10","1.4","2023-05-09T08:53:30","120","2023/05/09","08:53:30","0","0","0.0","4","30","66","92","-4232","24008","-1452","5","150","149.32","115.11","34.21","26.08","53.9","16.03","89652","25.19","DUALSPOT-UV-BLUE-GREEN-RED-IR","866294","742588","907268","0.000000","0.000000","0.000000","813368","922601","762106","0.000000","0.000000","0.000000","908205","925029","814024","0.000000","0.000000","0.000000","889476","941996","863360","0.000000","0.000000","0.000000","749549","860926","947140","0.000000","0.000000","0.000000","","","","","","","","","","","","","","","","Start up"
"MA200-0416","21360","60","1","1.10","1.4","2023-05-09T08:54:00","120","2023/05/09","08:54:00","0","0","0.0","5","30","66","92","-3136","24348","-2300","5","150","151.01","115.63","35.38","26.10","53.1","15.79","89656","25.38","DUALSPOT-UV-BLUE-GREEN-RED-IR","861904","739167","903258","0.000000","0.000000","0.000000","814039","923659","763076","0.000000","0.000000","0.000000","910323","927415","816221","0.000000","0.000000","0.000000","885901","938386","860142","0.000000","0.000000","0.000000","752015","863905","950431","0.000000","0.000000","0.000000","","","","","","","","","","","","","","","","Start up"
"MA200-0416","21361","60","1","1.10","1.4","2023-05-09T08:54:30","120","2023/05/09","08:54:30","0","0","0.0","6","30","66","92","-4548","24076","-2096","5","150","149.87","115.71","34.16","26.13","52.5","15.66","89728","25.50","DUALSPOT-UV-BLUE-GREEN-RED-IR","867634","744422","909810","0.000000","0.000000","0.000000","814375","924215","763628","0.000000","0.000000","0.000000","908063","925297","814436","0.000000","0.000000","0.000000","890797","943695","865095","0.000000","0.000000","0.000000","754592","866983","953879","0.000000","0.000000","0.000000","","","","","","","","","","","","","","","","Start up"
"MA200-0416","21362","60","1","1.10","1.4","2023-05-09T08:55:00","120","2023/05/09","08:55:00","0","0","0.0","6","30","66","91","-5344","23880","-2556","5","150","149.62","115.88","33.74","26.16","52.0","15.52","89856","25.63","DUALSPOT-UV-BLUE-GREEN-RED-IR","861700","739675","904131","0.000000","0.000000","0.000000","814244","924311","763807","0.000000","0.000000","0.000000","909186","926606","815676","0.000000","0.000000","0.000000","892060","945194","866503","0.000000","0.000000","0.000000","751030","862989","949496","0.000000","0.000000","0.000000","","","","","","","","","","","","","","","","Start up"
"MA200-0416","21363","60","1","1.10","1.4","2023-05-09T08:55:30","120","2023/05/09","08:55:30","-15.786428332328796","35.032118659466505","3.8","6","30","64","91","-3916","24852","756","5","150","149.45","115.71","33.73","26.18","51.6","15.42","89952","25.69","DUALSPOT-UV-BLUE-GREEN-RED-IR","866068","743729","909264","0.000000","0.000000","0.000000","812585","922666","762544","0.000000","0.000000","0.000000","906798","924410","813784","0.000000","0.000000","0.000000","889984","943159","864734","0.000000","0.000000","0.000000","753562","866042","952902","0.000000","0.000000","0.000000","","","","","","","","","","","","","","","",""
"MA200-0416","21364","60","1","1.10","1.4","2023-05-09T08:56:00","120","2023/05/09","08:56:00","-15.785899043083191","35.032674331218004","4.6","7","30","64","91","-988","24504","-5412","5","150","150.09","115.91","34.18","26.20","51.2","15.31","89860","25.69","DUALSPOT-UV-BLUE-GREEN-RED-IR","867298","745118","911085","0.058132","0.015800","0.000000","813400","923886","763610","0.038379","0.009346","0.000000","907367","925204","814552","0.031190","0.008916","0.000000","891595","945047","866494","0.023818","0.007748","0.000000","754724","867445","954502","0.015222","0.004894","0.000000","2945","2714","2945","2454","2026","2454","2234","2165","2234","2061","2274","2061","1834","2000","1834",""
"MA200-0416","21365","60","1","1.10","1.4","2023-05-09T08:56:30","120","2023/05/09","08:56:30","-15.786077201366425","35.03389599174261","4.9","8","30","64","91","-2208","24132","-3118","5","150","150.69","116.27","34.42","26.23","50.9","15.25","89748","25.75","DUALSPOT-UV-BLUE-GREEN-RED-IR","862862","741678","906950","0.115859","0.027374","0.000000","810490","920819","761157","0.075972","0.019676","0.000000","908009","926039","815361","0.060129","0.015807","0.000000","892438","946103","867510","0.045418","0.012582","0.000000","754942","867786","954934","0.031599","0.007976","0.000000","2916","1974","2916","2396","2224","2396","2066","1661","2066","1863","1409","1863","1967","1250","1967",""
"MA200-0416","21366","60","1","1.10","1.4","2023-05-09T08:57:00","120","2023/05/09","08:57:00","-15.78654283285141","35.035121992230415","5.9","7","30","64","91","-2412","24340","-3116","5","150","149.33","115.59","33.73","26.25","50.5","15.16","89680","25.81","DUALSPOT-UV-BLUE-GREEN-RED-IR","863876","742853","908561","0.175852","0.042535","0.000000","810442","921027","761399","0.112771","0.028991","0.000000","909073","927365","816572","0.089019","0.023287","0.000000","887429","940911","862813","0.068575","0.018882","0.000000","755827","868959","956226","0.046937","0.011295","0.000000","3048","2639","3048","2360","2047","2360","2075","1841","2075","2009","1873","2009","1853","1374","1853",""
"MA200-0416","21367","60","1","1.10","1.4","2023-05-09T08:57:30","120","2023/05/09","08:57:30","-15.786404967308044","35.03593548759818","4.2","8","30","64","91","-2980","24148","-2568","5","150","150.22","115.70","34.52","26.27","50.2","15.10","89644","25.88","DUALSPOT-UV-BLUE-GREEN-RED-IR","862240","741783","907395","0.236734","0.057714","0.000000","809686","920446","760967","0.149858","0.038499","0.000000","908326","926761","816115","0.118554","0.031280","0.000000","886357","939945","861997","0.090295","0.024193","0.000000","750880","863346","950074","0.060691","0.015021","0.000000","3090","2582","3090","2376","2041","2376","2119","1922","2119","1883","1543","1883","1660","1507","1660",""
"MA200-0416","21368","60","1","1.10","1.4","2023-05-09T08:58:00","120","2023/05/09","08:58:00","-15.785524189472198","35.03579032421112","6.1","8","30","64","91","-3368","24008","-3136","5","150","149.90","115.91","33.98","26.31","50.1","15.09","89660","25.88","DUALSPOT-UV-BLUE-GREEN-RED-IR","859097","739462","904729","0.295946","0.071552","0.000000","812206","923648","763703","0.186651","0.046957","0.000000","905417","924049","813775","0.145798","0.036626","0.000000","889965","943980","865703","0.110125","0.028211","0.000000","752741","865600","952605","0.073238","0.017210","0.000000","3000","2391","3000","2353","1844","2353","1951","1306","1951","1716","1186","1716","1512","900","1512",""
"MA200-0416","21369","60","1","1.10","1.4","2023-05-09T08:58:30","120","2023/05/09","08:58:30","-15.784608900547028","35.03498832881451","2.9","9","30","64","90","-1504","24484","-1180","5","150","150.49","116.17","34.32","26.33","50.0","15.07","89756","25.94","DUALSPOT-UV-BLUE-GREEN-RED-IR","856269","737423","902375","0.375326","0.092409","0.000000","811151","922673","762972","0.231045","0.058561","0.000000","903748","922517","812502","0.180888","0.046312","0.000000","887981","941980","863953","0.134938","0.034189","0.000000","751380","864104","950994","0.088851","0.021553","0.000000","4013","3569","4013","2832","2506","2832","2507","2342","2507","2142","1747","2142","1877","1767","1877",""
"MA200-0416","21370","60","1","1.10","1.4","2023-05-09T08:59:00","120","2023/05/09","08:59:00","-15.783886909484863","35.03494765609503","2.5","9","30","64","90","-4200","23672","-7464","5","150","150.36","115.63","34.73","26.35","49.7","15.00","89800","26.00","DUALSPOT-UV-BLUE-GREEN-RED-IR","858903","740060","905703","0.438440","0.105932","0.000000","813472","925545","765422","0.267231","0.066865","0.000000","906058","925089","814791","0.207084","0.051182","0.000000","885663","939689","861852","0.154143","0.036829","0.000000","753983","867209","954396","0.101255","0.024334","0.000000","3205","2287","3205","2319","1772","2319","1880","1164","1880","1666","762","1666","1498","1118","1498",""
"MA200-0416","21371","60","1","1.10","1.4","2023-05-09T08:59:30","120","2023/05/09","08:59:30","-15.784956336021423","35.033696826547384","6.3","7","30","64","90","-3403","24442","-3726","5","150","150.05","115.45","34.60","26.38","49.5","14.96","89772","26.00","DUALSPOT-UV-BLUE-GREEN-RED-IR","860283","741548","907668","0.495960","0.122476","0.000000","814234","926678","766405","0.300109","0.075674","0.000000","906512","925723","815408","0.231438","0.057130","0.000000","885535","939663","861888","0.172257","0.042718","0.000000","754143","867443","954685","0.112768","0.027010","0.000000","2926","2808","2926","2111","1887","2111","1751","1427","1751","1574","1707","1574","1393","1080","1393",""
"MA200-0416","21372","60","1","1.10","1.4","2023-05-09T09:00:00","120","2023/05/09","09:00:00","-15.78541249036789","35.034089494496584","4.3","8","30","64","90","452","24284","-4016","5","150","150.01","115.50","34.50","26.40","49.3","14.92","89724","26.00","DUALSPOT-UV-BLUE-GREEN-RED-IR","858758","740548","906568","0.551211","0.136064","0.000000","808238","920018","760984","0.331014","0.083738","0.000000","905189","924559","814429","0.253748","0.061827","0.000000","884296","938503","860847","0.189906","0.045794","0.000000","753055","866285","953461","0.125431","0.029450","0.000000","2809","2313","2809","1983","1732","1983","1603","1130","1603","1533","894","1533","1531","987","1531",""
"MA200-0416","21373","60","1","1.10","1.4","2023-05-09T09:00:30","120","2023/05/09","09:00:30","-15.785836219787598","35.035551492124796","5.0","10","30","64","90","-2964","23876","-3720","5","150","149.80","115.71","34.08","26.43","49.1","14.89","89672","26.06","DUALSPOT-UV-BLUE-GREEN-RED-IR","856187","738663","904386","0.609615","0.150262","0.000000","810790","923171","763630","0.365274","0.091630","0.000000","907441","927020","816631","0.282674","0.068384","0.000000","887155","941671","863789","0.209254","0.049418","0.000000","754889","868448","955869","0.136842","0.032245","0.000000","2964","2446","2964","2194","1716","2194","2075","1597","2075","1677","1066","1677","1377","1145","1377",""
"MA200-0416","21374","60","1","1.10","1.4","2023-05-09T09:01:00","120","2023/05/09","09:01:00","-15.78595620393753","35.036283154040575","1.6","9","30","64","90","-2688","24192","-3504","5","150","149.64","115.86","33.78","26.46","48.9","14.85","89656","26.13","DUALSPOT-UV-BLUE-GREEN-RED-IR","856137","739022","904957","0.679593","0.167150","0.000000","810307","922921","763504","0.407183","0.101787","0.000000","907484","927349","816982","0.313675","0.075184","0.000000","888914","943718","865693","0.233519","0.055074","0.000000","751032","864135","951153","0.154775","0.035644","0.000000","3547","2936","3547","2681","2228","2681","2221","1671","2221","2101","1679","2101","2162","1405","2162",""
"MA200-0416","21375","60","1","1.10","1.4","2023-05-09T09:01:30","120","2023/05/09","09:01:30","-15.785193860530853","35.03710015490651","2.6","9","30","64","90","-3407","23456","-4087","5","150","149.54","116.09","33.45","26.49","48.6","14.78","89676","26.13","DUALSPOT-UV-BLUE-GREEN-RED-IR","860891","743577","910720","0.758307","0.184597","0.000000","810065","922968","763650","0.452118","0.111164","0.000000","906742","926797","816583","0.349086","0.083356","0.000000","888144","943132","865210","0.260514","0.060231","0.000000","750368","863540","950535","0.173528","0.038190","0.000000","3982","3063","3982","2869","2078","2869","2532","2028","2532","2332","1546","2332","2256","1063","2256",""
"MA200-0416","21376","60","1","1.10","1.4","2023-05-09T09:02:00","120","2023/05/09","09:02:00","-15.784558296203613","35.03647415712476","3.2","10","30","64","90","-4104","24080","-2648","5","150","150.28","116.25","34.03","26.50","48.4","14.74","89740","26.13","DUALSPOT-UV-BLUE-GREEN-RED-IR","855589","739198","905461","0.804632","0.196891","0.000000","810446","923582","764182","0.480586","0.118947","0.000000","902852","922957","813233","0.369585","0.087881","0.000000","890009","945203","867149","0.275313","0.063521","0.000000","751373","864711","951872","0.184263","0.042034","0.000000","2340","2122","2340","1815","1695","1815","1463","1103","1463","1277","969","1277","1289","1577","1289",""
"MA200-0416","21377","60","1","1.10","1.4","2023-05-09T09:02:30","120","2023/05/09","09:02:30","-15.783813655376434","35.035736326128244","1.9","10","30","64","89","-3539","24452","-4052","5","150","150.01","115.46","34.55","26.53","48.3","14.74","89796","26.19","DUALSPOT-UV-BLUE-GREEN-RED-IR","853591","737717","903763","0.846991","0.207260","0.000000","809055","922181","763048","0.504016","0.123704","0.000000","906458","926783","816626","0.388222","0.091874","0.000000","887845","942975","865121","0.288760","0.065768","0.000000","750240","863479","950496","0.192993","0.044278","0.000000","2154","1762","2154","1504","1020","1504","1340","959","1340","1168","652","1168","1056","907","1056",""
"MA200-0416","21378","60","1","1.10","1.4","2023-05-09T09:03:00","120","2023/05/09","09:03:00","-15.78354001045227","35.035455491393805","1.7","10","30","64","90","-4936","23784","-2916","5","150","149.61","115.90","33.70","26.55","48.3","14.73","89820","26.19","DUALSPOT-UV-BLUE-GREEN-RED-IR","856758","740797","907627","0.902815","0.218429","0.000000","807227","920299","761571","0.533330","0.129772","0.000000","903595","924056","814254","0.410068","0.095688","0.000000","883907","938938","861427","0.304806","0.067914","0.000000","752181","865759","953067","0.203836","0.046876","0.000000","2828","1946","2828","1874","1334","1874","1564","939","1564","1388","638","1388","1306","1077","1306",""
"MA200-0416","21379","60","1","1.10","1.4","2023-05-09T09:03:30","120","2023/05/09","09:03:30","-15.782952547073364","35.03582098707557","3.7","10","30","64","89","-3300","25080","-2764","5","150","149.83","115.87","33.96","26.57","48.3","14.75","89864","26.25","DUALSPOT-UV-BLUE-GREEN-RED-IR","857447","741672","908809","0.951658","0.230379","0.000000","807384","920669","761922","0.560575","0.134271","0.000000","904047","924666","814837","0.431466","0.099682","0.000000","886098","941391","863706","0.319278","0.070041","0.000000","752745","866516","953891","0.213502","0.049002","0.000000","2475","2066","2475","1743","982","1743","1533","976","1533","1253","628","1253","1165","874","1165",""
"MA200-0416","21380","60","1","1.10","1.4","2023-05-09T09:04:00","120","2023/05/09","09:04:00","-15.78221070766449","35.03659798949957","3.8","10","30","64","89","-1756","24268","-2524","5","150","149.67","116.21","33.46","26.60","48.2","14.75","89820","26.25","DUALSPOT-UV-BLUE-GREEN-RED-IR","857809","742437","910009","1.040525","0.254087","0.000000","808368","922118","763192","0.604146","0.147003","0.000000","904474","925312","815445","0.461125","0.106948","0.000000","886612","942104","864387","0.341451","0.075924","0.000000","753163","867110","954606","0.228855","0.052623","0.000000","4491","4161","4491","2779","2820","2779","2118","1802","2118","1914","1764","1914","1845","1511","1845",""
"MA200-0416","21381","60","1","1.10","1.4","2023-05-09T09:04:30","120","2023/05/09","09:04:30","-15.782359063625336","35.03734515979886","5.1","11","30","64","89","-1228","24380","-4232","5","150","149.83","115.55","34.28","26.62","48.1","14.73","89764","26.31","DUALSPOT-UV-BLUE-GREEN-RED-IR","858420","743288","911106","1.091029","0.267076","0.000000","808959","922976","763946","0.632643","0.153417","0.000000","904963","925979","816063","0.482595","0.111371","0.000000","886846","942455","864758","0.356584","0.079042","0.000000","753508","867559","955099","0.240549","0.054605","0.000000","2567","2225","2567","1828","1387","1828","1542","1071","1542","1313","912","1313","1413","807","1413",""
"MA200-0416","21382","60","1","1.10","1.4","2023-05-09T09:05:00","120","2023/05/09","09:05:00","-15.782750189304352","35.03809132054448","4.4","10","30","64","89","-853","24369","-3938","5","150","149.32","115.87","33.45","26.64","47.9","14.69","89660","26.31","DUALSPOT-UV-BLUE-GREEN-RED-IR","852045","738002","904736","1.137028","0.277921","0.000000","809447","923737","764638","0.660186","0.160217","0.000000","904796","925987","816104","0.504511","0.116288","0.000000","888107","943907","866100","0.371259","0.081562","0.000000","753516","867643","955235","0.250780","0.057112","0.000000","2331","1904","2331","1762","1507","1762","1570","1220","1570","1270","756","1270","1233","1047","1233",""
"MA200-0416","21383","60","1","1.10","1.4","2023-05-09T09:05:30","120","2023/05/09","09:05:30","-15.782555341720581","35.038868490606546","3.8","10","30","64","89","-1919","24248","-8504","5","150","150.16","116.27","33.89","26.67","47.8","14.68","89600","26.38","DUALSPOT-UV-BLUE-GREEN-RED-IR","850827","737271","903961","1.192824","0.291717","0.000000","807738","922038","763311","0.695967","0.169324","0.000000","904263","925618","815871","0.532234","0.122868","0.000000","887290","943230","865527","0.392776","0.086266","0.000000","748578","862056","949091","0.263803","0.059724","0.000000","2818","2390","2818","2281","1992","2281","1979","1611","1979","1856","1392","1856","1564","1076","1564",""
"MA200-0416","21384","60","1","1.10","1.4","2023-05-09T09:06:00","120","2023/05/09","09:06:00","-15.78093832731247","35.0389739908278","7.1","12","30","64","89","-3453","24111","-3084","5","150","149.80","116.44","33.36","26.70","47.6","14.64","89624","26.38","DUALSPOT-UV-BLUE-GREEN-RED-IR","852303","739410","906916","1.323401","0.323745","0.000000","809340","924627","765639","0.789678","0.192457","0.000000","905056","927023","817248","0.607502","0.141173","0.000000","889076","945626","867875","0.453758","0.099963","0.000000","749463","863448","950705","0.308811","0.068662","0.000000","6586","5639","6586","5966","5140","5966","5366","4555","5366","5254","4119","5254","5399","3742","5399",""
"MA200-0416","21385","60","1","1.10","1.4","2023-05-09T09:06:30","120","2023/05/09","09:06:30","-15.779759049415588","35.039137825369835","4.2","11","30","64","89","-3207","23920","-3200","5","150","149.83","116.07","33.76","26.72","47.4","14.60","89640","26.44","DUALSPOT-UV-BLUE-GREEN-RED-IR","853457","740998","909088","1.433875","0.349437","0.000000","805400","920572","762371","0.854080","0.206935","0.000000","900758","922936","813746","0.657320","0.152450","0.000000","883022","939403","862220","0.489300","0.107574","0.000000","749891","864052","951433","0.334787","0.075645","0.000000","5590","4469","5590","4113","3179","4113","3563","2773","3563","3072","2261","3072","3126","2889","3126",""
"MA200-0416","21386","60","1","1.10","1.4","2023-05-09T09:07:00","120","2023/05/09","09:07:00","-15.778746485710144","35.03868932649493","0.6","11","30","64","89","-7168","23528","-2048","5","150","149.59","116.25","33.34","26.75","47.2","14.55","89736","26.44","DUALSPOT-UV-BLUE-GREEN-RED-IR","852842","741112","909545","1.549350","0.380855","0.000000","805162","920745","762663","0.917821","0.223482","0.000000","900662","923202","814073","0.702923","0.163137","0.000000","883552","940235","863052","0.521034","0.114107","0.000000","749866","864199","951676","0.357507","0.081395","0.000000","5834","5535","5834","4064","3679","4064","3256","2661","3256","2738","1965","2738","2730","2409","2730",""
"MA200-0416","21387","60","1","1.10","1.4","2023-05-09T09:07:30","120","2023/05/09","09:07:30","-15.778709173202515","35.03866482526064","0.4","11","30","64","89","-4071","24152","-2788","5","150","149.76","116.52","33.25","26.78","47.1","14.54","89740","26.50","DUALSPOT-UV-BLUE-GREEN-RED-IR","847179","737131","905049","1.734152","0.427225","0.000000","804940","921233","763266","1.036679","0.253767","0.000000","900606","923760","814760","0.799113","0.187015","0.000000","885248","942532","865285","0.593727","0.131935","0.000000","750769","865532","953202","0.402914","0.091832","0.000000","9315","8192","9315","7562","6752","7562","6853","5962","6853","6259","5379","6259","5443","4385","5443",""
"MA200-0416","21388","60","1","1.10","1.4","2023-05-09T09:08:00","120","2023/05/09","09:08:00","-15.778385758399963","35.038310654461384","3.3","11","30","64","89","-4248","24828","-2436","5","150","150.24","116.44","33.80","26.80","46.9","14.51","0","0.00","DUALSPOT-UV-BLUE-GREEN-RED-IR","844319","735919","904081","1.921912","0.475811","0.000000","804230","921484","763774","1.160681","0.284463","0.000000","899752","923745","814984","0.895172","0.210195","0.000000","884092","941946","864935","0.666940","0.149447","0.000000","750313","865387","953220","0.450662","0.104278","0.000000","9471","8442","9471","7894","6732","7894","6849","5693","6849","6308","5197","6308","5728","5143","5728",""
"MA200-0416","21389","60","1","1.10","1.4","2023-05-09T09:08:30","120","2023/05/09","09:08:30","-15.778030812740326","35.03776865452528","1.7","11","30","64","89","-4720","24024","-1948","5","150","150.20","116.10","34.10","26.82","46.8","14.50","0","0.00","DUALSPOT-UV-BLUE-GREEN-RED-IR","844256","737301","906435","2.203458","0.547393","0.000000","803876","922334","764825","1.351487","0.330509","0.000000","899292","924263","815737","1.051038","0.249218","0.000000","884648","943351","866441","0.785213","0.176054","0.000000","750339","865863","953937","0.529720","0.124974","0.000000","14243","12330","14243","12183","10010","12183","11145","9501","11145","10220","7828","10220","9512","8478","9512",""
"MA200-0416","21390","60","1","1.10","1.4","2023-05-09T09:09:00","120","2023/05/09","09:09:00","-15.777945697307587","35.03709299117327","3.9","11","30","64","89","-2150","23911","-4873","5","150","149.76","115.59","34.17","26.85","46.7","14.49","89800","26.56","DUALSPOT-UV-BLUE-GREEN-RED-IR","839496","736556","907022","2.787584","0.704750","0.000000","801816","922408","765580","1.684361","0.417072","0.000000","897260","924013","816062","1.301342","0.312084","0.000000","883912","943927","867403","0.968110","0.222778","0.000000","749668","865863","954177","0.639429","0.151361","0.000000","29681","27047","29681","21348","18779","21348","17977","15274","17977","15874","13718","15874","13258","10787","13258",""
"MA200-0416","21391","60","1","1.10","1.4","2023-05-09T09:09:30","120","2023/05/09","09:09:30","-15.77829134464264","35.036117158830166","6.1","11","30","64","88","-3280","23411","-2792","5","150","150.09","116.23","33.87","26.87","46.6","14.48","89804","26.56","DUALSPOT-UV-BLUE-GREEN-RED-IR","836973","735454","906161","3.061723","0.775632","-0.057985","795094","915559","760156","1.850980","0.458301","0.000000","895547","923016","815374","1.433801","0.343662","0.000000","882012","942477","866219","1.066166","0.245904","0.000000","748678","865036","953417","0.699054","0.166418","0.000000","13853","12293","11764","10627","9025","10627","9461","7741","9461","8464","6851","8464","7166","6210","7166",""
"MA200-0416","21392","60","1","1.10","1.4","2023-05-09T09:10:00","120","2023/05/09","09:10:00","-15.778644382953644","35.03457349166274","6.5","11","30","64","89","-2360","24372","-1752","5","150","149.53","116.25","33.27","26.90","46.5","14.45","89780","26.63","DUALSPOT-UV-BLUE-GREEN-RED-IR","839289","737822","909221","3.135829","0.795314","-0.034079","796302","917250","761613","1.898539","0.468982","0.000000","897250","924964","817149","1.469153","0.352102","0.000000","878259","938625","862730","1.093226","0.251955","0.000000","745824","861829","949884","0.718166","0.170069","0.000000","3744","3474","3382","3032","2379","3032","2524","2105","2524","2335","1824","2335","2296","1533","2296",""
"MA200-0416","21393","60","1","1.10","1.4","2023-05-09T09:10:30","120","2023/05/09","09:10:30","-15.779023587703705","35.03288482874632","6.0","11","30","64","88","-4844","23984","-2916","5","150","150.36","116.31","34.05","26.93","46.3","14.44","89784","26.63","DUALSPOT-UV-BLUE-GREEN-RED-IR","837875","737016","908464","3.205996","0.814266","-0.036121","796104","917329","761776","1.941108","0.479717","0.000000","897042","924999","817262","1.500505","0.359243","0.000000","878836","939445","863514","1.115429","0.256222","0.000000","750513","867407","956057","0.732481","0.173472","0.000000","3543","3269","3175","2713","2337","2713","2237","1741","2237","1915","1257","1915","1719","1396","1719",""
"MA200-0416","21394","60","1","1.10","1.4","2023-05-09T09:11:00","120","2023/05/09","09:11:00","-15.779430270195007","35.03110999614","6.9","11","30","64","88","-5260","24044","-3136","5","150","149.86","115.79","34.07","26.95","46.3","14.43","89948","26.69","DUALSPOT-UV-BLUE-GREEN-RED-IR","837899","738114","910278","3.367506","0.856555","-0.051429","796555","918748","763207","2.042925","0.506353","0.000000","896147","924751","817259","1.577199","0.377666","0.000000","878544","939636","863899","1.171809","0.269902","0.000000","750074","867164","955910","0.767503","0.182184","0.000000","8192","7290","6983","6518","5796","6518","5499","4489","5499","4885","4028","4885","4225","3572","4225",""
"MA200-0416","21395","60","1","1.10","1.4","2023-05-09T09:11:30","120","2023/05/09","09:11:30","-15.77998697757721","35.02963566035032","6.2","12","30","64","88","-3820","24160","-2728","5","150","149.45","115.63","33.81","26.98","46.1","14.41","90044","26.69","DUALSPOT-UV-BLUE-GREEN-RED-IR","836709","738090","910739","3.541362","0.908016","0.004569","795035","917898","762789","2.162676","0.541563","0.000000","891121","920281","813571","1.673430","0.407129","0.000000","878627","940310","864710","1.246434","0.290972","0.000000","745729","862487","950902","0.815061","0.195997","0.000000","8831","8939","8976","7677","7719","7677","6909","7234","6909","6474","6251","6474","5745","5706","5745",""
"MA200-0416","21396","60","1","1.10","1.4","2023-05-09T09:12:00","120","2023/05/09","09:12:00","-15.780825853347778","35.02864382788539","2.2","12","30","64","88","-6124","23712","-3084","5","150","150.29","117.06","33.23","27.00","46.0","14.38","90124","26.69","DUALSPOT-UV-BLUE-GREEN-RED-IR","827813","730853","902045","3.717090","0.952615","-0.044646","793662","916797","762026","2.288043","0.572532","0.000000","889338","918886","812431","1.777947","0.431537","0.000000","876510","938406","863055","1.328140","0.311017","0.000000","744312","861102","949449","0.870193","0.209074","0.000000","8816","7883","7562","7939","6909","7939","7412","6098","7412","7002","6052","7002","6578","5497","6578",""
"MA200-0416","21397","60","1","1.10","1.4","2023-05-09T09:12:30","120","2023/05/09","09:12:30","-15.781261563301086","35.02817416191101","2.2","12","30","64","88","-3072","23776","-3076","5","150","150.08","116.09","33.99","27.02","45.8","14.35","90156","26.75","DUALSPOT-UV-BLUE-GREEN-RED-IR","829573","733014","905009","3.829749","0.982854","-0.032950","795357","919318","764276","2.360529","0.590927","0.000000","890533","920550","814019","1.834047","0.445061","0.000000","878385","940737","865261","1.369971","0.319445","0.000000","745620","862807","951425","0.901874","0.217263","0.000000","5700","5225","5061","4628","4011","4628","4012","3303","4012","3615","2487","3615","3812","3365","3812",""
"MA200-0416","21398","60","1","1.10","1.4","2023-05-09T09:13:00","120","2023/05/09","09:13:00","-15.782270014286041","35.02711916156113","6.5","12","30","64","88","-3491","24137","-2729","5","150","149.73","116.21","33.52","27.05","45.8","14.37","90196","26.75","DUALSPOT-UV-BLUE-GREEN-RED-IR","828185","732659","904945","3.990812","1.025264","-0.033329","794396","919011","764242","2.479333","0.619632","0.000000","889726","920430","814105","1.934832","0.469512","0.000000","877653","940525","865257","1.449728","0.338251","0.000000","745089","862543","951256","0.954927","0.229396","0.000000","8140","7430","7185","7578","6347","7578","7200","6055","7200","6885","5628","6885","6377","5056","6377",""
"MA200-0416","21399","60","1","1.10","1.4","2023-05-09T09:13:30","120","2023/05/09","09:13:30","-15.783377051353455","35.026008332148194","3.7","12","30","64","88","-6868","23616","-2120","5","150","150.49","116.40","34.09","27.06","45.9","14.39","90276","26.75","DUALSPOT-UV-BLUE-GREEN-RED-IR","829454","734301","907222","4.093086","1.051771","-0.044798","794700","919895","765092","2.556598","0.637413","0.000000","889746","920856","814602","1.998501","0.484437","0.000000","878094","941375","866101","1.500970","0.349855","0.000000","745306","862975","951800","0.990652","0.238375","0.000000","5160","4566","4361","4920","3866","4920","4541","3634","4541","4416","3414","4416","4287","3679","4287",""
"MA200-0416","21400","60","1","1.10","1.4","2023-05-09T09:14:00","120","2023/05/09","09:14:00","-15.78440910577774","35.0251776650548","4.2","12","30","64","88","-2111","24119","-3230","5","150","150.62","116.09","34.52","27.08","45.9","14.41","90332","26.75","DUALSPOT-UV-BLUE-GREEN-RED-IR","827722","733415","906370","4.197411","1.078134","-0.060355","793443","919014","764530","2.632701","0.655979","0.000000","889284","920857","814724","2.059459","0.496727","0.000000","878442","942076","866871","1.549142","0.359833","0.000000","745097","863029","951947","1.024589","0.245528","0.000000","5278","4485","4211","4859","3986","4859","4359","2955","4359","4163","2899","4163","4083","2894","4083",""
"MA200-0416","21401","60","1","1.10","1.4","2023-05-09T09:14:30","120","2023/05/09","09:14:30","-15.78507137298584","35.02536916360259","6.1","12","30","64","88","-1768","24120","-3380","5","150","149.39","116.27","33.12","27.11","45.9","14.46","90288","26.75","DUALSPOT-UV-BLUE-GREEN-RED-IR","827645","734711","908626","4.449317","1.145523","-0.020039","788553","914787","761452","2.834886","0.710262","0.000000","888106","920910","815153","2.233165","0.543194","0.000000","877808","942488","867560","1.689797","0.396555","0.000000","744709","863278","952485","1.127483","0.271711","0.000000","12725","11952","11683","12891","12151","12891","12403","11649","12403","12137","11125","12137","12362","11044","12362",""
"MA200-0416","21402","60","1","1.10","1.4","2023-05-09T09:15:00","120","2023/05/09","09:15:00","-15.785711348056793","35.02693416364491","6.3","13","30","64","88","-1732","24300","-3271","5","150","149.81","116.32","33.49","27.13","45.9","14.47","90208","26.81","DUALSPOT-UV-BLUE-GREEN-RED-IR","823147","733459","908355","4.942469","1.279890","-0.015782","789913","919225","766057","3.249103","0.821567","-0.030148","885085","920294","815452","2.593982","0.640076","0.000000","869473","935704","862043","1.991117","0.476414","0.000000","743507","863315","953077","1.345827","0.329465","0.000000","24902","23566","23100","26399","24639","24044","25753","24018","25753","25989","23924","25989","26222","24092","26222",""
"MA200-0416","21403","60","1","1.10","1.4","2023-05-09T09:15:30","120","2023/05/09","09:15:30","-15.786368370056152","35.028566328808665","6.6","13","30","64","88","-2136","24448","-3160","5","150","150.29","115.75","34.54","27.15","45.8","14.45","90128","26.81","DUALSPOT-UV-BLUE-GREEN-RED-IR","817378","732655","909291","5.706317","1.487514","-0.024014","781157","913300","762384","3.861987","0.986248","-0.039958","880248","918962","815466","3.121185","0.781708","-0.049161","865782","934855","862303","2.425640","0.592559","0.000000","740846","862280","952801","1.656589","0.414395","0.000000","38759","35306","34088","39251","35344","34004","37813","34043","32783","37662","33735","37662","37504","34348","37504",""
"MA200-0416","21404","60","1","1.10","1.4","2023-05-09T09:16:00","120","2023/05/09","09:16:00","-15.786305844783783","35.029864493757486","5.7","13","30","64","87","-2464","24204","-2908","5","150","150.43","115.67","34.75","27.17","45.7","14.45","90064","26.88","DUALSPOT-UV-BLUE-GREEN-RED-IR","814347","731059","907859","5.998976","1.566265","-0.027414","778782","911600","761286","4.078477","1.041555","-0.061679","878709","918342","815148","3.311783","0.828308","-0.099756","863538","933265","861092","2.586835","0.630444","0.000000","739822","861654","952319","1.776075","0.444773","0.000000","14860","13309","12761","13874","11798","11085","13680","11132","10282","13981","10937","13981","14430","12211","14430",""
"MA200-0416","21405","60","1","1.10","1.4","2023-05-09T09:16:30","120","2023/05/09","09:16:30","-15.786372721195221","35.03105133026838","4.0","13","30","64","87","-3068","24168","-2356","5","150","149.81","115.93","33.89","27.20","45.7","14.46","90004","26.88","DUALSPOT-UV-BLUE-GREEN-RED-IR","816301","733243","910805","6.082952","1.588499","-0.024019","780247","913745","763221","4.144162","1.057691","-0.065785","879229","919276","816110","3.367710","0.841760","-0.091769","864867","935020","862761","2.632975","0.642770","0.000000","740525","862698","953542","1.809688","0.452888","0.000000","4254","3853","3712","4200","3530","3300","4005","3296","3059","3993","3649","3993","4050","3345","4050",""
"MA200-0416","21406","60","1","1.10","1.4","2023-05-09T09:17:00","120","2023/05/09","09:17:00","-15.786405801773071","35.03210266306996","1.6","13","30","64","87","-3100","24496","-3004","5","150","151.11","117.13","33.99","27.22","45.7","14.48","0","0.00","DUALSPOT-UV-BLUE-GREEN-RED-IR","814172","731628","908899","6.140114","1.603813","-0.018877","778606","912113","761914","4.188067","1.068962","-0.043763","878459","918690","815691","3.404892","0.850492","-0.100092","863407","933626","861539","2.662223","0.648159","0.000000","739733","861886","952721","1.830274","0.457987","0.000000","2866","2646","2568","2778","2458","2348","2635","2132","1965","2505","1590","2505","2455","2095","2455",""
"MA200-0416","21407","60","1","1.10","1.4","2023-05-09T09:17:30","120","2023/05/09","09:17:30","-15.786397159099579","35.030796663835645","8.1","13","30","64","87","-3792","23692","-504","5","150","150.23","116.19","34.04","27.23","45.7","14.49","0","0.00","DUALSPOT-UV-BLUE-GREEN-RED-IR","816523","734076","912085","6.199306","1.620712","-0.005753","780421","914550","764006","4.231399","1.081295","-0.009390","874936","915273","812698","3.441489","0.861388","0.006184","866732","937436","865120","2.691465","0.656432","0.000000","741277","863821","954891","1.851692","0.463443","0.000000","2992","2916","2889","2764","2686","2659","2615","2657","2671","2524","2438","2524","2575","2239","2575",""
"MA200-0416","21408","60","1","1.10","1.4","2023-05-09T09:18:00","120","2023/05/09","09:18:00","-15.786638498306274","35.029335495084524","0.0","13","30","64","86","-3823","24084","-4756","5","150","149.70","115.87","33.83","27.26","45.6","14.50","90108","26.94","DUALSPOT-UV-BLUE-GREEN-RED-IR","808447","727237","903785","6.278291","1.642513","-0.012698","779049","913336","763133","4.291141","1.096643","-0.044760","878209","919024","816154","3.491265","0.873750","-0.071185","865316","936158","864043","2.731019","0.666005","0.000000","740012","862534","953529","1.881179","0.472431","0.000000","4003","3785","3708","3822","3363","3206","3566","3034","2856","3424","2839","3424","3555","3711","3555",""
"MA200-0416","21409","60","1","1.10","1.4","2023-05-09T09:18:30","120","2023/05/09","09:18:30","-15.785903871059418","35.02724616415799","17.3","13","30","64","87","-4071","24060","-2700","5","150","149.64","115.75","33.88","27.28","45.5","14.47","90136","26.94","DUALSPOT-UV-BLUE-GREEN-RED-IR","810410","729620","907078","6.390178","1.674549","-0.004778","780684","915865","765429","4.372829","1.118827","-0.024591","874722","915901","813527","3.559023","0.890737","-0.066551","866942","938347","866180","2.784896","0.679993","0.000000","741247","864268","955547","1.920270","0.482974","0.000000","5677","5553","5509","5231","4853","4723","4859","4162","3929","4669","4141","4669","4717","4346","4717",""
"MA200-0416","21410","60","1","1.10","1.4","2023-05-09T09:19:00","120","2023/05/09","09:19:00","-15.78435355424881","35.02338882908225","13.3","13","30","64","86","-3868","24228","-2220","5","150","149.90","116.15","33.75","27.30","45.4","14.45","90264","27.00","DUALSPOT-UV-BLUE-GREEN-RED-IR","806168","728173","906459","6.845867","1.802728","-0.006601","776540","913452","764229","4.742682","1.220727","-0.015783","871532","914665","813124","3.878259","0.977498","-0.024371","864193","937177","865737","3.048899","0.750161","-0.041793","735053","858191","949341","2.109253","0.535036","0.000000","23043","22309","22047","23605","22385","21962","22818","21344","20848","22804","20860","20226","22729","21551","22729",""
"MA200-0416","21411","60","1","1.10","1.4","2023-05-09T09:19:30","120","2023/05/09","09:19:30","-15.782819867134094","35.0231011621654","12.4","13","30","64","87","-156","24572","-3284","5","150","149.70","115.67","34.03","27.32","45.3","14.44","90140","27.00","DUALSPOT-UV-BLUE-GREEN-RED-IR","806161","729144","908058","7.005797","1.844286","-0.026843","776833","914763","765563","4.865646","1.251102","-0.056520","871912","915876","814468","3.981835","1.002013","-0.088713","865378","939125","867735","3.133368","0.770426","-0.103278","735626","859294","950704","2.167432","0.547550","0.000000","8120","7173","6835","7880","6617","6180","7434","5981","5493","7326","5975","5535","7026","5137","7026",""
"MA200-0416","21412","60","1","1.10","1.4","2023-05-09T09:20:00","120","2023/05/09","09:20:00","-15.77923572063446","35.0238879956305","11.9","13","30","64","87","-5088","23620","-3504","5","150","149.57","115.87","33.69","27.34","45.1","14.40","89992","27.00","DUALSPOT-UV-BLUE-GREEN-RED-IR","801319","728262","908609","7.627297","2.012857","-0.013182","772869","913551","765598","5.353600","1.380592","-0.024934","868210","914949","814570","4.398864","1.113569","-0.027303","856412","931889","861838","3.471613","0.859058","-0.043572","733825","858812","950789","2.409986","0.611931","0.000000","31504","29385","28626","31218","28490","27542","29880","27487","26676","29287","26391","25438","29242","26692","29242",""
"MA200-0416","21413","60","1","1.10","1.4","2023-05-09T09:20:30","120","2023/05/09","09:20:30","-15.777685225009918","35.02345999889076","1.3","13","30","64","87","-1668","24260","-2936","5","150","150.05","116.32","33.73","27.36","45.0","14.36","89956","27.00","DUALSPOT-UV-BLUE-GREEN-RED-IR","796633","727108","908621","8.088888","2.139518","-0.009711","765145","907592","761609","5.724513","1.480938","-0.017328","864585","913833","814492","4.708546","1.196211","-0.025359","852871","930339","861138","3.724279","0.924278","-0.045875","736805","863810","956952","2.589130","0.659453","0.000000","23307","22059","21610","23638","22057","21505","22102","20344","19745","21792","19401","18612","21513","19683","21513",""
"MA200-0416","21414","60","1","1.10","1.4","2023-05-09T09:21:00","120","2023/05/09","09:21:00","-15.77722054719925","35.022320160642266","6.4","13","30","64","87","-3058","24312","-1237","5","150","150.49","115.79","34.70","27.38","44.8","14.33","89964","27.00","DUALSPOT-UV-BLUE-GREEN-RED-IR","795296","727007","909106","8.503474","2.257682","-0.008387","764438","907853","762197","6.057900","1.573009","-0.019556","863191","913418","814431","5.004191","1.275360","-0.033373","852001","930283","861377","3.970728","0.990987","-0.037266","731342","857966","950743","2.763948","0.707418","0.000000","21030","20001","19630","21344","19670","19083","21197","18937","18164","21353","19288","18601","21090","19310","21090",""
"MA200-0416","21415","60","1","1.10","1.4","2023-05-09T09:21:30","120","2023/05/09","09:21:30","-15.776487529277802","35.02078449726105","7.4","14","30","64","86","-2628","24264","-636","5","150","149.95","116.19","33.76","27.40","44.7","14.30","89968","27.06","DUALSPOT-UV-BLUE-GREEN-RED-IR","796238","728133","910658","8.561246","2.273918","-0.005443","764062","907663","762112","6.099170","1.583166","-0.042673","863913","914377","815376","5.038327","1.285558","0.007280","853758","932339","863347","3.996076","0.995964","-0.190177","731871","858717","951600","2.782863","0.711579","0.000000","2920","2824","2790","2633","2230","2089","2439","2508","2532","2188","1479","1243","2274","1721","2274",""
"MA200-0416","21416","60","1","1.10","1.4","2023-05-09T09:22:00","120","2023/05/09","09:22:00","-15.775529086589813","35.01946066133678","6.5","14","30","64","86","-2896","24396","-620","5","150","147.77","114.88","32.89","27.42","44.5","14.25","89896","27.06","DUALSPOT-UV-BLUE-GREEN-RED-IR","793678","726036","908112","8.605139","2.285293","-0.017241","763111","906728","761365","6.131243","1.591629","-0.019337","861771","912279","813551","5.061936","1.290220","-0.141080","851257","929769","861011","4.016486","1.000416","-0.115586","730189","856828","949529","2.796447","0.713587","0.000000","2244","2031","1954","2069","1907","1850","1706","1176","995","1782","1358","1217","1651","852","1651",""
"MA200-0416","21417","60","1","1.10","1.4","2023-05-09T09:22:30","120","2023/05/09","09:22:30","-15.774413168430328","35.018488662317395","5.7","14","30","64","86","-3596","23912","912","5","150","150.09","115.67","34.42","27.43","44.3","14.19","89912","27.06","DUALSPOT-UV-BLUE-GREEN-RED-IR","789318","722260","903485","8.644567","2.296789","-0.003277","764206","908220","762686","6.156897","1.599025","-0.007121","863659","914423","815500","5.085415","1.295370","-0.107179","854467","933359","864365","4.033693","1.003927","-0.178491","732168","859252","952245","2.810054","0.717841","0.000000","2002","1961","1946","1644","1592","1575","1685","1242","1090","1492","1023","867","1643","1726","1643",""
"MA200-0416","21418","60","1","1.10","1.4","2023-05-09T09:23:00","120","2023/05/09","09:23:00","-15.773315012454987","35.017830995842814","5.8","14","30","64","86","-3668","23932","-1788","5","150","149.89","115.53","34.35","27.44","44.1","14.15","89860","27.06","DUALSPOT-UV-BLUE-GREEN-RED-IR","794021","726745","909250","8.685205","2.308347","-0.007233","763314","907362","762033","6.184751","1.606393","-0.028313","862533","913389","814608","5.107767","1.301771","-0.010182","851106","929861","861134","4.049745","1.007241","-0.169344","730830","857738","950610","2.822797","0.720021","0.000000","2065","1976","1943","1787","1590","1520","1606","1547","1526","1393","967","826","1540","886","1540",""
"MA200-0416","21419","60","1","1.10","1.4","2023-05-09T09:23:30","120","2023/05/09","09:23:30","-15.773807346820831","35.01647116430104","5.9","14","30","64","86","-5300","23580","-2908","5","150","149.34","115.46","33.88","27.46","44.0","14.13","89964","27.13","DUALSPOT-UV-BLUE-GREEN-RED-IR","790721","724068","906013","8.736485","2.322694","-0.007734","765010","909668","764024","6.220233","1.614708","-0.060069","864018","915221","816289","5.135286","1.306974","-0.177587","854596","933811","864867","4.071903","1.012105","-0.123839","732327","859620","952720","2.837934","0.724764","0.000000","2608","2487","2443","2278","1819","1658","1978","1275","1034","1925","1440","1279","1831","1956","1831",""
"MA200-0416","21420","60","1","1.10","1.4","2023-05-09T09:24:00","120","2023/05/09","09:24:00","-15.774561703205109","35.01500333286822","6.8","14","30","64","86","-4580","23724","-3076","5","150","149.76","115.63","34.13","27.49","44.0","14.13","90032","27.13","DUALSPOT-UV-BLUE-GREEN-RED-IR","790592","724268","906452","8.812745","2.345937","0.004825","764949","909850","764260","6.265294","1.626682","-0.024842","863940","915358","816474","5.170614","1.315676","-0.055165","854345","933725","864819","4.097264","1.017291","-0.168734","732244","859646","952756","2.853551","0.726918","0.000000","3873","3999","4045","2888","2600","2499","2536","2116","1973","2200","1524","1300","1886","881","1886",""
"MA200-0416","21421","60","1","1.10","1.4","2023-05-09T09:24:30","120","2023/05/09","09:24:30","-15.77384501695633","35.01391833182424","6.3","14","30","64","86","-4836","23476","-1972","5","150","150.16","115.83","34.33","27.50","43.9","14.12","90168","27.13","DUALSPOT-UV-BLUE-GREEN-RED-IR","789629","723587","905699","8.851348","2.355096","-0.042153","764728","909771","764234","6.292099","1.632434","-0.094343","863016","914537","815793","5.193866","1.320182","-0.166699","854676","934205","865282","4.113930","1.020319","-0.257680","731656","859002","952101","2.865606","0.729904","0.000000","1957","1567","1425","1715","1242","1076","1666","1089","893","1443","884","700","1453","1215","1453",""
"MA200-0416","21422","60","1","1.10","1.4","2023-05-09T09:25:00","120","2023/05/09","09:25:00","-15.772271513938904","35.013491998426616","5.7","14","30","64","86","-933","24162","-3954","5","150","149.50","115.64","33.86","27.51","43.8","14.10","90112","27.13","DUALSPOT-UV-BLUE-GREEN-RED-IR","789415","723638","905873","8.897516","2.368753","0.001570","764068","909171","763817","6.322771","1.641357","-0.001369","863436","915126","816381","5.214989","1.325523","-0.042923","854980","934666","865768","4.133084","1.024354","-0.143784","732109","859633","952814","2.878877","0.733193","0.000000","2344","2369","2378","1966","1953","1949","1516","1309","1239","1661","1195","1042","1603","1357","1603",""
"MA200-0416","21423","60","1","1.10","1.4","2023-05-09T09:25:30","120","2023/05/09","09:25:30","-15.771075010299683","35.01399216428399","5.1","14","30","64","86","468","24284","-3876","5","150","149.76","115.95","33.81","27.53","43.7","14.09","89940","27.13","DUALSPOT-UV-BLUE-GREEN-RED-IR","784291","719227","900462","8.943965","2.381477","-0.010070","764461","909886","764438","6.353682","1.647520","-0.117319","863748","915658","816904","5.241496","1.331752","-0.067102","855345","935262","866323","4.151229","1.027459","-0.293269","732328","859975","953232","2.893001","0.735730","0.000000","2352","2210","2158","1976","1351","1132","1897","1529","1404","1569","921","708","1701","1048","1701",""
"MA200-0416","21424","60","1","1.10","1.4","2023-05-09T09:26:00","120","2023/05/09","09:26:00","-15.771457970142365","35.01551633141935","6.8","14","30","64","86","-1320","24144","-2360","5","150","149.45","115.79","33.65","27.54","43.6","14.06","89776","27.13","DUALSPOT-UV-BLUE-GREEN-RED-IR","787335","722237","904371","8.996639","2.397375","0.005535","762500","907757","762731","6.386545","1.656681","-0.009149","862181","914179","815631","5.267293","1.337713","-0.071944","853243","933066","864354","4.172649","1.032465","-0.084264","730940","858451","951562","2.906141","0.737593","0.000000","2671","2774","2811","2104","2017","1987","1849","1470","1341","1855","1492","1373","1585","773","1585",""
"MA200-0416","21425","60","1","1.10","1.4","2023-05-09T09:26:30","120","2023/05/09","09:26:30","-15.771570444107056","35.01683682948351","3.4","14","30","64","86","-880","24948","-5536","5","150","149.85","115.70","34.16","27.55","43.5","14.02","89684","27.13","DUALSPOT-UV-BLUE-GREEN-RED-IR","789078","724092","906805","9.042191","2.409824","-0.012460","764246","910060","764739","6.419211","1.666599","0.005764","862967","915172","816577","5.295038","1.345342","-0.019129","854213","934269","865476","4.191525","1.036662","-0.116554","731950","859738","952997","2.922577","0.742628","0.000000","2312","2140","2078","2093","2152","2173","1990","1854","1807","1636","1232","1099","1984","2058","1984",""
"MA200-0416","21426","60","1","1.10","1.4","2023-05-09T09:27:00","120","2023/05/09","09:27:00","-15.771584451198578","35.01803949661553","5.0","14","30","64","86","-2768","24132","-2920","5","150","149.01","115.80","33.21","27.56","43.4","14.00","89616","27.13","DUALSPOT-UV-BLUE-GREEN-RED-IR","787060","722445","904868","9.087570","2.423692","0.009060","762322","907939","763013","6.450193","1.674837","-0.016886","861828","914144","815699","5.319274","1.351433","-0.037296","852650","932700","864079","4.211879","1.042330","-0.009418","730665","858314","951493","2.935880","0.746591","0.000000","2301","2453","2508","1983","1839","1788","1737","1522","1449","1763","1712","1696","1604","1667","1604",""
"MA200-0416","21427","60","1","1.10","1.4","2023-05-09T09:27:30","120","2023/05/09","09:27:30","-15.77155727148056","35.01916232891381","3.8","14","30","64","86","-3820","25012","-3104","5","150","150.17","115.98","34.19","27.57","43.3","13.96","89648","27.13","DUALSPOT-UV-BLUE-GREEN-RED-IR","789000","724455","907510","9.128899","2.435176","-0.009323","764376","910606","765292","6.476936","1.681055","-0.061683","862200","914700","816239","5.342459","1.356464","-0.102560","854678","935047","866281","4.228274","1.045001","-0.346723","731469","859316","952623","2.949186","0.749275","0.000000","2092","1972","1928","1709","1348","1221","1659","1221","1072","1418","783","575","1602","1096","1602",""
"MA200-0416","21428","60","1","1.10","1.4","2023-05-09T09:28:00","120","2023/05/09","09:28:00","-15.77209198474884","35.01969099417329","4.9","14","30","64","86","-2972","23792","-3939","5","150","150.29","115.91","34.38","27.58","43.2","13.93","89696","27.13","DUALSPOT-UV-BLUE-GREEN-RED-IR","788036","723797","906781","9.172301","2.447931","-0.001400","763779","910092","764949","6.506945","1.689678","-0.006773","862361","915031","816584","5.366206","1.362859","-0.026229","854650","935174","866396","4.247063","1.049012","-0.139629","731393","859348","952694","2.961731","0.751640","0.000000","2199","2178","2171","1919","1859","1838","1700","1544","1491","1626","1170","1020","1511","960","1511",""
"MA200-0416","21429","60","1","1.10","1.4","2023-05-09T09:28:30","120","2023/05/09","09:28:30","-15.772807478904724","35.02026333101094","5.9","14","30","64","85","-3744","23996","-4028","5","150","149.54","115.64","33.91","27.59","43.1","13.92","89688","27.13","DUALSPOT-UV-BLUE-GREEN-RED-IR","787830","723820","906941","9.213882","2.459789","-0.004215","763043","909359","764387","6.534216","1.696516","-0.037233","862082","914876","816510","5.388600","1.367992","-0.076755","853067","933541","864963","4.265060","1.054025","-0.016669","731101","859055","952434","2.975023","0.755526","0.000000","2112","2054","2033","1748","1495","1406","1607","1256","1137","1561","1483","1457","1605","1601","1605",""
"MA200-0416","21430","60","1","1.10","1.4","2023-05-09T09:29:00","120","2023/05/09","09:29:00","-15.773546040058136","35.021642327308655","6.3","14","30","64","86","-4456","24016","-3436","5","150","150.29","116.19","34.10","27.60","43.0","13.89","89740","27.19","DUALSPOT-UV-BLUE-GREEN-RED-IR","788410","724560","907993","9.256263","2.473398","0.012287","763967","910708","765606","6.565103","1.704389","-0.032892","862737","915767","817344","5.414379","1.374941","-0.022664","855349","936217","867486","4.285948","1.058436","-0.138564","732140","860388","953885","2.988968","0.758910","0.000000","2142","2343","2417","1970","1711","1620","1842","1691","1640","1803","1297","1131","1676","1386","1676",""
"MA200-0416","21431","60","1","1.10","1.4","2023-05-09T09:29:30","120","2023/05/09","09:29:30","-15.774641931056976","35.02261766418815","6.1","14","30","64","86","-3700","24708","-2868","5","150","149.33","115.75","33.57","27.63","42.9","13.87","89792","27.19","DUALSPOT-UV-BLUE-GREEN-RED-IR","788641","725083","908813","9.314804","2.491968","0.012169","764178","911263","766141","6.608558","1.718504","0.021088","862533","915805","817461","5.449850","1.385241","0.000271","854746","935750","867141","4.315777","1.067120","0.001140","731532","859843","953363","3.010898","0.765188","-0.005911","2970","3248","3350","2783","3116","3233","2544","2546","2547","2585","2595","2598","2646","2612","2600",""
"MA200-0416","21432","60","1","1.10","1.4","2023-05-09T09:30:00","120","2023/05/09","09:30:00","-15.776070356369019","35.02194049581885","6.0","14","30","64","85","-4896","23612","-3396","5","150","150.49","115.83","34.66","27.64","42.9","13.88","89888","27.19","DUALSPOT-UV-BLUE-GREEN-RED-IR","786075","722973","906268","9.364195","2.504533","-0.027442","762307","909268","764552","6.644297","1.726240","-0.089787","860474","913778","815687","5.480445","1.391893","-0.105546","852775","933762","865308","4.338889","1.071274","-0.260038","730118","858240","951637","3.028328","0.768690","-0.259762","2504","2129","1992","2287","1654","1432","2192","1593","1389","2001","1202","940","2102","1411","1176",""
"MA200-0416","21433","60","1","1.10","1.4","2023-05-09T09:30:30","120","2023/05/09","09:30:30","-15.776974141597748","35.021816493943334","4.9","14","30","64","85","-1592","24356","-3120","5","150","149.83","115.63","34.20","27.64","42.9","13.89","89976","27.19","DUALSPOT-UV-BLUE-GREEN-RED-IR","787749","724880","908865","9.424161","2.521165","-0.009839","758861","905452","761427","6.686818","1.736755","-0.042496","857183","910555","812928","5.516041","1.400226","-0.070259","854269","935609","867127","4.369448","1.078445","-0.086517","731231","859744","953341","3.051052","0.774334","-0.089496","3045","2856","2787","2726","2279","2122","2555","2023","1841","2651","2103","1924","2745","2305","2156",""
"MA200-0416","21434","60","1","1.10","1.4","2023-05-09T09:31:00","120","2023/05/09","09:31:00","-15.777553021907806","35.023251662030816","4.7","14","30","64","85","-3380","24004","-3004","5","150","149.76","115.75","34.01","27.65","43.0","13.93","89952","27.19","DUALSPOT-UV-BLUE-GREEN-RED-IR","788220","725878","910352","9.541467","2.553003","-0.012192","758834","905944","762009","6.773123","1.759357","-0.025418","862014","916185","818078","5.588323","1.419031","-0.032483","854918","936748","868257","4.425001","1.091672","-0.076070","731394","860172","953916","3.090807","0.785095","-0.038235","5952","5498","5332","5527","4926","4715","5184","4590","4387","4814","3901","3602","4797","4419","4290",""
"MA200-0416","21435","60","1","1.10","1.4","2023-05-09T09:31:30","120","2023/05/09","09:31:30","-15.77720582485199","35.02343416400254","6.6","14","30","64","85","-1496","24340","-3939","5","150","150.36","115.68","34.69","27.66","43.1","13.98","89924","27.19","DUALSPOT-UV-BLUE-GREEN-RED-IR","783384","724714","910602","10.140429","2.728330","-0.003330","755048","904950","762344","7.283752","1.905620","-0.008872","853031","909728","813409","6.035865","1.545321","-0.014269","851822","936052","868586","4.798985","1.195806","-0.021919","729411","859653","954089","3.361305","0.859498","-0.037221","30413","29687","29419","32724","31257","30738","32120","30226","29573","32436","30118","29349","32666","29962","29034",""
"MA200-0416","21436","60","1","1.10","1.4","2023-05-09T09:32:00","120","2023/05/09","09:32:00","-15.775558888912201","35.02352282963693","7.1","14","30","64","85","-1348","24132","-3355","5","150","149.51","115.47","34.03","27.67","43.2","14.02","89820","27.25","DUALSPOT-UV-BLUE-GREEN-RED-IR","782448","724349","910419","10.261312","2.762615","-0.005295","754530","904800","762352","7.374271","1.929176","-0.025536","852843","909929","813699","6.112421","1.564866","-0.035857","845425","929353","862461","4.862838","1.212121","-0.044307","729628","860103","954682","3.407392","0.870968","-0.077481","6148","5917","5831","5811","5131","4890","5504","4768","4514","5547","4809","4564","5575","4708","4410",""
"MA200-0416","21437","60","1","1.10","1.4","2023-05-09T09:32:30","120","2023/05/09","09:32:30","-15.773884177207947","35.02405016310513","7.5","14","30","64","85","-3876","23940","-3684","5","150","149.90","115.55","34.34","27.68","43.2","14.03","89808","27.25","DUALSPOT-UV-BLUE-GREEN-RED-IR","762251","715352","904406","11.737322","3.208164","0.001798","741896","900512","762616","8.680971","2.315504","-0.000826","840347","906459","814223","7.258284","1.898890","-0.003673","835135","926737","863313","5.836646","1.490754","-0.009027","722602","857974","955053","4.151020","1.084485","-0.011587","75025","76201","76643","83831","83393","83234","82328","80749","80190","84549","81398","80317","89899","86851","85773",""
"MA200-0416","21438","60","1","1.10","1.4","2023-05-09T09:33:00","120","2023/05/09","09:33:00","-15.772269666194916","35.0248841624707","7.5","15","30","64","85","-3742","24038","-3226","5","150","150.43","116.03","34.39","27.69","43.3","14.07","89896","27.25","DUALSPOT-UV-BLUE-GREEN-RED-IR","753455","709322","897976","12.663408","3.486435","0.001463","739589","900042","763051","9.459289","2.542657","-0.002279","837743","905724","814306","7.973450","2.104359","-0.005473","832334","925415","862724","6.455103","1.665318","-0.010666","720904","857146","954645","4.606560","1.210237","-0.022319","46879","47520","47764","49727","48960","48677","51172","49597","49032","53475","50919","50031","54844","51075","49731",""
"MA200-0416","21439","60","1","1.10","1.4","2023-05-09T09:33:30","120","2023/05/09","09:33:30","-15.770785212516785","35.025633830577135","6.6","15","30","64","85","-4288","23996","-3320","5","150","150.03","115.55","34.48","27.70","43.3","14.08","89948","27.25","DUALSPOT-UV-BLUE-GREEN-RED-IR","756704","716196","908903","13.221329","3.662828","0.005770","732885","896072","761212","9.936352","2.688026","0.002861","835237","906769","816700","8.387154","2.229076","0.001672","825986","921605","860435","6.803080","1.768214","-0.001788","716923","854668","952920","4.863968","1.285382","-0.006194","28359","30052","30701","30605","31259","31501","29723","30034","30146","30212","29944","29849","31118","30449","30208",""
"MA200-0416","21440","60","1","1.10","1.4","2023-05-09T09:34:00","120","2023/05/09","09:34:00","-15.769294738769531","35.02646499685943","6.4","15","30","64","85","-4032","24120","-2600","5","150","150.29","115.31","34.98","27.71","43.3","14.09","90028","27.25","DUALSPOT-UV-BLUE-GREEN-RED-IR","751987","715713","910638","14.259779","3.987705","0.002928","729002","895653","762450","10.827106","2.958006","-0.000099","826950","901688","813656","9.186918","2.467399","-0.002682","823946","922807","862893","7.486387","1.967042","-0.007806","715323","855162","954533","5.370050","1.430601","-0.014798","52893","54553","55198","57264","57219","57202","57580","56567","56195","59450","57030","56167","61308","57997","56794",""
"MA200-0416","21441","60","1","1.10","1.4","2023-05-09T09:34:30","120","2023/05/09","09:34:30","-15.76796144247055","35.02727949619293","6.1","15","30","64","85","-3980","24157","-3003","5","150","150.40","115.48","34.92","27.71","43.2","14.05","90068","27.25","DUALSPOT-UV-BLUE-GREEN-RED-IR","740791","705733","898279","14.386747","4.028432","0.005406","728974","896336","763248","10.928228","2.987909","-0.002875","827143","902511","814607","9.274405","2.492028","-0.011252","823720","923093","863342","7.558138","1.987029","-0.015861","715071","855213","954723","5.422363","1.443600","-0.059186","6458","6850","7002","6491","6348","6293","6289","5855","5695","6233","5741","5566","6328","5200","4790",""
"MA200-0416","21442","60","1","1.10","1.4","2023-05-09T09:35:00","120","2023/05/09","09:35:00","-15.766446828842163","35.027939826250076","5.8","15","30","64","85","-4380","23861","-2603","5","150","149.70","115.35","34.34","27.72","43.1","14.05","90172","27.25","DUALSPOT-UV-BLUE-GREEN-RED-IR","742735","708695","902706","14.604189","4.092588","-0.000865","726431","894280","761926","11.101400","3.037601","-0.004720","824568","900661","813276","9.422338","2.533465","-0.009343","820717","920560","861275","7.680356","2.020401","-0.016490","713465","853834","953417","5.508697","1.467757","-0.016223","11071","10972","10933","11129","10726","10574","10647","10017","9785","10629","9749","9434","10455","9825","9597",""
"MA200-0416","21443","60","1","1.10","1.4","2023-05-09T09:35:30","120","2023/05/09","09:35:30","-15.764904975891113","35.02798932790756","6.2","15","30","64","85","-3755","24176","-3223","5","150","149.96","115.31","34.65","27.73","43.1","14.05","90272","27.25","DUALSPOT-UV-BLUE-GREEN-RED-IR","743240","709813","904484","14.765488","4.142656","0.002978","726719","895329","763029","11.222735","3.072710","-0.004780","824936","901620","814313","9.524233","2.561241","-0.015255","823031","923617","864295","7.763849","2.042300","-0.026836","710458","850562","949843","5.567566","1.482639","-0.049540","8215","8487","8593","7800","7511","7403","7336","6655","6405","7264","6341","6011","7131","6000","5589",""
"MA200-0416","21444","60","1","1.10","1.4","2023-05-09T09:36:00","120","2023/05/09","09:36:00","-15.763351261615753","35.02748132683337","6.6","15","30","64","85","-4460","23780","-2572","5","150","149.33","115.71","33.61","27.74","43.1","14.06","90376","27.31","DUALSPOT-UV-BLUE-GREEN-RED-IR","743616","710571","905689","14.847956","4.168268","0.005903","727089","896173","763894","11.285944","3.090936","-0.000900","824997","902053","814826","9.580285","2.576184","-0.013236","823062","923954","864679","7.808346","2.052141","-0.061313","714736","855866","955853","5.598806","1.490279","-0.049069","4186","4475","4588","4049","4019","4008","4021","3690","3569","3858","2937","2608","3771","3175","2958",""
"MA200-0416","21445","60","1","1.10","1.4","2023-05-09T09:36:30","120","2023/05/09","09:36:30","-15.762754142284393","35.026656994596124","6.0","15","30","64","84","-5788","23288","-3065","5","150","149.09","114.88","34.21","27.75","43.1","14.08","90472","27.31","DUALSPOT-UV-BLUE-GREEN-RED-IR","741714","709056","903939","14.910383","4.187233","0.001827","725694","894746","762775","11.334908","3.103441","-0.021521","823687","900896","813869","9.622098","2.586948","-0.023645","821229","922111","863026","7.842289","2.060503","-0.039008","709409","849630","948937","5.623615","1.497869","0.006402","3191","3256","3281","3159","2709","2540","3021","2612","2461","2964","2452","2269","3016","3099","3129",""
"MA200-0416","21446","60","1","1.10","1.4","2023-05-09T09:37:00","120","2023/05/09","09:37:00","-15.763107299804688","35.02545216307044","3.9","15","30","64","85","-3172","23808","-3587","5","150","149.49","115.68","33.81","27.76","43.2","14.13","90564","27.31","DUALSPOT-UV-BLUE-GREEN-RED-IR","743189","710783","906307","14.971731","4.206594","0.006668","726756","896363","764237","11.379521","3.115959","-0.005139","824750","902313","815258","9.658629","2.597361","-0.003635","824243","925662","866439","7.871067","2.069694","0.014186","710579","851146","950702","5.642116","1.502502","-0.043013","3115","3363","3460","2859","2744","2701","2621","2556","2533","2496","2727","2809","2234","1914","1797",""
"MA200-0416","21447","60","1","1.10","1.4","2023-05-09T09:37:30","120","2023/05/09","09:37:30","-15.763285219669342","35.02440766245127","4.1","15","30","64","85","-2926","24034","-2019","5","150","150.05","115.64","34.41","27.78","43.3","14.17","90552","27.38","DUALSPOT-UV-BLUE-GREEN-RED-IR","744218","712143","908247","15.051649","4.231508","0.004128","727692","897850","765592","11.432043","3.129179","-0.023553","825125","903010","815926","9.701008","2.607285","-0.042383","824409","926116","866905","7.904304","2.075124","-0.199127","711092","851923","951594","5.665207","1.505791","-0.432175","4059","4252","4328","3367","2848","2652","3042","2394","2156","2883","1583","1120","2789","1335","808",""
"MA200-0416","21448","60","1","1.10","1.4","2023-05-09T09:38:00","120","2023/05/09","09:38:00","-15.763404726982117","35.02322632819414","4.0","15","30","64","84","-4476","23952","-1784","5","150","149.96","115.27","34.69","27.79","43.5","14.26","90672","27.38","DUALSPOT-UV-BLUE-GREEN-RED-IR","742330","710631","906493","15.112736","4.250257","0.001791","725692","895672","763851","11.474606","3.140062","-0.022726","823793","901763","814897","9.735394","2.615666","-0.036059","823364","925124","866030","7.931760","2.081329","-0.064244","710113","850873","950468","5.683559","1.511584","0.010993","3112","3174","3199","2737","2325","2171","2476","2005","1833","2389","1794","1582","2224","2332","2372",""
"MA200-0416","21449","60","1","1.10","1.4","2023-05-09T09:38:30","120","2023/05/09","09:38:30","-15.763759195804596","35.022502494975924","1.0","15","30","64","85","-2079","24020","-2800","5","150","149.76","115.12","34.65","27.81","43.6","14.30","90612","27.44","DUALSPOT-UV-BLUE-GREEN-RED-IR","739523","708285","903666","15.179117","4.268232","-0.010689","724037","893926","762431","11.519343","3.152193","-0.013731","825543","903947","816918","9.772141","2.624315","-0.043450","819340","920826","862067","7.959110","2.087981","-0.044195","711460","852647","952494","5.704269","1.515764","-0.142647","3387","3047","2914","2881","2595","2487","2650","2072","1860","2383","1926","1763","2513","1685","1385",""
"MA200-0416","21450","60","1","1.10","1.4","2023-05-09T09:39:00","120","2023/05/09","09:39:00","-15.763467490673065","35.0230524931103","4.9","15","30","64","84","-4016","24404","-3504","5","150","149.72","115.49","34.23","27.82","43.6","14.31","90672","27.44","DUALSPOT-UV-BLUE-GREEN-RED-IR","731651","704860","901838","16.047245","4.548919","0.007025","717588","890430","761183","12.254549","3.382410","0.005922","819548","901417","816279","10.420597","2.824079","0.004937","813307","917595","860434","8.509791","2.253390","0.002133","708034","850906","951699","6.107088","1.634807","-0.000620","44149","48169","49759","47190","49864","50883","46614","48457","49142","47836","48486","48720","48722","48587","48538",""
"MA200-0416","21451","60","1","1.10","1.4","2023-05-09T09:39:30","120","2023/05/09","09:39:30","-15.763269603252411","35.02414166368544","4.1","15","30","64","85","-951","24088","-932","5","150","149.70","115.43","34.26","27.84","43.5","14.27","90556","27.50","DUALSPOT-UV-BLUE-GREEN-RED-IR","735099","708413","906509","16.095390","4.565454","0.011171","719744","893304","763738","12.289708","3.394300","0.013145","820682","902832","817665","10.449446","2.833456","0.011036","815930","920654","863374","8.530211","2.259672","0.005547","709198","852427","953431","6.124826","1.639234","-0.045350","2449","2834","2986","2257","2572","2692","2074","2271","2345","1774","1839","1862","2146","1804","1680",""
"MA200-0416","21452","60","1","1.10","1.4","2023-05-09T09:40:00","120","2023/05/09","09:40:00","-15.763107717037201","35.02536049671471","3.5","15","30","64","84","-4780","24636","-1136","5","150","150.21","115.79","34.42","27.86","43.3","14.25","90568","27.50","DUALSPOT-UV-BLUE-GREEN-RED-IR","734299","707853","905953","16.140627","4.580499","0.008819","719768","893506","763988","12.318792","3.403080","0.001701","816729","898640","813881","10.473133","2.839189","-0.032643","816777","921704","864424","8.550383","2.265632","-0.000950","709883","853324","954465","6.138452","1.642688","-0.040978","2294","2567","2675","1862","1890","1901","1698","1382","1265","1747","1737","1733","1643","1401","1313",""
"MA200-0416","21453","60","1","1.10","1.4","2023-05-09T09:40:30","120","2023/05/09","09:40:30","-15.762767970561981","35.02650916390121","4.5","15","30","64","84","1228","24240","-1664","5","150","150.09","115.55","34.54","27.87","43.3","14.23","90508","27.50","DUALSPOT-UV-BLUE-GREEN-RED-IR","734652","708494","906943","16.201101","4.599174","0.002725","719831","893869","764402","12.359822","3.415292","-0.000475","816815","898994","814279","10.508425","2.849358","-0.004954","817017","922196","864904","8.577145","2.271367","-0.073063","709756","853340","954498","6.156952","1.646728","-0.094509","3073","3175","3215","2632","2621","2616","2535","2444","2410","2323","1665","1428","2236","1633","1413",""
"MA200-0416","21454","60","1","1.10","1.4","2023-05-09T09:41:00","120","2023/05/09","09:41:00","-15.76258385181427","35.02712916396558","5.4","15","30","64","85","-2673","24438","7376","5","150","149.45","115.51","33.93","27.90","43.4","14.30","90408","27.56","DUALSPOT-UV-BLUE-GREEN-RED-IR","734723","708847","907523","16.257921","4.614452","-0.008246","720442","894919","765375","12.400703","3.423048","-0.077248","816840","899222","814552","10.539872","2.855622","-0.075025","817679","923129","865845","8.601566","2.275723","-0.133201","710027","853759","955049","6.176012","1.650488","-0.131488","2889","2644","2547","2623","1694","1340","2260","1532","1262","2121","1288","988","2305","1548","1272",""
"MA200-0416","21455","60","1","1.10","1.4","2023-05-09T09:41:30","120","2023/05/09","09:41:30","-15.764122366905212","35.02795682661235","6.5","15","30","64","84","-1548","24228","-3816","5","150","150.16","115.47","34.69","27.93","43.4","14.32","90300","27.56","DUALSPOT-UV-BLUE-GREEN-RED-IR","729674","706452","905944","16.761314","4.776214","0.005304","716148","892213","764065","12.823870","3.553737","0.002920","812746","897087","813552","10.911126","2.966844","-0.000337","813372","920361","864049","8.914035","2.366954","-0.004451","707390","852037","953782","6.405544","1.716759","-0.008747","25605","27391","28103","27166","27930","28223","26692","26621","26594","27148","26387","26112","27767","26689","26294",""
"MA200-0416","21456","60","1","1.10","1.4","2023-05-09T09:42:00","120","2023/05/09","09:42:00","-15.765570342540741","35.02816299535334","6.3","15","30","64","84","-1635","24160","-4200","5","150","149.33","115.24","34.09","27.95","43.3","14.31","90212","27.63","DUALSPOT-UV-BLUE-GREEN-RED-IR","725020","706594","909105","17.291896","4.951822","0.008251","707658","886674","761338","13.273395","3.697784","0.007788","808667","897064","815362","11.290288","3.084766","0.005837","811454","922090","867252","9.228347","2.462500","0.003923","705947","853017","956172","6.640508","1.787558","0.003722","27044","30255","31544","28918","31323","32252","27317","28718","29244","27365","28118","28393","28483","29011","29205",""
"MA200-0416","21457","60","1","1.10","1.4","2023-05-09T09:42:30","120","2023/05/09","09:42:30","-15.767193734645844","35.027823159471154","6.6","15","30","64","84","-1572","24160","-3984","5","150","150.23","115.51","34.71","27.98","43.1","14.28","90120","27.63","DUALSPOT-UV-BLUE-GREEN-RED-IR","719820","704069","907393","18.202330","5.247244","0.005537","703183","883740","759841","14.029548","3.933757","0.003617","804647","894985","814444","11.968185","3.293090","0.002529","808244","920609","866726","9.806648","2.634352","-0.001576","699027","846165","949137","7.073965","1.913184","-0.007245","46293","49986","51482","48527","50394","51121","48722","49824","50243","50227","49668","49463","52419","50555","49863",""
"MA200-0416","21458","60","1","1.10","1.4","2023-05-09T09:43:00","120","2023/05/09","09:43:00","-15.76840054988861","35.02715616300702","6.3","15","30","64","84","-2168","24236","-3404","5","150","150.35","115.00","35.35","27.98","42.9","14.19","90072","27.63","DUALSPOT-UV-BLUE-GREEN-RED-IR","721099","706193","910667","18.471412","5.336086","0.005109","703954","885601","761805","14.251503","4.004604","0.003558","804999","896285","815943","12.167267","3.354996","0.001296","803813","916301","862993","9.977911","2.686984","-0.000036","699863","847674","951079","7.202308","1.952230","-0.001984","13743","14761","15175","14307","14857","15071","14372","14539","14602","14940","14937","14935","15590","15430","15370",""
"MA200-0416","21459","60","1","1.10","1.4","2023-05-09T09:43:30","120","2023/05/09","09:43:30","-15.769817411899567","35.02629849500954","6.1","15","30","64","84","-2256","24192","-3160","5","150","149.51","115.24","34.27","27.98","42.7","14.12","90020","27.69","DUALSPOT-UV-BLUE-GREEN-RED-IR","720678","706087","910752","18.544130","5.360552","0.008407","704104","886128","762403","14.309852","4.023857","0.009234","804377","895854","815692","12.217589","3.370219","0.001896","803036","915677","862474","10.020627","2.697599","-0.028953","699336","847218","950661","7.234195","1.961647","-0.001343","3706","4193","4391","3753","4164","4325","3625","3687","3711","3719","3107","2882","3865","3838","3828",""
"MA200-0416","21460","60","1","1.10","1.4","2023-05-09T09:44:00","120","2023/05/09","09:44:00","-15.771134495735168","35.02558616362512","6.3","15","30","64","84","-1873","24350","-3003","5","150","149.70","115.55","34.14","28.01","42.5","14.10","89932","27.69","DUALSPOT-UV-BLUE-GREEN-RED-IR","716110","701851","905395","18.588832","5.373958","0.001110","704461","886799","763045","14.342540","4.031671","-0.025220","805233","896995","816797","12.244900","3.376752","-0.029146","804010","916945","863737","10.042740","2.702529","-0.050398","700320","848537","952165","7.252296","1.964148","-0.372833","2272","2306","2320","2097","1696","1540","1962","1588","1446","1919","1448","1274","2188","1023","590",""
"MA200-0416","21461","60","1","1.10","1.4","2023-05-09T09:44:30","120","2023/05/09","09:44:30","-15.772516787052155","35.02487316168845","3.9","15","30","64","84","-3040","24004","-4844","5","150","150.13","115.42","34.70","28.02","42.5","14.07","89892","27.69","DUALSPOT-UV-BLUE-GREEN-RED-IR","715725","701895","905705","18.678274","5.402843","0.005056","704385","887088","763424","14.408541","4.050291","-0.006512","805038","897141","816999","12.297946","3.390121","-0.023376","803519","916703","863563","10.085162","2.713091","-0.030492","700032","848375","952054","7.281246","1.971707","-0.030237","4551","4888","5026","4239","3977","3875","3815","3198","2963","3687","3053","2820","3503","3042","2871",""
"MA200-0416","21462","60","1","1.10","1.4","2023-05-09T09:45:00","120","2023/05/09","09:45:00","-15.773137211799622","35.02451882697642","5.8","15","30","64","84","-2620","24316","-4200","5","150","149.76","115.31","34.45","28.05","42.5","14.13","89868","27.75","DUALSPOT-UV-BLUE-GREEN-RED-IR","714808","701648","905756","18.764790","5.427839","-0.002585","703835","887070","763616","14.469606","4.065754","-0.018594","803936","896493","816592","12.350912","3.401762","-0.046501","803451","917084","864071","10.126666","2.722627","-0.045563","699438","847958","951708","7.311538","1.978769","-0.058934","4406","4261","4202","3925","3327","3093","3813","2805","2422","3610","2777","2470","3669","2863","2564",""
"MA200-0416","21463","60","1","1.10","1.4","2023-05-09T09:45:30","120","2023/05/09","09:45:30","-15.772853255271912","35.02379382960498","4.7","15","30","64","84","-3287","23924","-4436","5","150","149.45","115.39","34.05","28.08","42.7","14.20","89880","27.75","DUALSPOT-UV-BLUE-GREEN-RED-IR","713214","701795","907001","19.173476","5.557861","0.005170","702515","887209","764394","14.797390","4.165054","0.002416","802751","896747","817437","12.632416","3.485012","0.000238","803075","918011","865447","10.359623","2.789856","-0.003001","699293","848732","952982","7.482137","2.026825","-0.008877","20802","22427","23091","21057","21618","21838","20253","20297","20314","20254","19807","19643","20652","19714","19366",""
"MA200-0416","21464","60","1","1.10","1.4","2023-05-09T09:46:00","120","2023/05/09","09:46:00","-15.77195006608963","35.022754330188036","5.0","15","30","64","84","-3284","24476","-3176","5","150","150.09","115.67","34.42","28.10","42.7","14.22","89852","27.81","DUALSPOT-UV-BLUE-GREEN-RED-IR","714407","703163","908890","19.211484","5.570080","0.005285","702872","887812","765005","14.822828","4.172386","-0.003101","799282","892997","814061","12.653028","3.490943","-0.003785","804324","919536","866960","10.376659","2.793473","-0.062107","699930","849577","953964","7.493677","2.030157","-0.005655","1930","2084","2148","1630","1578","1558","1479","1430","1411","1477","1054","898","1393","1352","1336",""
"MA200-0416","21465","60","1","1.10","1.4","2023-05-09T09:46:30","120","2023/05/09","09:46:30","-15.771022140979767","35.02269449643791","5.5","15","30","64","84","-4160","23788","-5520","5","150","150.43","116.63","33.80","28.12","42.5","14.20","89920","27.81","DUALSPOT-UV-BLUE-GREEN-RED-IR","713781","702969","908876","19.303122","5.599113","0.006012","698183","882306","760421","14.894989","4.194772","0.005998","798848","892862","814069","12.714723","3.509372","0.003202","804668","920267","867747","10.426627","2.806384","-0.016720","699822","849668","954151","7.531816","2.040988","-0.003773","4615","5045","5220","4586","4910","5036","4391","4526","4578","4298","3832","3660","4568","4476","4442",""
"MA200-0416","21466","60","1","1.10","1.4","2023-05-09T09:47:00","120","2023/05/09","09:47:00","-15.770071983337402","35.0232713278383","2.4","15","30","64","84","-3732","24000","-3192","5","150","150.43","116.15","34.28","28.14","42.4","14.18","89948","27.88","DUALSPOT-UV-BLUE-GREEN-RED-IR","712621","701974","907674","19.336516","5.609058","0.000661","702145","887456","764856","14.915414","4.198702","-0.063066","797523","891521","812859","12.731161","3.511553","-0.248727","802295","917660","865275","10.437169","2.805478","0.220907","698494","848104","952424","7.542585","2.041347","0.746520","1688","1704","1710","1303","849","671","1174","528","282","910","-265","-697","1295","146","-279",""
"MA200-0416","21467","60","1","1.10","1.4","2023-05-09T09:47:30","120","2023/05/09","09:47:30","-15.76955634355545","35.023339830338955","2.4","15","30","64","84","-4542","23934","-3623","5","150","149.53","115.21","34.31","28.17","42.3","14.17","90008","27.88","DUALSPOT-UV-BLUE-GREEN-RED-IR","709796","699441","904537","19.385360","5.622835","-0.004165","699799","884702","762551","14.946390","4.205406","-0.041043","799795","894245","815372","12.753325","3.514563","-0.236564","805623","921594","869018","10.455750","2.808893","-0.105045","700423","850582","955216","7.557382","2.044828","-0.053565","2490","2358","2304","1993","1448","1235","1597","728","397","1618","998","771","1794","1417","1277",""
"MA200-0416","21468","60","1","1.10","1.4","2023-05-09T09:48:00","120","2023/05/09","09:48:00","-15.768986582756042","35.02318266220391","2.4","15","30","64","84","-5424","23172","-3116","5","150","150.18","115.94","34.24","28.19","42.3","14.18","90056","27.88","DUALSPOT-UV-BLUE-GREEN-RED-IR","710033","699869","905147","19.418392","5.631820","-0.006437","700120","885282","763065","14.967370","4.209341","-0.068964","799706","894273","815437","12.772602","3.518438","-0.061712","800262","915583","863365","10.469290","2.810198","-1.110524","700567","850854","955539","7.567152","2.046623","-0.142032","1673","1541","1487","1341","851","660","1380","939","771","1171","382","92","1177","732","567",""
"MA200-0416","21469","60","1","1.10","1.4","2023-05-09T09:48:30","120","2023/05/09","09:48:30","-15.768207967281342","35.02317049540579","3.3","15","30","64","84","-5950","23473","-4096","5","150","149.37","115.79","33.58","28.21","42.2","14.15","90128","27.94","DUALSPOT-UV-BLUE-GREEN-RED-IR","710041","700058","905565","19.457820","5.644621","0.007396","700554","886039","763781","14.992943","4.216409","-0.004648","799673","894412","815605","12.793548","3.522968","-0.042267","800998","916571","864313","10.484479","2.813190","-0.074463","696545","846023","950139","7.578760","2.048578","-0.178249","2000","2238","2336","1637","1560","1530","1501","1119","974","1316","893","739","1400","813","595",""
"MA200-0416","21470","60","1","1.10","1.4","2023-05-09T09:49:00","120","2023/05/09","09:49:00","-15.767872869968414","35.02320099622011","0.3","15","30","64","84","36","24348","-2488","5","150","149.94","115.75","34.18","28.25","42.1","14.16","90172","28.00","DUALSPOT-UV-BLUE-GREEN-RED-IR","706982","699913","907141","20.055006","5.834152","0.004749","697787","885410","764353","15.463408","4.358829","0.002178","796805","893707","815988","13.193954","3.643399","0.001882","798881","916265","864873","10.811685","2.908176","-0.002208","695097","845682","950405","7.814392","2.117979","-0.000476","30302","32564","33493","30130","30884","31180","28719","29248","29450","28360","27876","27699","28437","28360","28331",""
"MA200-0416","21471","60","1","1.10","1.4","2023-05-09T09:49:30","120","2023/05/09","09:49:30","-15.76853883266449","35.02318532578647","2.8","15","30","64","83","-1076","23708","-5388","5","150","149.70","115.27","34.42","28.28","42.0","14.13","90100","28.00","DUALSPOT-UV-BLUE-GREEN-RED-IR","705262","698877","906171","20.171824","5.874233","0.008611","695915","883692","763100","15.551491","4.386461","0.004230","795942","893247","815766","13.265863","3.664249","-0.003150","798264","916035","864817","10.870366","2.924663","-0.008099","694518","845291","950124","7.856941","2.128805","-0.032402","5952","6839","7203","5664","5950","6063","5179","5028","4971","5107","4805","4693","5156","4393","4109",""
"MA200-0416","21472","60","1","1.10","1.4","2023-05-09T09:50:00","120","2023/05/09","09:50:00","-15.769089460372925","35.02317616343498","2.1","15","30","64","84","-1504","24128","-6404","5","150","150.49","116.11","34.38","28.29","41.9","14.12","90048","28.06","DUALSPOT-UV-BLUE-GREEN-RED-IR","707523","701711","910194","20.315652","5.917179","0.000575","698189","887110","766230","15.649672","4.414911","-0.001966","797096","895010","817499","13.345369","3.686052","-0.008518","800246","918633","867371","10.929715","2.940124","-0.018007","695734","846987","952103","7.898416","2.139752","-0.022163","7275","7336","7361","6268","6134","6081","5684","5264","5104","5128","4511","4284","4990","4448","4246",""
"MA200-0416","21473","60","1","1.10","1.4","2023-05-09T09:50:30","120","2023/05/09","09:50:30","-15.769582509994507","35.0233799982816","3.3","15","30","64","84","908","24816","-4952","5","150","150.03","115.67","34.36","28.32","41.8","14.11","89988","28.06","DUALSPOT-UV-BLUE-GREEN-RED-IR","706984","701762","910605","20.443502","5.956547","0.002411","693761","882031","762048","15.746338","4.442590","-0.003342","792793","890666","813721","13.427103","3.708648","-0.007870","794827","912814","862002","10.994000","2.957499","-0.012770","695636","847131","952363","7.946941","2.152175","-0.029389","6491","6730","6828","6195","5972","5885","5866","5460","5305","5575","5073","4889","5860","5051","4750",""
"MA200-0416","21474","60","1","1.10","1.4","2023-05-09T09:51:00","120","2023/05/09","09:51:00","-15.770230650901794","35.02317232824862","0.0","15","30","64","84","-4928","23952","-3544","5","150","149.90","115.51","34.38","28.35","41.8","14.15","89948","28.13","DUALSPOT-UV-BLUE-GREEN-RED-IR","701878","697018","904574","20.508162","5.974661","-0.004412","694100","882792","762798","15.792833","4.454368","-0.016577","792597","890674","813782","13.463522","3.716814","-0.038402","795032","913266","862484","11.022783","2.962399","-0.128122","695932","847671","953049","7.970297","2.157455","-0.061695","3287","3094","3014","2983","2539","2364","2617","1971","1725","2499","1429","1036","2824","2145","1893",""
"MA200-0416","21475","60","1","1.10","1.4","2023-05-09T09:51:30","120","2023/05/09","09:51:30","-15.77107697725296","35.02264032699168","4.7","15","30","64","84","-2208","23524","-2112","5","150","150.23","116.27","33.96","28.38","41.8","14.14","89928","28.13","DUALSPOT-UV-BLUE-GREEN-RED-IR","702479","697865","905886","20.562822","5.992437","0.006715","694392","883383","763438","15.827254","4.465128","0.005633","793284","891671","814762","13.490992","3.723234","-0.028244","796715","915334","864469","11.042830","2.967346","-0.024366","696666","848657","954190","7.985809","2.161099","-0.045915","2761","3074","3203","2194","2348","2409","1961","1569","1420","1729","1461","1363","1863","1499","1363",""
"MA200-0416","21476","60","1","1.10","1.4","2023-05-09T09:52:00","120","2023/05/09","09:52:00","-15.772298038005829","35.02316082827747","10.3","15","30","64","83","-3250","23742","-1219","5","150","149.09","115.75","33.33","28.41","41.7","14.14","89844","28.19","DUALSPOT-UV-BLUE-GREEN-RED-IR","700950","696669","904490","20.626338","6.014105","0.010021","693506","882503","762747","15.868568","4.476207","-0.006674","792307","890780","814006","13.524151","3.732067","-0.008546","794578","913101","862413","11.067977","2.971285","-0.149508","695790","847719","953165","8.005125","2.165417","-0.055248","3222","3817","4062","2645","2464","2392","2378","2199","2131","2179","1185","821","2331","1809","1616",""
"MA200-0416","21477","60","1","1.10","1.4","2023-05-09T09:52:30","120","2023/05/09","09:52:30","-15.773245990276337","35.02431816235185","0.9","15","30","64","83","-951","24380","-2920","5","150","149.98","116.42","33.56","28.44","41.7","14.16","89864","28.25","DUALSPOT-UV-BLUE-GREEN-RED-IR","703358","699462","908367","20.705164","6.038467","0.004471","694631","884349","764459","15.924315","4.491878","-0.002241","793862","892877","816033","13.571741","3.744321","-0.012723","797992","917325","866492","11.107563","2.981770","-0.011225","697431","849932","955748","8.033508","2.172560","-0.026206","3976","4264","4382","3549","3461","3427","3393","3031","2894","3411","3134","3033","3405","2973","2813",""
"MA200-0416","21478","60","1","1.10","1.4","2023-05-09T09:53:00","120","2023/05/09","09:53:00","-15.776165187358856","35.0235016644001","17.7","15","30","64","83","-4348","23648","-4720","5","150","149.43","115.41","34.02","28.47","41.7","14.20","89780","28.25","DUALSPOT-UV-BLUE-GREEN-RED-IR","700220","698506","908498","21.076810","6.159599","0.006164","692924","884489","765516","16.233553","4.588039","0.004378","791101","891808","815875","13.835795","3.824133","0.002447","795366","916079","866014","11.326550","3.045189","-0.002173","696001","849430","955744","8.199659","2.219984","-0.005549","18914","20913","21738","19863","20954","21383","18995","19477","19661","19036","18702","18579","20111","19473","19236",""
"MA200-0416","21479","60","1","1.10","1.4","2023-05-09T09:53:30","120","2023/05/09","09:53:30","-15.780436515808105","35.024151330813766","11.4","15","30","64","83","-3376","24344","-3188","5","150","149.94","115.88","34.06","28.50","41.6","14.20","90020","28.25","DUALSPOT-UV-BLUE-GREEN-RED-IR","698642","698354","909295","21.372006","6.257103","0.006968","691474","884210","765904","16.472580","4.663772","0.005953","789718","891635","816288","14.044618","3.888482","0.004465","794963","916755","867145","11.501180","3.097487","0.002188","690860","843949","949975","8.328638","2.258883","0.004148","14962","16814","17580","15291","16483","16954","14961","15685","15962","15119","15404","15509","15548","15954","16105",""
"MA200-0416","21480","60","1","1.10","1.4","2023-05-09T09:54:00","120","2023/05/09","09:54:00","-15.78333842754364","35.022994162514806","12.5","15","30","64","84","-7952","23492","-3696","5","150","150.27","115.84","34.43","28.53","41.6","14.20","90172","28.25","DUALSPOT-UV-BLUE-GREEN-RED-IR","696407","697705","909452","21.810632","6.408249","0.008437","689250","883047","765564","16.837448","4.782564","0.006976","787573","890796","816157","14.369674","3.991288","0.005664","793644","916627","867582","11.774753","3.180582","0.002466","689923","843741","950196","8.531193","2.319852","0.001995","22240","25782","27255","23350","25575","26458","23296","24787","25361","23693","24211","24402","24426","24734","24849",""
"MA200-0416","21481","60","1","1.10","1.4","2023-05-09T09:54:30","120","2023/05/09","09:54:30","-15.78539651632309","35.02143466286361","16.6","16","30","64","83","-2680","24356","-1964","5","150","149.45","115.79","33.65","28.55","41.3","14.14","90164","28.25","DUALSPOT-UV-BLUE-GREEN-RED-IR","693021","695524","907413","22.030652","6.482424","0.008387","686900","881305","764586","17.019262","4.840505","0.006982","784929","888916","814909","14.526234","4.039615","0.005451","790195","913652","865193","11.906346","3.219682","0.002495","691902","846888","954071","8.628700","2.346812","-0.008302","11160","12945","13690","11640","12763","13209","11225","11922","12190","11401","11656","11750","11763","11191","10977",""
"MA200-0416","21482","60","1","1.10","1.4","2023-05-09T09:55:00","120","2023/05/09","09:55:00","-15.785704016685486","35.016738997772336","16.4","16","30","64","83","-4508","24056","-4740","5","150","149.70","115.59","34.10","28.57","41.1","14.06","90284","28.25","DUALSPOT-UV-BLUE-GREEN-RED-IR","687777","691934","903834","22.420094","6.612156","0.006902","686045","882002","765960","17.347488","4.948021","0.007702","784712","890329","816918","14.815922","4.131042","0.005948","785447","909596","861937","12.150030","3.294051","0.003708","688281","843489","950672","8.811462","2.401424","0.001961","19788","22342","23411","21050","23370","24296","20806","22256","22817","21150","21877","22148","22086","22369","22475",""
"MA200-0416","21483","60","1","1.10","1.4","2023-05-09T09:55:30","120","2023/05/09","09:55:30","-15.787652850151062","35.01395433116704","8.7","16","30","64","83","-5568","23840","-2592","5","150","150.09","115.83","34.26","28.60","40.8","14.00","90508","28.25","DUALSPOT-UV-BLUE-GREEN-RED-IR","691527","696481","910221","22.583724","6.665125","0.005228","681304","876736","761666","17.479526","4.987901","0.001641","783493","889641","816537","14.931615","4.165303","0.000105","789860","915355","867622","12.247083","3.322285","-0.001891","687485","842961","950257","8.885616","2.421070","-0.018845","8297","9080","9408","8450","8628","8700","8292","8301","8305","8406","8267","8215","8943","8009","7660",""
"MA200-0416","21484","60","1","1.10","1.4","2023-05-09T09:56:00","120","2023/05/09","09:56:00","-15.788066983222961","35.013585498556495","4.0","16","30","64","83","-4344","24244","-168","5","150","149.59","116.09","33.51","28.62","40.7","13.96","90520","28.25","DUALSPOT-UV-BLUE-GREEN-RED-IR","685175","690981","903611","22.781832","6.726499","0.004139","680006","876005","761397","17.641614","5.035164","0.000800","782474","889359","816620","15.072714","4.205000","-0.002407","783635","908883","861734","12.365221","3.352953","-0.012953","691165","848011","956177","8.973579","2.443635","-0.020104","10023","10759","11067","10351","10456","10499","10091","9836","9737","10210","9182","8800","10585","9408","8967",""
"MA200-0416","21485","60","1","1.10","1.4","2023-05-09T09:56:30","120","2023/05/09","09:56:30","-15.787342488765717","35.0113876638934","8.1","16","30","64","83","-2872","24320","-2027","5","150","149.76","115.43","34.33","28.64","40.4","13.86","90444","28.31","DUALSPOT-UV-BLUE-GREEN-RED-IR","683004","690003","903150","23.054916","6.818355","0.006804","678845","875807","761764","17.865000","5.107630","0.006315","781253","889123","816860","15.264382","4.263984","0.003017","782590","908678","861956","12.525830","3.400910","0.000440","690398","847724","956179","9.089714","2.476986","-0.005456","13895","15715","16480","14346","15648","16170","13785","14264","14450","13959","14015","14036","14054","13571","13390",""
"MA200-0416","21486","60","1","1.10","1.4","2023-05-09T09:57:00","120","2023/05/09","09:57:00","-15.78755384683609","35.009967831894755","0.9","16","30","64","83","-3100","24364","-2908","5","150","149.90","115.04","34.86","28.67","40.2","13.83","90500","28.31","DUALSPOT-UV-BLUE-GREEN-RED-IR","685967","693933","908862","23.265430","6.889101","0.005763","676426","873660","760275","18.034308","5.160017","0.001589","779179","887615","815831","15.413327","4.310274","0.002224","780496","906978","860645","12.648862","3.436315","-0.005872","688836","846336","954831","9.179211","2.503060","-0.006101","10748","11920","12412","10910","11140","11232","10749","11024","11131","10730","10189","9988","10868","10448","10291",""
"MA200-0416","21487","60","1","1.10","1.4","2023-05-09T09:57:30","120","2023/05/09","09:57:30","-15.787539839744568","35.00961699895561","2.6","16","30","64","83","-3716","24064","-3252","5","150","150.36","116.07","34.29","28.69","40.1","13.80","90516","28.31","DUALSPOT-UV-BLUE-GREEN-RED-IR","677869","686065","898785","23.338460","6.913141","0.005987","678581","876805","763144","18.093204","5.177034","-0.001752","780189","889140","817337","15.463013","4.322850","-0.016041","782151","909235","862859","12.689615","3.446305","-0.024032","689932","847864","956643","9.210670","2.511197","-0.022417","3695","4118","4295","3761","3679","3646","3553","3045","2847","3522","2922","2699","3786","3314","3138",""
"MA200-0416","21488","60","1","1.10","1.4","2023-05-09T09:58:00","120","2023/05/09","09:58:00","-15.78744512796402","35.0089449994266","1.9","16","30","64","83","-4592","23811","-2896","5","150","149.96","115.35","34.61","28.71","40.0","13.77","90544","28.31","DUALSPOT-UV-BLUE-GREEN-RED-IR","682470","691242","905915","23.451020","6.951023","0.006292","677734","876266","762891","18.184144","5.203827","-0.001422","780232","889649","817997","15.544871","4.345864","-0.006154","782920","910564","864268","12.759448","3.464335","-0.018546","686070","843468","951795","9.264221","2.524649","-0.031087","5731","6429","6723","5844","5739","5697","5891","5521","5377","6073","5226","4911","6485","5430","5034",""
"MA200-0416","21489","60","1","1.10","1.4","2023-05-09T09:58:30","120","2023/05/09","09:58:30","-15.787213861942291","35.00792349874973","2.0","16","30","64","83","-3960","24024","-3128","5","150","149.80","115.90","33.89","28.72","39.8","13.71","90560","28.38","DUALSPOT-UV-BLUE-GREEN-RED-IR","682510","691589","906588","23.522526","6.975055","0.007447","678248","877271","763887","18.240568","5.222076","0.007101","779588","889226","817734","15.592921","4.359900","-0.000088","782738","910621","864405","12.798906","3.474027","-0.021988","685445","842868","951194","9.293762","2.532680","-0.011507","3623","4165","4393","3608","3992","4145","3441","3438","3437","3415","2869","2665","3560","3310","3216",""
"MA200-0416","21490","60","1","1.10","1.4","2023-05-09T09:59:00","120","2023/05/09","09:59:00","-15.787386953830719","35.00707016559318","1.6","16","30","64","83","-3569","24184","-2834","5","150","149.73","115.54","34.19","28.74","39.8","13.71","90540","28.38","DUALSPOT-UV-BLUE-GREEN-RED-IR","682172","691923","907479","23.654592","7.019830","0.007264","677935","877543","764364","18.341520","5.251920","-0.000061","775317","884964","813987","15.678729","4.384446","-0.003078","782665","911021","864976","12.869278","3.493374","-0.008356","685627","843446","952015","9.345470","2.546713","-0.013726","6713","7693","8106","6477","6471","6469","6165","5961","5881","6110","5678","5517","6251","5734","5540",""
"MA200-0416","21491","60","1","1.10","1.4","2023-05-09T09:59:30","120","2023/05/09","09:59:30","-15.787780463695526","35.00632199877873","1.3","16","30","64","83","-1600","24292","-1940","5","150","150.24","116.06","34.18","28.75","39.7","13.69","90524","28.38","DUALSPOT-UV-BLUE-GREEN-RED-IR","681069","691374","907153","23.795412","7.067741","0.007599","677025","877003","764139","18.456228","5.289198","0.006858","774829","884936","814230","15.777637","4.415184","0.004509","783030","911955","866050","12.952184","3.517455","-0.001494","685452","843560","952285","9.407089","2.563654","-0.010709","7126","8232","8699","7327","8084","8388","7075","7465","7617","7166","7067","7030","7416","6923","6738",""
"MA200-0416","21492","60","1","1.10","1.4","2023-05-09T10:00:00","120","2023/05/09","10:00:00","-15.788563013076782","35.00553033221513","0.0","16","30","64","82","-2556","24148","-2984","5","150","149.90","115.79","34.10","28.77","39.7","13.70","90496","28.44","DUALSPOT-UV-BLUE-GREEN-RED-IR","680743","691341","907286","23.856124","7.088871","0.008608","676441","876520","763866","18.502468","5.303747","0.004723","774182","884449","813892","15.818456","4.426920","-0.002162","780935","909755","864059","12.986586","3.526771","-0.009571","684403","842443","951086","9.432594","2.570046","-0.027311","3079","3639","3875","2960","3162","3243","2926","2856","2829","2980","2740","2651","3077","2618","2446",""
"MA200-0416","21493","60","1","1.10","1.4","2023-05-09T10:00:30","120","2023/05/09","10:00:30","-15.788715481758118","35.00489083258435","6.1","16","30","64","83","-3512","24508","-368","5","150","149.54","115.83","33.72","28.79","39.7","13.72","90488","28.44","DUALSPOT-UV-BLUE-GREEN-RED-IR","678706","691611","909340","24.273516","7.236627","0.009699","674864","876962","765337","18.844872","5.417240","0.008646","772542","884797","815171","16.112144","4.522377","0.008657","781779","912614","867580","13.226588","3.601719","0.006874","684473","843811","953278","9.608368","2.625885","0.011619","21165","25740","27683","21914","24954","26180","21050","23505","24463","20788","22301","22867","21199","23135","23863",""
"MA200-0416","21494","60","1","1.10","1.4","2023-05-09T10:01:00","120","2023/05/09","10:01:00","-15.788155198097229","35.00239266618155","8.2","16","30","64","83","-3683","24550","-3058","5","150","149.63","115.00","34.64","28.82","39.7","13.76","90676","28.44","DUALSPOT-UV-BLUE-GREEN-RED-IR","673455","687119","904164","24.591662","7.354908","0.010191","670631","872394","761846","19.102146","5.513233","0.013158","772165","885160","815968","16.336308","4.604095","0.013869","780462","911784","867213","13.414649","3.670383","0.016858","684043","843765","953559","9.743069","2.672891","0.018415","16249","20058","21683","16585","20546","22153","16183","19588","20924","16407","19890","21202","16363","18959","19940",""
"MA200-0416","21495","60","1","1.10","1.4","2023-05-09T10:01:30","120","2023/05/09","10:01:30","-15.787900865077972","35.0009129998507","4.1","16","30","64","83","-3650","23812","-2808","5","150","149.63","115.12","34.52","28.84","39.7","13.79","90612","28.50","DUALSPOT-UV-BLUE-GREEN-RED-IR","673056","686979","904132","24.645318","7.372976","0.006062","670437","872335","761917","19.142342","5.524248","-0.007190","771862","885033","815923","16.371103","4.613768","-0.006894","776326","907124","862862","13.442058","3.677017","-0.026874","684514","844472","954390","9.765388","2.678589","-0.026354","2737","3074","3218","2588","2365","2275","2509","2326","2255","2388","1928","1754","2708","2306","2154",""
"MA200-0416","21496","60","1","1.10","1.4","2023-05-09T10:02:00","120","2023/05/09","10:02:00","-15.78669822216034","35.000965166604146","2.5","16","30","64","83","-1816","24041","-3875","5","150","149.33","115.35","33.97","28.86","39.7","13.81","90512","28.50","DUALSPOT-UV-BLUE-GREEN-RED-IR","672413","687245","905094","24.785534","7.420383","0.007039","670204","873009","762900","19.255438","5.560964","0.006535","770848","884765","816007","16.468178","4.643231","0.002482","774610","905903","861988","13.521820","3.700185","-0.001419","683833","844158","954295","9.824707","2.694785","-0.011370","7139","8196","8648","7268","8012","8314","6986","7200","7284","6937","6842","6806","7183","6659","6461",""
"MA200-0416","21497","60","1","1.10","1.4","2023-05-09T10:02:30","120","2023/05/09","10:02:30","-15.786460041999817","34.99917674064636","6.7","16","30","64","83","-3387","24632","-1768","5","150","149.44","115.46","33.98","28.88","39.7","13.81","90616","28.56","DUALSPOT-UV-BLUE-GREEN-RED-IR","671702","687341","905703","25.026188","7.497383","0.004427","669232","872647","762876","19.452930","5.618538","-0.000686","770138","884792","816324","16.641478","4.690671","-0.006467","774927","907011","863237","13.666994","3.737146","-0.016674","683650","844411","954771","9.927795","2.722182","-0.015518","12242","13310","13767","12680","12561","12513","12461","11591","11250","12614","10913","10273","12472","11264","10807",""
"MA200-0416","21498","60","1","1.10","1.4","2023-05-09T10:03:00","120","2023/05/09","10:03:00","-15.78623902797699","34.99768769741058","5.5","16","30","64","83","-1172","24292","-2596","5","150","150.55","116.02","34.54","28.90","39.7","13.85","90504","28.56","DUALSPOT-UV-BLUE-GREEN-RED-IR","671496","687454","906037","25.078884","7.514208","0.003743","669202","872974","763270","19.495988","5.629970","-0.009188","770121","885085","816692","16.680071","4.700833","-0.011481","774653","906923","863245","13.697301","3.744036","-0.035170","683683","844655","955075","9.951241","2.726860","-0.083627","2667","2861","2944","2751","2454","2333","2761","2442","2317","2620","2001","1768","2822","1892","1540",""
"MA200-0416","21499","60","1","1.10","1.4","2023-05-09T10:03:30","120","2023/05/09","10:03:30","-15.786646842956543","34.99743801355362","5.3","16","30","64","83","-3539","24408","-2368","5","150","149.81","115.99","33.83","28.90","39.7","13.85","90488","28.56","DUALSPOT-UV-BLUE-GREEN-RED-IR","671766","688087","907151","25.172280","7.546306","0.008068","668863","872948","763392","19.568106","5.651863","0.002777","770036","885314","817043","16.742342","4.719305","0.001390","775708","908474","864847","13.750284","3.757573","-0.014961","683884","845101","955705","9.992558","2.737778","-0.014864","4729","5573","5934","4609","4797","4874","4457","4533","4563","4583","4014","3801","4976","4509","4332",""
"MA200-0416","21500","60","1","1.10","1.4","2023-05-09T10:04:00","120","2023/05/09","10:04:00","-15.787191152572632","34.99747967720032","4.8","16","30","64","82","-2460","24180","-427","5","150","149.33","115.39","33.93","28.93","39.7","13.88","90528","28.63","DUALSPOT-UV-BLUE-GREEN-RED-IR","671180","687852","907130","25.262332","7.578878","0.009791","668989","873476","764033","19.640412","5.675817","0.007700","769513","885079","816991","16.803916","4.737484","0.000332","775059","908018","864513","13.803258","3.773874","0.004359","679374","839730","949717","10.032410","2.749805","0.003485","4583","5638","6090","4645","5233","5472","4430","4447","4454","4605","4819","4900","4824","4951","4999",""
"MA200-0416","21501","60","1","1.10","1.4","2023-05-09T10:04:30","120","2023/05/09","10:04:30","-15.786885678768158","34.99647414684296","4.6","17","30","64","83","-1492","24256","-612","5","150","149.57","115.39","34.17","28.94","39.7","13.87","90548","28.63","DUALSPOT-UV-BLUE-GREEN-RED-IR","672045","688941","908704","25.302680","7.592600","0.006914","669683","874576","765091","19.671470","5.685819","0.005566","766144","881338","813607","16.832572","4.746705","0.006397","775426","908616","865138","13.825306","3.778541","-0.046710","683930","845498","956294","10.050262","2.754011","-0.039012","2053","2358","2489","1995","2169","2240","2061","2240","2310","1916","1370","1164","2161","1719","1552",""
"MA200-0416","21502","60","1","1.10","1.4","2023-05-09T10:05:00","120","2023/05/09","10:05:00","-15.785607993602753","34.9960743188858","5.8","17","30","64","82","-1988","24204","-1700","5","150","150.17","116.32","33.85","28.98","39.7","13.89","90480","28.63","DUALSPOT-UV-BLUE-GREEN-RED-IR","672544","689610","909714","25.341208","7.607446","0.012493","669590","874625","765176","19.699460","5.693311","-0.006461","766106","881463","813768","16.856982","4.752379","-0.023094","776992","910581","867033","13.846402","3.784448","-0.003977","680169","840929","951164","10.065678","2.757692","-0.032612","1945","2576","2846","1783","1640","1582","1742","1391","1254","1819","1750","1724","1851","1519","1393",""
"MA200-0416","21503","60","1","1.10","1.4","2023-05-09T10:05:30","120","2023/05/09","10:05:30","-15.784034729003906","34.9956693649292","5.4","17","30","64","83","-3223","24200","-2819","5","150","150.56","115.84","34.73","29.00","39.7","13.91","90476","28.69","DUALSPOT-UV-BLUE-GREEN-RED-IR","668468","685583","904535","25.378752","7.620819","0.008349","666614","870865","761956","19.728178","5.702633","0.005294","766986","882611","814859","16.878726","4.758745","-0.001992","777258","911041","867531","13.865373","3.788417","-0.051268","680762","841769","952129","10.081203","2.761859","-0.016731","1903","2261","2415","1837","1990","2052","1558","1521","1507","1643","1146","960","1872","1676","1602",""
"MA200-0416","21504","60","1","1.10","1.4","2023-05-09T10:06:00","120","2023/05/09","10:06:00","-15.782659411430359","34.99559825658798","5.6","17","30","64","82","-3192","23856","-1716","5","150","150.36","115.83","34.53","29.02","39.6","13.91","90416","28.69","DUALSPOT-UV-BLUE-GREEN-RED-IR","666213","683499","901915","25.418408","7.634767","0.008051","665094","869145","760538","19.759182","5.711979","0.000789","765456","881079","813516","16.906782","4.766517","-0.006453","775615","909303","865925","13.887646","3.794253","-0.014389","679250","840025","950223","10.097260","2.766657","0.000366","2010","2372","2528","1984","2006","2015","2010","1868","1813","1929","1695","1607","1936","1941","1943",""
"MA200-0416","21505","60","1","1.10","1.4","2023-05-09T10:06:30","120","2023/05/09","10:06:30","-15.781979501247406","34.99543511867523","6.2","17","30","64","82","-1392","24184","-2840","5","150","149.46","115.59","33.88","29.04","39.6","13.93","90444","28.75","DUALSPOT-UV-BLUE-GREEN-RED-IR","663216","680623","898224","25.467130","7.651285","0.007184","666407","871102","762316","19.798230","5.724085","0.003798","766846","882866","815260","16.939738","4.775738","-0.003981","772790","906152","862993","13.916621","3.801996","-0.009941","681222","842584","953191","10.119553","2.771957","-0.034754","2475","2863","3030","2504","2649","2707","2367","2259","2217","2515","2292","2209","2694","2185","1993",""
"MA200-0416","21506","60","1","1.10","1.4","2023-05-09T10:07:00","120","2023/05/09","10:07:00","-15.781432151794434","34.993835270404816","6.7","17","30","64","82","-3500","24204","-2864","5","150","150.11","116.02","34.09","29.06","39.6","13.95","90456","28.75","DUALSPOT-UV-BLUE-GREEN-RED-IR","668747","686551","906301","25.520376","7.671299","0.011177","667017","872150","763353","19.839960","5.737913","0.007673","766643","882904","815378","16.977192","4.786575","-0.001296","772521","906031","862940","13.944994","3.808791","-0.024488","680985","842440","953046","10.141392","2.777905","-0.011051","2695","3447","3771","2666","3006","3145","2680","2638","2622","2453","1999","1828","2629","2437","2364",""
"MA200-0416","21507","60","1","1.10","1.4","2023-05-09T10:07:30","120","2023/05/09","10:07:30","-15.781388342380524","34.99196922779083","5.8","17","30","64","82","-3042","24169","-2626","5","150","150.24","115.68","34.56","29.08","39.6","13.97","90544","28.75","DUALSPOT-UV-BLUE-GREEN-RED-IR","669560","687564","907746","25.572040","7.688793","0.006261","667259","872676","763889","19.878520","5.748226","-0.008713","767361","883869","816341","17.010234","4.795045","-0.014506","773715","907633","864504","13.972373","3.815228","-0.029678","681541","843242","954006","10.162010","2.783678","-0.009344","2623","2973","3123","2471","2211","2106","2371","2034","1902","2374","1868","1678","2489","2333","2274",""
"MA200-0416","21508","60","1","1.10","1.4","2023-05-09T10:08:00","120","2023/05/09","10:08:00","-15.78072965145111","34.991017401218414","3.5","17","30","64","82","-4124","24460","-3048","5","150","150.30","116.17","34.13","29.11","39.5","13.94","90548","28.75","DUALSPOT-UV-BLUE-GREEN-RED-IR","669008","687266","907521","25.632112","7.708786","0.006227","667190","872856","764156","19.926088","5.762632","0.002085","766819","883520","816093","17.051966","4.808217","0.005506","772999","906954","863945","14.005942","3.825003","-0.000882","681114","842877","953648","10.188980","2.790555","-0.021828","3037","3440","3614","3035","3129","3167","2982","3204","3291","2899","2873","2863","3243","2814","2653",""
"MA200-0416","21509","60","1","1.10","1.4","2023-05-09T10:08:30","120","2023/05/09","10:08:30","-15.779667735099792","34.9909011721611","4.8","17","30","64","82","-3628","23996","-3360","5","150","149.63","115.87","33.76","29.13","39.5","13.94","90588","28.81","DUALSPOT-UV-BLUE-GREEN-RED-IR","667344","685717","905569","25.662066","7.718744","0.006542","665709","871048","762640","19.947814","5.771202","0.016666","765750","882436","815144","17.071150","4.813814","0.000114","771503","905347","862425","14.021614","3.827971","-0.066184","679883","841440","952088","10.202168","2.793659","-0.035253","1518","1732","1824","1390","1882","2082","1374","1376","1377","1356","882","703","1589","1284","1169",""
"MA200-0416","21510","60","1","1.10","1.4","2023-05-09T10:09:00","120","2023/05/09","10:09:00","-15.77855795621872","34.9910494685173","5.0","17","30","64","82","-3476","23460","-2160","5","150","149.58","115.26","34.32","29.15","39.4","13.92","90628","28.81","DUALSPOT-UV-BLUE-GREEN-RED-IR","669237","687781","908386","25.691602","7.729139","0.008034","667436","873416","764772","19.970240","5.777218","-0.008128","767073","884069","816684","17.089638","4.818302","-0.020283","773632","907939","864952","14.036673","3.831971","-0.012434","680922","842775","953628","10.213669","2.797272","0.006902","1505","1778","1896","1442","1299","1240","1331","1085","988","1310","1169","1115","1393","1470","1499",""
"MA200-0416","21511","60","1","1.10","1.4","2023-05-09T10:09:30","120","2023/05/09","10:09:30","-15.77709448337555","34.991174042224884","5.6","17","30","64","82","-3520","24224","-2736","5","150","149.61","115.75","33.85","29.16","39.3","13.91","90660","28.81","DUALSPOT-UV-BLUE-GREEN-RED-IR","667625","686309","906538","25.731510","7.741628","0.003540","665855","871615","763208","20.000458","5.784137","-0.021974","765956","882951","815708","17.116460","4.823833","-0.040701","772838","907197","864262","14.059238","3.835905","-0.088886","680387","842217","953033","10.231884","2.801331","-0.047677","2025","2166","2227","1935","1515","1344","1923","1356","1133","1955","1165","869","2198","1674","1477",""
"MA200-0416","21512","60","1","1.10","1.4","2023-05-09T10:10:00","120","2023/05/09","10:10:00","-15.775474190711975","34.99136936664581","6.1","16","30","64","82","-5044","23180","-3716","5","150","150.03","115.95","34.08","29.19","39.4","13.95","90756","28.88","DUALSPOT-UV-BLUE-GREEN-RED-IR","669915","688825","909974","25.765960","7.753151","0.006399","667430","873827","765184","20.026858","5.791052","-0.009029","763144","879858","812876","17.137992","4.829234","-0.014975","775221","910103","867063","14.077490","3.838760","-0.128034","681701","843980","955044","10.248714","2.804381","-0.109086","1745","1985","2089","1687","1504","1429","1541","1315","1226","1579","840","563","2027","1250","957",""
"MA200-0416","21513","60","1","1.10","1.4","2023-05-09T10:10:30","120","2023/05/09","10:10:30","-15.774408221244812","34.99239355325699","5.3","16","30","64","82","-4940","22968","-3592","5","150","150.05","116.17","33.88","29.20","39.3","13.95","90888","28.88","DUALSPOT-UV-BLUE-GREEN-RED-IR","665261","684133","903905","25.796958","7.764856","0.011501","667798","874457","765797","20.049810","5.797579","-0.001810","763476","880377","813399","17.159162","4.835356","-0.000688","775185","910191","867177","14.094585","3.843582","-0.003344","681984","844398","955563","10.261627","2.808145","-0.000053","1567","2029","2228","1464","1428","1413","1512","1500","1495","1476","1428","1409","1552","1552","1551",""
"MA200-0416","21514","60","1","1.10","1.4","2023-05-09T10:11:00","120","2023/05/09","10:11:00","-15.772989690303802","34.99292856454849","6.5","17","30","64","82","-3604","24192","-3260","5","150","149.83","115.63","34.20","29.23","39.4","14.00","90968","28.88","DUALSPOT-UV-BLUE-GREEN-RED-IR","664917","683947","903754","25.828498","7.775594","0.006888","664008","869585","761610","20.073938","5.805732","0.008330","767174","884746","817515","17.180020","4.841619","0.001235","775705","910907","867888","14.110788","3.847051","-0.043350","681689","844106","955275","10.274670","2.811654","-0.013831","1602","1844","1948","1546","1767","1857","1497","1520","1529","1405","1017","872","1575","1433","1379",""
"MA200-0416","21515","60","1","1.10","1.4","2023-05-09T10:11:30","120","2023/05/09","10:11:30","-15.77142345905304","34.992958426475525","3.6","17","30","64","82","-5428","24116","-3480","5","150","150.23","115.39","34.83","29.24","39.4","14.03","91060","28.94","DUALSPOT-UV-BLUE-GREEN-RED-IR","666351","685584","905995","25.862206","7.788624","0.011076","664835","870846","762780","20.098826","5.813648","0.003493","763652","880866","813961","17.200244","4.846299","-0.028015","770102","904447","861787","14.127930","3.850782","-0.044007","682033","844633","955886","10.288425","2.814958","-0.038002","1715","2197","2404","1598","1684","1719","1455","1115","981","1490","1074","918","1665","1325","1197",""
"MA200-0416","21516","60","1","1.10","1.4","2023-05-09T10:12:00","120","2023/05/09","10:12:00","-15.77129054069519","34.993969202041626","4.9","17","30","64","81","-544","24512","-3223","5","150","150.23","115.51","34.71","29.28","39.5","14.09","91088","28.94","DUALSPOT-UV-BLUE-GREEN-RED-IR","665133","684463","904618","25.894558","7.798250","-0.000553","663381","869086","761270","20.123174","5.820276","-0.007591","763284","880569","813721","17.222228","4.851401","-0.026941","769633","904013","861416","14.146260","3.855229","-0.025490","677481","839075","949655","10.304276","2.819464","-0.007788","1645","1628","1621","1562","1415","1355","1579","1220","1079","1592","1285","1170","1916","1813","1774",""
"MA200-0416","21517","60","1","1.10","1.4","2023-05-09T10:12:30","120","2023/05/09","10:12:30","-15.77135169506073","34.994905173778534","6.3","17","30","64","82","-1216","24460","-1460","5","150","149.45","115.08","34.37","29.30","39.7","14.18","90984","29.00","DUALSPOT-UV-BLUE-GREEN-RED-IR","666589","686134","907020","25.935444","7.812603","0.007735","665373","871882","763799","20.153838","5.828500","-0.008294","763517","881004","814195","17.248310","4.858064","-0.014608","771313","906129","863466","14.165967","3.859151","-0.059791","678256","840151","950909","10.319172","2.823228","-0.026107","2086","2452","2610","1975","1774","1692","1881","1609","1503","1718","1144","930","1808","1529","1424",""
"MA200-0416","21518","60","1","1.10","1.4","2023-05-09T10:13:00","120","2023/05/09","10:13:00","-15.772747159004211","34.99582278728485","6.4","17","30","64","82","-880","24604","-1404","5","150","149.63","115.20","34.44","29.31","39.7","14.19","90856","29.00","DUALSPOT-UV-BLUE-GREEN-RED-IR","667044","686805","908006","25.969998","7.827381","0.014686","665742","872558","764484","20.179484","5.838270","0.013795","764198","881920","815125","17.269196","4.865420","0.011500","771845","906908","864249","14.182797","3.863138","-0.028128","678602","840729","951562","10.332657","2.826116","-0.061906","1761","2520","2847","1650","2102","2287","1505","1773","1878","1465","1161","1047","1635","1171","997",""
"MA200-0416","21519","60","1","1.10","1.4","2023-05-09T10:13:30","120","2023/05/09","10:13:30","-15.773652195930481","34.9970982670784","6.2","17","30","64","82","-1140","24184","-4204","5","150","149.70","115.71","33.99","29.34","39.6","14.16","90736","29.00","DUALSPOT-UV-BLUE-GREEN-RED-IR","666918","686981","908473","26.039092","7.851911","0.008838","665706","872806","764840","20.231606","5.855692","0.008042","763691","881642","814972","17.315284","4.880410","0.007515","772207","907572","865002","14.222633","3.876203","0.009719","678308","840530","951428","10.363369","2.834184","-0.016405","3507","4239","4555","3339","3800","3988","3306","3661","3801","3453","3856","4007","3707","3316","3169",""
"MA200-0416","21520","60","1","1.10","1.4","2023-05-09T10:14:00","120","2023/05/09","10:14:00","-15.775223016738892","34.99749451875687","6.2","17","30","64","82","-1544","24360","-3671","5","150","149.73","115.21","34.52","29.36","39.5","14.16","90660","29.00","DUALSPOT-UV-BLUE-GREEN-RED-IR","667071","687463","909326","26.109250","7.874389","0.003460","665948","873452","765483","20.280548","5.868316","-0.011996","763746","881969","815352","17.355576","4.890179","-0.020834","772557","908252","865672","14.255378","3.883565","-0.036644","678373","840773","951779","10.389282","2.841309","-0.012299","3576","3824","3931","3149","2711","2532","2903","2349","2132","2851","2139","1873","3142","2883","2786",""
"MA200-0416","21521","60","1","1.10","1.4","2023-05-09T10:14:30","120","2023/05/09","10:14:30","-15.77665799856186","34.99775403738022","5.3","17","30","64","82","-1968","24280","-1880","5","150","149.98","115.86","34.12","29.38","39.4","14.16","90608","29.06","DUALSPOT-UV-BLUE-GREEN-RED-IR","667670","688301","910533","26.160806","7.890634","0.003473","666139","873874","765949","20.317402","5.880035","0.004956","764397","882871","816246","17.386542","4.899102","-0.001792","773380","909358","866759","14.279144","3.887755","-0.086155","679263","841945","953114","10.406178","2.844927","-0.057796","2613","2796","2875","2358","2545","2622","2219","2170","2152","2058","1231","922","2037","1481","1272",""
"MA200-0416","21522","60","1","1.10","1.4","2023-05-09T10:15:00","120","2023/05/09","10:15:00","-15.777874946594238","34.99813491106033","6.0","17","30","64","82","-2400","24253","-1903","5","150","150.55","115.75","34.80","29.41","39.4","14.18","90540","29.13","DUALSPOT-UV-BLUE-GREEN-RED-IR","662548","683205","903963","26.206008","7.906120","0.006353","662359","869118","761841","20.348616","5.888540","-0.007463","764131","882766","816201","17.414258","4.905915","-0.019543","773429","909553","867025","14.303434","3.894025","-0.016861","679185","841994","953216","10.424469","2.849313","-0.037057","2293","2613","2751","1999","1811","1735","1987","1625","1483","2105","1807","1696","2207","1760","1592",""
"MA200-0416","21523","60","1","1.10","1.4","2023-05-09T10:15:30","120","2023/05/09","10:15:30","-15.779422461986542","34.99838411808014","6.4","17","30","64","81","-662","24820","-2783","5","150","149.00","114.94","34.06","29.43","39.4","14.18","90460","29.13","DUALSPOT-UV-BLUE-GREEN-RED-IR","661810","682607","903307","26.243222","7.919451","0.008767","661513","868163","761036","20.376478","5.898346","0.010242","763836","882580","816102","17.438530","4.912710","-0.004795","772130","908167","865734","14.321529","3.897750","-0.050452","678548","841285","952456","10.439388","2.851377","-0.263844","1901","2298","2470","1797","2133","2271","1753","1656","1618","1579","1097","916","1813","846","482",""
"MA200-0416","21524","60","1","1.10","1.4","2023-05-09T10:16:00","120","2023/05/09","10:16:00","-15.780955910682678","34.99865823984146","5.6","17","30","64","82","-1248","24088","-2344","5","150","149.53","115.46","34.06","29.46","39.3","14.16","90316","29.19","DUALSPOT-UV-BLUE-GREEN-RED-IR","664711","685749","907570","26.282262","7.934259","0.011047","663527","870996","763609","20.405488","5.906542","-0.003116","765247","884363","817780","17.462730","4.918975","-0.011798","769377","905050","862838","14.341261","3.903067","-0.009430","679899","843055","954500","10.456284","2.856991","0.014159","1986","2553","2798","1862","1783","1751","1740","1526","1442","1714","1565","1510","2044","2302","2399",""
"MA200-0416","21525","60","1","1.10","1.4","2023-05-09T10:16:30","120","2023/05/09","10:16:30","-15.781924605369568","34.99987244606018","6.0","17","30","64","81","-1104","24312","-1827","5","150","150.03","115.43","34.59","29.49","39.1","14.13","90196","29.25","DUALSPOT-UV-BLUE-GREEN-RED-IR","663620","684783","906404","26.315012","7.945905","0.008017","662530","869802","762637","20.428280","5.914289","0.007792","760997","879535","813385","17.482440","4.925030","0.001947","768347","903977","861799","14.357343","3.906632","-0.038805","679712","842906","954345","10.468300","2.859205","-0.107782","1666","1977","2111","1463","1660","1740","1417","1453","1467","1397","1033","897","1454","893","683",""
