"Serial number","Datum ID","Session ID","Data format version","Firmware version","App version","Date / time local","Timezone offset (mins)","Date local (yyyy/MM/dd)","Time local (hh:mm:ss)","GPS lat (ddmm.mmmmm)","GPS long (dddmm.mmmmm)","GPS speed (km/h)","GPS sat count","Timebase (s)","Status","Battery remaining (%)","Accel X","Accel Y","Accel Z","Tape position","Flow setpoint (mL/min)","Flow total (mL/min)","Flow1 (mL/min)","Flow2 (mL/min)","Sample temp (C)","Sample RH (%)","Sample dewpoint (C)","Internal pressure (Pa)","Internal temp (C)","Optical config","UV Sen1","UV Sen2","UV Ref","UV ATN1","UV ATN2","UV K","Blue Sen1","Blue Sen2","Blue Ref","Blue ATN1","Blue ATN2","Blue K","Green Sen1","Green Sen2","Green Ref","Green ATN1","Green ATN2","Green K","Red Sen1","Red Sen2","Red Ref","Red ATN1","Red ATN2","Red K","IR Sen1","IR Sen2","IR Ref","IR ATN1","IR ATN2","IR K","UV BC1","UV BC2","UV BCc","Blue BC1","Blue BC2","Blue BCc","Green BC1","Green BC2","Green BCc","Red BC1","Red BC2","Red BCc","IR BC1","IR BC2","IR BCc","Readable status"
"MA200-0420","47313","77","1","1.10","1.6","2023-08-01T17:25:01","120","2023/08/01","17:25:01","-15.795656144618988","35.002793833147734","0.2","14","300","66","98","-28","-27019","-688","10","150","150.08","114.97","35.11","25.10","41.1","10.96","90784","24.88","DUALSPOT-UV-BLUE-GREEN-RED-IR","792742","706630","907557","0.000000","0.000000","0.000000","889202","897312","839316","0.000000","0.000000","0.000000","866385","870864","831133","0.000000","0.000000","0.000000","881801","873388","888222","0.000000","0.000000","0.000000","766703","893012","961586","0.000000","0.000000","0.000000","","","","","","","","","","","","","","","","Start up-DualSpot on"
"MA200-0420","47314","77","1","1.10","1.6","2023-08-01T17:30:01","120","2023/08/01","17:30:01","-15.795600533485413","35.00281233293936","0.1","14","300","66","98","-59","-26936","-904","10","150","149.65","115.27","34.38","24.85","42.5","11.25","90772","24.63","DUALSPOT-UV-BLUE-GREEN-RED-IR","784232","704453","907389","0.000000","0.000000","0.000000","883102","895603","839321","0.000000","0.000000","0.000000","861931","869969","831649","0.000000","0.000000","0.000000","877626","872027","887977","0.000000","0.000000","0.000000","765460","893232","962438","0.000000","0.000000","0.000000","","","","","","","","","","","","","","","","Start up-DualSpot on"
"MA200-0420","47315","77","1","1.10","1.6","2023-08-01T17:35:01","120","2023/08/01","17:35:01","-15.795633375644684","35.00277449958958","0.0","14","300","64","98","-72","-26991","-592","10","150","150.34","115.36","34.98","24.62","43.6","11.42","90780","24.44","DUALSPOT-UV-BLUE-GREEN-RED-IR","773317","701187","906429","0.000000","0.000000","0.000000","874238","892372","838316","0.000000","0.000000","0.000000","855875","868563","832013","0.000000","0.000000","0.000000","872720","870848","888154","0.000000","0.000000","0.000000","763992","893716","963895","0.000000","0.000000","0.000000","","","","","","","","","","","","","","","","DualSpot on"
"MA200-0420","47316","77","1","1.10","1.6","2023-08-01T17:40:01","120","2023/08/01","17:40:01","-15.795656144618988","35.002736166119576","0.2","14","300","64","98","-100","-26828","-540","10","150","149.76","115.20","34.55","24.42","44.5","11.55","90788","24.19","DUALSPOT-UV-BLUE-GREEN-RED-IR","758197","697858","907472","2.082750","0.586690","0.000000","862996","889925","839203","1.399446","0.379913","0.000000","847285","867286","833426","1.176118","0.315046","0.000000","866501","870566","890048","0.923947","0.241651","0.000000","761616","894584","966250","0.554321","0.147986","0.000000","10618","9973","10618","9005","8151","9005","8475","7570","8475","8046","7016","8046","6721","5983","6721","DualSpot on"
"MA200-0420","47317","77","1","1.10","1.6","2023-08-01T17:45:01","120","2023/08/01","17:45:01","-15.79568487405777","35.002782832831144","0.2","13","300","64","98","-144","-26947","-740","10","150","149.74","115.54","34.19","24.18","45.3","11.61","90796","24.00","DUALSPOT-UV-BLUE-GREEN-RED-IR","748155","695115","907375","3.415907","0.977697","-0.003718","855039","887637","839266","2.332187","0.641262","0.000000","840161","864939","833023","1.976686","0.538879","0.000000","860249","868297","889237","1.561629","0.413925","0.000000","758979","893946","966607","0.941925","0.257102","0.000000","6777","6716","6692","5984","5666","5984","5752","5434","5752","5537","5054","5537","4686","4457","4686","DualSpot on"
"MA200-0420","47318","77","1","1.10","1.6","2023-08-01T17:50:01","120","2023/08/01","17:50:01","-15.795633673667908","35.00274116615765","0.1","13","300","64","97","-144","-27100","-496","10","150","150.07","115.48","34.59","23.98","46.0","11.63","90792","23.81","DUALSPOT-UV-BLUE-GREEN-RED-IR","738492","691526","905647","4.519157","1.300886","-0.007088","846773","883956","837518","3.101426","0.854772","-0.036384","834230","862962","832616","2.635163","0.719124","0.000000","855011","866380","888496","2.088378","0.552788","0.000000","752259","888072","961079","1.261896","0.344960","0.000000","5611","5487","5437","4938","4575","4437","4733","4325","4733","4576","4027","4576","3870","3547","3870","DualSpot on"
"MA200-0420","47319","77","1","1.10","1.6","2023-08-01T17:55:01","120","2023/08/01","17:55:01","-15.795572996139526","35.002802999224514","0.1","13","300","64","98","-36","-26972","-792","10","150","149.52","115.35","34.18","23.73","46.6","11.62","90804","23.50","DUALSPOT-UV-BLUE-GREEN-RED-IR","732277","690101","906289","5.445535","1.581171","0.005327","841717","882793","838017","3.760832","1.044571","-0.010925","830756","862879","833850","3.202681","0.880551","-0.018204","852907","867090","890361","2.544326","0.677986","0.000000","751804","889297","963183","1.537403","0.422900","0.000000","4717","4817","4858","4237","4117","4070","4084","3921","3859","3965","3675","3965","3336","3185","3336","DualSpot on"
"MA200-0420","47320","77","1","1.10","1.6","2023-08-01T18:00:01","120","2023/08/01","18:00:01","-15.795598804950714","35.00273183290847","0.4","13","300","64","98","-59","-26856","-764","10","150","150.27","115.46","34.81","23.51","47.3","11.64","90800","23.31","DUALSPOT-UV-BLUE-GREEN-RED-IR","725233","687461","905124","6.282982","1.835056","0.001250","835734","880290","837091","4.366490","1.218283","-0.016564","825086","860193","832512","3.727942","1.029247","-0.024678","847297","864079","888269","2.966542","0.791001","0.000000","749556","888272","962779","1.792524","0.494544","0.000000","4260","4284","4293","3888","3699","3626","3776","3546","3458","3668","3257","3668","3086","2875","3086","DualSpot on"
"MA200-0420","47321","77","1","1.10","1.6","2023-08-01T18:05:01","120","2023/08/01","18:05:01","-15.795612156391144","35.00278216623701","0.1","13","300","64","98","41","-27020","-833","10","150","149.89","115.60","34.29","23.32","47.9","11.65","90816","23.19","DUALSPOT-UV-BLUE-GREEN-RED-IR","721789","688273","908595","7.138212","2.097677","0.006675","833766","882131","840340","4.984476","1.396268","-0.008409","819093","857215","830937","4.263014","1.181209","-0.014639","841497","860843","885985","3.399471","0.908659","-0.037938","746503","886358","961404","2.061628","0.570364","0.000000","4345","4498","4562","3963","3848","3803","3842","3679","3617","3757","3442","3328","3251","3089","3251","DualSpot on"
"MA200-0420","47322","77","1","1.10","1.6","2023-08-01T18:10:01","120","2023/08/01","18:10:01","-15.795608520507812","35.00281766639091","0.1","13","300","64","98","162","-27233","-687","10","150","150.47","115.64","34.83","23.21","48.5","11.74","90816","23.00","DUALSPOT-UV-BLUE-GREEN-RED-IR","712328","683722","905254","8.088623","2.392261","0.004887","825303","877344","837395","5.655614","1.590681","-0.009962","816961","858542","833557","4.843499","1.346111","-0.017669","840312","862633","888924","3.867906","1.035250","-0.042242","747390","889338","965404","2.357439","0.650498","0.000000","4827","4967","5026","4302","4137","4072","4167","3930","3839","4064","3646","3493","3573","3213","3573","DualSpot on"
"MA200-0420","47323","77","1","1.10","1.6","2023-08-01T18:15:01","120","2023/08/01","18:15:01","-15.795634388923645","35.00280166626908","0.2","13","300","64","97","68","-27068","-648","10","150","150.27","115.73","34.54","23.06","49.1","11.80","90832","22.94","DUALSPOT-UV-BLUE-GREEN-RED-IR","705903","682098","905855","9.063906","2.700950","0.008732","820341","876236","838001","6.331957","1.787274","-0.005991","808341","853059","829607","5.425330","1.511663","-0.012784","838387","863569","891044","4.339101","1.163465","-0.031673","741954","884731","961218","2.651382","0.731345","0.000000","4949","5248","5375","4332","4218","4174","4174","3978","3903","4084","3723","3591","3548","3269","3548","DualSpot on"
"MA200-0420","47324","77","1","1.10","1.6","2023-08-01T18:20:01","120","2023/08/01","18:20:01","-15.79567152261734","35.00271716644056","0.1","13","300","64","98","-33","-26891","-941","10","150","149.89","115.60","34.29","22.98","49.5","11.86","90836","22.88","DUALSPOT-UV-BLUE-GREEN-RED-IR","698749","680142","906400","10.135630","3.045269","0.010487","815077","875079","838702","7.053112","1.999652","-0.001416","804332","852572","830624","6.043746","1.689869","-0.006798","835595","863839","892556","4.838206","1.300995","-0.022214","740532","885137","962480","2.971149","0.818347","0.000000","5445","5898","6093","4624","4591","4578","4441","4315","4266","4331","4024","3911","3864","3544","3864","DualSpot on"
"MA200-0420","47325","77","1","1.10","1.6","2023-08-01T18:25:01","120","2023/08/01","18:25:01","-15.795615434646606","35.00273483293131","0.0","13","300","64","98","-92","-26908","-824","10","150","149.89","115.48","34.41","22.85","49.7","11.77","90840","22.69","DUALSPOT-UV-BLUE-GREEN-RED-IR","693918","680008","909135","11.134228","3.365757","0.008951","811762","875839","841178","7.758408","2.209538","-0.000208","800943","852673","832181","6.655050","1.869112","-0.003380","826119","857088","886782","5.337189","1.440368","-0.017534","739800","886306","964610","3.294269","0.908256","-0.030457","5079","5471","5641","4527","4522","4520","4394","4325","4298","4335","4064","3964","3908","3650","3552","DualSpot on"
"MA200-0420","47326","77","1","1.10","1.6","2023-08-01T18:30:01","120","2023/08/01","18:30:01","-15.79562133550644","35.0027234996669","0.1","13","300","64","98","-236","-26908","-764","10","150","150.08","115.84","34.24","22.65","50.0","11.68","90832","22.50","DUALSPOT-UV-BLUE-GREEN-RED-IR","687588","677616","908445","11.976290","3.640100","0.010680","806147","873376","840336","8.350583","2.389604","0.004614","797128","851638","832432","7.164922","2.020472","0.000811","823451","856846","887590","5.750534","1.557027","-0.011515","739089","887061","966183","3.552785","0.982522","-0.011421","4269","4705","4895","3789","3898","3941","3654","3669","3675","3579","3417","3357","3117","3029","2995","DualSpot on"
"MA200-0420","47327","77","1","1.10","1.6","2023-08-01T18:35:01","120","2023/08/01","18:35:01","-15.795617520809174","35.002789499703795","0.1","13","300","64","97","-92","-27016","-728","10","150","149.71","115.69","34.02","22.53","50.4","11.71","90836","22.38","DUALSPOT-UV-BLUE-GREEN-RED-IR","680287","674134","906203","12.800362","3.910957","0.011318","799717","869928","838459","8.928502","2.565133","0.004929","791334","848423","830544","7.665997","2.169073","0.001518","823937","859874","891765","6.157403","1.672388","-0.008411","735657","884607","964200","3.812173","1.055138","-0.018668","4183","4676","4892","3703","3824","3873","3595","3626","3638","3528","3401","3354","3132","2981","2924","DualSpot on"
"MA200-0420","47328","77","1","1.10","1.6","2023-08-01T18:40:01","120","2023/08/01","18:40:01","-15.795595288276672","35.00282033276744","0.3","13","300","64","98","-92","-26988","-712","10","150","150.40","115.88","34.52","22.40","50.7","11.68","90836","22.25","DUALSPOT-UV-BLUE-GREEN-RED-IR","676165","674096","908819","13.693863","4.204031","0.009299","796973","870736","840843","9.559606","2.754438","0.001013","789573","849817","833247","8.212570","2.329081","-0.003002","817363","855723","888578","6.602742","1.798415","-0.011173","736010","886921","967471","4.101337","1.134180","-0.031330","4528","4986","5189","4037","4065","4076","3916","3848","3821","3855","3663","3590","3485","3198","3089","DualSpot on"
"MA200-0420","47329","77","1","1.10","1.6","2023-08-01T18:45:01","120","2023/08/01","18:45:01","-15.795631170272827","35.0027679996565","0.1","13","300","64","98","-8","-27016","-820","10","150","149.90","115.73","34.17","22.24","51.0","11.63","90832","22.06","DUALSPOT-UV-BLUE-GREEN-RED-IR","667593","668693","903724","14.407957","4.444244","0.011633","788280","864292","835945","10.074582","2.914756","0.007048","783328","845701","830320","8.658079","2.464491","0.004555","815380","855855","889647","6.966528","1.902221","-0.006957","731420","882807","963624","4.331241","1.202185","0.000569","3624","4129","4354","3298","3478","3551","3196","3289","3327","3153","3047","3008","2775","2780","2782","DualSpot on"
"MA200-0420","47330","77","1","1.10","1.6","2023-08-01T18:50:01","120","2023/08/01","18:50:01","-15.79557490348816","35.002775999717414","0.3","13","300","64","98","-145","-26845","-141","10","150","150.41","115.99","34.41","22.07","51.4","11.56","90836","21.88","DUALSPOT-UV-BLUE-GREEN-RED-IR","662949","667437","904255","15.168308","4.697996","0.010101","784705","863717","836814","10.628901","3.086024","0.005191","780308","845303","831160","9.143448","2.610612","0.002212","813752","856608","891437","7.365599","2.015314","-0.008920","730699","883606","965226","4.594444","1.276094","-0.017409","3850","4331","4546","3542","3689","3749","3474","3525","3545","3451","3297","3238","3169","3000","2935","DualSpot on"
"MA200-0420","47331","77","1","1.10","1.6","2023-08-01T18:55:01","120","2023/08/01","18:55:01","-15.795557141304016","35.002796499757096","0.1","13","300","64","98","-24","-26796","-800","10","150","150.02","115.88","34.14","21.89","51.6","11.48","90844","21.69","DUALSPOT-UV-BLUE-GREEN-RED-IR","660872","668164","907253","15.815630","4.917852","0.011475","782699","864257","838588","11.099788","3.233880","0.007647","778607","845823","832705","9.554305","2.737701","0.006840","812348","857170","892876","7.703845","2.112777","-0.004060","730882","885203","967570","4.812822","1.339167","-0.005829","3281","3782","4008","3012","3210","3291","2943","3090","3149","2928","2864","2839","2632","2580","2560","DualSpot on"
"MA200-0420","47332","77","1","1.10","1.6","2023-08-01T19:00:01","120","2023/08/01","19:00:01","-15.795647501945496","35.002773832995445","0.1","13","300","64","98","-84","-26780","-1032","10","150","150.15","115.99","34.15","21.81","52.0","11.51","90848","21.69","DUALSPOT-UV-BLUE-GREEN-RED-IR","654909","665027","905179","16.489628","5.158233","0.014263","777255","861119","836884","11.595012","3.394145","0.010603","774154","843504","831570","9.988301","2.874899","0.009388","808247","855021","891600","8.062422","2.220589","0.003524","728990","884330","967338","5.048055","1.413387","0.017921","3412","4134","4462","3165","3478","3608","3106","3335","3427","3101","3167","3192","2832","3035","3114","DualSpot on"
"MA200-0420","47333","77","1","1.10","1.6","2023-08-01T19:05:01","120","2023/08/01","19:05:01","-15.795640170574188","35.002738499548286","0.1","13","300","64","98","-107","-26875","-1180","10","150","150.46","115.65","34.81","21.73","52.2","11.50","90872","21.63","DUALSPOT-UV-BLUE-GREEN-RED-IR","654710","667727","911017","17.162902","5.396475","0.011888","771966","858206","835422","12.100558","3.557461","0.007780","769889","841411","830667","10.432319","3.015464","0.006518","803395","852096","889527","8.433270","2.332090","-0.000165","725919","882137","965635","5.296341","1.487545","-0.002016","3419","4020","4295","3240","3478","3577","3187","3352","3420","3217","3213","3212","2999","2976","2967","DualSpot on"
"MA200-0420","47334","77","1","1.10","1.6","2023-08-01T19:10:01","120","2023/08/01","19:10:01","-15.795603156089783","35.002780499868095","0.2","14","300","64","98","-42","-26976","-719","10","150","150.21","116.59","33.62","21.63","52.5","11.48","90888","21.50","DUALSPOT-UV-BLUE-GREEN-RED-IR","647221","662973","906599","17.830758","5.628273","0.012850","770694","859706","838205","12.602060","3.718853","0.011198","768437","842384","832809","10.875603","3.153878","0.009586","798223","848804","887074","8.802729","2.441857","0.004549","722265","879230","963175","5.544395","1.560010","0.003182","3364","4049","4364","3188","3558","3712","3156","3417","3524","3179","3275","3311","2972","3010","3025","DualSpot on"
"MA200-0420","47335","77","1","1.10","1.6","2023-08-01T19:15:01","120","2023/08/01","19:15:01","-15.795616090297699","35.00282399961725","0.3","14","300","64","98","-16","-27066","-600","10","150","150.21","116.14","34.07","21.53","52.8","11.49","90892","21.44","DUALSPOT-UV-BLUE-GREEN-RED-IR","641917","660101","904584","18.431282","5.838619","0.012006","765234","856253","836070","13.056079","3.862113","0.007438","768666","844995","836389","11.275416","3.277719","0.006490","798757","851369","890605","9.133477","2.539575","0.001087","723645","882291","967160","5.767830","1.625990","0.001617","3037","3626","3900","2897","3117","3209","2858","3018","3083","2857","2877","2885","2687","2705","2712","DualSpot on"
"MA200-0420","47336","77","1","1.10","1.6","2023-08-01T19:20:01","120","2023/08/01","19:20:01","-15.795641720294952","35.002867499832064","0.3","14","300","64","98","-100","-27024","-828","10","150","150.46","116.26","34.20","21.44","53.1","11.48","90884","21.31","DUALSPOT-UV-BLUE-GREEN-RED-IR","640629","661054","907612","18.965682","6.028181","0.012216","764780","858049","838929","13.454349","3.993302","0.010807","763989","841867","834239","11.626591","3.389066","0.008503","794212","848252","888143","9.427435","2.627952","0.003125","720854","880112","965311","5.962692","1.684262","0.003756","2699","3255","3514","2539","2843","2971","2507","2702","2783","2536","2592","2613","2341","2380","2395","DualSpot on"
"MA200-0420","47337","77","1","1.10","1.6","2023-08-01T19:25:01","120","2023/08/01","19:25:01","-15.795644521713257","35.002778499852866","0.1","13","300","64","98","4","-27028","-792","10","150","149.89","115.99","33.89","21.37","53.5","11.53","90880","21.25","DUALSPOT-UV-BLUE-GREEN-RED-IR","634949","657565","904612","19.524296","6.226187","0.012208","759271","854184","836246","13.858881","4.122263","0.008279","759078","838475","831776","11.978875","3.498357","0.006700","794435","850212","890944","9.717459","2.712422","-0.000456","717242","876907","962328","6.154428","1.737320","-0.012929","2828","3431","3713","2585","2820","2920","2521","2677","2741","2508","2500","2497","2309","2186","2138","DualSpot on"
"MA200-0420","47338","77","1","1.10","1.6","2023-08-01T19:30:01","120","2023/08/01","19:30:01","-15.795596480369568","35.00273966626264","0.2","13","300","64","98","-68","-26803","-863","10","150","150.28","116.15","34.12","21.33","53.8","11.57","90868","21.25","DUALSPOT-UV-BLUE-GREEN-RED-IR","632301","656934","905379","20.028622","6.407219","0.012280","756914","853688","836741","14.230436","4.243892","0.009838","757965","839122","833249","12.304081","3.600049","0.006778","787863","844801","886000","9.989491","2.794125","0.003006","717529","878395","964488","6.339954","1.792817","0.003898","2550","3116","3382","2371","2642","2757","2324","2474","2535","2349","2402","2422","2231","2271","2287","DualSpot on"
"MA200-0420","47339","77","1","1.10","1.6","2023-08-01T19:35:01","120","2023/08/01","19:35:01","-15.79565566778183","35.00272649945691","0.0","13","300","64","98","-4","-26996","-776","10","150","150.28","116.29","34.00","21.27","53.8","11.53","90884","21.19","DUALSPOT-UV-BLUE-GREEN-RED-IR","633217","659518","910246","20.418922","6.548393","0.012679","758539","857156","840922","14.514692","4.337507","0.010534","754068","836225","831049","12.555215","3.680778","0.009838","789885","848156","890101","10.195778","2.856479","0.004419","714679","875800","961990","6.480110","1.832366","-0.007858","1971","2439","2660","1812","2041","2139","1792","1971","2045","1779","1840","1863","1683","1625","1602","DualSpot on"
"MA200-0420","47340","77","1","1.10","1.6","2023-08-01T19:40:01","120","2023/08/01","19:40:01","-15.795647978782654","35.002686666091904","0.1","13","300","64","98","-16","-26963","-1028","10","150","150.41","116.19","34.22","21.23","54.0","11.56","90904","21.19","DUALSPOT-UV-BLUE-GREEN-RED-IR","627465","656768","908732","21.163552","6.803051","0.009079","751986","853366","838801","15.124204","4.526973","0.004862","748863","833641","829879","13.104494","3.847927","0.003445","784784","845573","888622","10.669834","2.996147","0.000067","715901","879474","967022","6.823791","1.930400","-0.006692","3764","4371","4659","3888","4105","4197","3924","4055","4110","4093","4095","4096","4132","4002","3951","DualSpot on"
"MA200-0420","47341","77","1","1.10","1.6","2023-08-01T19:45:01","120","2023/08/01","19:45:01","-15.795550525188446","35.00278916629031","0.0","12","300","64","98","-20","-27100","-772","10","150","149.79","115.96","33.83","21.18","54.0","11.50","90908","21.06","DUALSPOT-UV-BLUE-GREEN-RED-IR","624110","655043","907815","21.602990","6.962955","0.012376","749531","852457","838857","15.465979","4.641730","0.011470","746354","832528","829604","13.409431","3.947407","0.010703","782207","844278","887942","10.927667","3.074433","0.004914","714519","878880","966857","7.006447","1.984273","0.002152","2225","2776","3038","2184","2514","2656","2183","2441","2549","2230","2321","2357","2200","2224","2234","DualSpot on"
"MA200-0420","47342","77","1","1.10","1.6","2023-08-01T19:50:01","120","2023/08/01","19:50:01","-15.795654356479645","35.002698166063055","0.2","13","300","64","98","-16","-26940","-804","10","150","149.59","116.07","33.52","21.10","53.9","11.40","90908","21.00","DUALSPOT-UV-BLUE-GREEN-RED-IR","620809","652925","906017","21.932632","7.087967","0.014423","746022","849928","837163","15.731230","4.734606","0.014815","748293","836055","833745","13.647138","4.028165","0.014668","784498","847904","892321","11.128810","3.138732","0.011644","712338","877028","965225","7.143749","2.025723","0.008334","1668","2190","2440","1694","2054","2209","1700","2000","2125","1738","1924","1997","1652","1727","1757","DualSpot on"
"MA200-0420","47343","77","1","1.10","1.6","2023-08-01T19:55:01","120","2023/08/01","19:55:01","-15.795637726783752","35.0027296661865","0.1","12","300","64","98","-116","-27168","-712","10","150","150.69","116.21","34.49","21.01","53.9","11.31","90912","20.88","DUALSPOT-UV-BLUE-GREEN-RED-IR","620422","653956","908591","22.278156","7.212021","0.010626","745957","851429","839392","16.006727","4.826611","0.009502","743765","832331","830718","13.892085","4.108179","0.009002","780595","844884","889730","11.334187","3.202230","0.004855","709141","873932","962239","7.283336","2.069265","0.009140","1746","2112","2288","1757","1977","2072","1750","1926","2000","1773","1847","1876","1678","1763","1797","DualSpot on"
"MA200-0420","47344","77","1","1.10","1.6","2023-08-01T20:00:01","120","2023/08/01","20:00:01","-15.795649349689484","35.00266783311963","0.2","12","300","64","98","-24","-27063","-672","10","150","149.41","116.12","33.28","20.89","54.0","11.22","90916","20.75","DUALSPOT-UV-BLUE-GREEN-RED-IR","615783","650619","905136","22.652286","7.348812","0.012792","741719","848239","837108","16.303537","4.927140","0.012671","744133","834218","833334","14.157042","4.195851","0.012715","775101","840190","885410","11.556817","3.272538","0.010763","710638","876692","965753","7.434074","2.116001","0.013793","1892","2414","2664","1894","2239","2388","1894","2186","2310","1923","2119","2196","1813","1961","2020","DualSpot on"
"MA200-0420","47345","77","1","1.10","1.6","2023-08-01T20:05:01","120","2023/08/01","20:05:01","-15.79563182592392","35.00269033294171","0.1","12","300","64","98","12","-27152","-208","10","150","149.74","116.08","33.66","20.80","54.0","11.15","90912","20.63","DUALSPOT-UV-BLUE-GREEN-RED-IR","616549","652906","909576","23.016704","7.481910","0.012072","741985","850179","839877","16.592905","5.025488","0.011939","740869","831993","831843","14.415499","4.281628","0.011839","778454","845086","891152","11.774364","3.341048","0.009120","708228","874647","963895","7.583627","2.160014","0.002714","1843","2322","2553","1847","2166","2304","1848","2115","2228","1880","2042","2106","1799","1826","1837","DualSpot on"
"MA200-0420","47346","77","1","1.10","1.6","2023-08-01T20:10:01","120","2023/08/01","20:10:01","-15.795661330223083","35.002796499757096","0.4","12","300","64","98","-44","-26960","-592","10","150","149.93","116.39","33.54","20.66","54.2","11.07","90928","20.56","DUALSPOT-UV-BLUE-GREEN-RED-IR","609627","647028","902485","23.364052","7.608978","0.012224","734287","842928","833485","16.875836","5.120265","0.011211","738823","831099","831644","14.669369","4.365470","0.011740","777075","844845","891515","11.989989","3.407039","0.006659","707310","874383","964045","7.729084","2.205297","0.013086","1752","2225","2453","1802","2094","2222","1810","2075","2187","1858","1974","2019","1745","1886","1942","DualSpot on"
"MA200-0420","47347","77","1","1.10","1.6","2023-08-01T20:15:01","120","2023/08/01","20:15:01","-15.795620203018188","35.00277099967934","0.2","12","300","64","98","-76","-27019","-700","10","150","150.60","116.31","34.29","20.60","54.3","11.04","90928","20.50","DUALSPOT-UV-BLUE-GREEN-RED-IR","608367","647247","904110","23.751290","7.755958","0.012593","739246","850323","841667","17.179066","5.227178","0.012787","737991","831647","832951","14.939515","4.458090","0.012611","776012","845005","892328","12.216293","3.480513","0.010148","707082","875072","965251","7.885767","2.253569","0.007510","1955","2517","2789","1932","2311","2476","1928","2242","2375","1952","2149","2228","1881","1966","2000","DualSpot on"
"MA200-0420","47348","77","1","1.10","1.6","2023-08-01T20:20:01","120","2023/08/01","20:20:01","-15.795632004737854","35.0027366662398","0.0","12","300","64","98","-56","-27047","-500","10","150","149.77","116.18","33.59","20.55","54.4","11.03","90924","20.44","DUALSPOT-UV-BLUE-GREEN-RED-IR","609117","649753","909097","24.166298","7.911278","0.012596","735191","847436","839748","17.500338","5.338436","0.012655","734751","829622","831735","15.226842","4.554190","0.012001","773530","843706","891665","12.459006","3.557544","0.009649","705845","874533","965194","8.053194","2.303840","0.006342","2098","2715","3016","2049","2455","2633","2053","2375","2512","2095","2300","2382","2013","2090","2121","DualSpot on"
"MA200-0420","47349","77","1","1.10","1.6","2023-08-01T20:25:01","120","2023/08/01","20:25:01","-15.795610308647156","35.00276549952105","0.1","12","300","64","98","-70","-26954","-1045","10","150","149.69","116.11","33.58","20.47","54.5","10.99","90916","20.44","DUALSPOT-UV-BLUE-GREEN-RED-IR","604893","647478","907719","24.714482","8.112148","0.011512","730580","844556","838102","17.934612","5.483133","0.010025","730635","827136","830284","15.616278","4.680317","0.009365","768780","840477","889140","12.791894","3.659347","0.005829","702885","872364","963453","8.289922","2.373699","0.003362","2772","3513","3875","2772","3194","3380","2784","3118","3261","2876","3041","3108","2848","2906","2929","DualSpot on"
"MA200-0420","47350","77","1","1.10","1.6","2023-08-01T20:30:01","120","2023/08/01","20:30:01","-15.795632481575012","35.0027304997202","0.0","12","300","64","98","-44","-26936","-928","10","150","149.52","115.99","33.53","20.47","54.7","11.03","90928","20.31","DUALSPOT-UV-BLUE-GREEN-RED-IR","601652","645385","905928","25.063206","8.246593","0.013249","726928","841903","836314","18.222616","5.583602","0.012598","732267","830427","834311","15.878585","4.768487","0.011880","765837","838518","887678","13.015983","3.730343","0.009103","705083","875984","967911","8.447458","2.421554","0.007864","1765","2354","2643","1840","2221","2389","1877","2182","2314","1938","2124","2198","1897","1993","2032","DualSpot on"
"MA200-0420","47351","77","1","1.10","1.6","2023-08-01T20:35:01","120","2023/08/01","20:35:01","-15.795592367649078","35.002755999565125","0.2","12","300","64","98","-56","-26896","-676","10","150","149.53","116.00","33.53","20.39","54.8","10.98","90924","20.25","DUALSPOT-UV-BLUE-GREEN-RED-IR","602534","647519","910032","25.368556","8.364536","0.013164","728944","845644","840782","18.478930","5.674058","0.013075","729017","827946","832505","16.109407","4.847528","0.012962","768318","842374","892329","13.216765","3.794420","0.009626","702677","873895","965985","8.588015","2.464319","0.007976","1546","2065","2321","1638","1999","2159","1652","1956","2088","1736","1917","1989","1692","1781","1817","DualSpot on"
"MA200-0420","47352","77","1","1.10","1.6","2023-08-01T20:40:01","120","2023/08/01","20:40:01","-15.795650839805603","35.00273299938999","0.3","12","300","64","98","-62","-26800","-608","10","150","150.29","116.57","33.72","20.34","55.0","10.99","90928","20.25","DUALSPOT-UV-BLUE-GREEN-RED-IR","600856","646820","910069","25.649414","8.476631","0.014107","727528","845281","841128","18.714468","5.757052","0.012794","727305","827204","832359","16.325768","4.921378","0.012541","766512","841466","891927","13.401833","3.854962","0.011574","701800","873619","966064","8.719925","2.503741","0.005078","1415","1952","2217","1497","1824","1969","1540","1818","1937","1592","1801","1885","1580","1633","1654","DualSpot on"
"MA200-0420","47353","77","1","1.10","1.6","2023-08-01T20:45:01","120","2023/08/01","20:45:01","-15.795695841312408","35.00269649946131","0.2","11","300","64","98","40","-27056","-264","10","150","149.30","116.18","33.13","20.29","55.1","10.97","90936","20.19","DUALSPOT-UV-BLUE-GREEN-RED-IR","597896","644781","908277","25.947594","8.595051","0.014259","723152","841543","838178","18.966892","5.848628","0.014893","724648","825396","831214","16.554276","5.001789","0.015172","763657","839430","890341","13.599804","3.920699","0.013803","699936","872120","964880","8.862125","2.549019","0.015878","1507","2099","2392","1610","2049","2244","1632","2015","2180","1709","1990","2104","1709","1909","1989","DualSpot on"
"MA200-0420","47354","77","1","1.10","1.6","2023-08-01T20:50:01","120","2023/08/01","20:50:01","-15.795615792274475","35.00272583286278","0.1","11","300","64","98","-59","-26856","-888","10","150","149.77","116.22","33.56","20.25","55.3","10.99","90932","20.13","DUALSPOT-UV-BLUE-GREEN-RED-IR","595356","643118","906933","26.223796","8.705524","0.013949","720844","840097","837428","19.199764","5.932796","0.013911","722401","823991","830400","16.766617","5.076197","0.013990","761140","837706","889021","13.781893","3.979484","0.010335","698104","870662","963642","8.993809","2.588949","0.007322","1395","1933","2201","1485","1859","2026","1516","1841","1981","1571","1757","1833","1582","1662","1694","DualSpot on"
"MA200-0420","47355","77","1","1.10","1.6","2023-08-01T20:55:01","120","2023/08/01","20:55:01","-15.795628666877747","35.00273516634479","0.1","12","300","64","98","-104","-26763","-1360","10","150","150.15","116.29","33.86","20.21","55.5","11.01","90928","20.13","DUALSPOT-UV-BLUE-GREEN-RED-IR","591935","640642","904531","26.533692","8.825592","0.012487","717170","837208","835371","19.462876","6.026596","0.012604","723488","826526","833612","17.006476","5.158212","0.011770","757320","834646","886412","13.992826","4.048669","0.010799","695894","868763","961997","9.143078","2.634967","0.008350","1565","2082","2340","1677","2053","2222","1712","2011","2141","1819","2050","2143","1793","1898","1941","DualSpot on"
"MA200-0420","47356","77","1","1.10","1.6","2023-08-01T21:00:01","120","2023/08/01","21:00:01","-15.795644402503967","35.00271283299662","0.1","12","300","64","98","-100","-26988","-712","10","150","150.34","116.27","34.07","20.18","55.6","11.02","90932","20.13","DUALSPOT-UV-BLUE-GREEN-RED-IR","590802","640432","905233","26.804698","8.936466","0.013906","715520","836528","835366","19.689430","6.109106","0.013226","718209","821549","829246","17.212032","5.230752","0.013182","756991","835269","887618","14.171201","4.108669","0.012164","695630","869237","962862","9.270386","2.674535","0.008473","1369","1911","2182","1444","1795","1953","1467","1767","1898","1539","1766","1859","1529","1622","1659","DualSpot on"
"MA200-0420","47357","77","1","1.10","1.6","2023-08-01T21:05:01","120","2023/08/01","21:05:01","-15.795560836791992","35.00280266604386","0.1","13","300","64","98","16","-27091","-262","10","150","149.44","116.13","33.30","20.19","55.9","11.10","90940","20.19","DUALSPOT-UV-BLUE-GREEN-RED-IR","589967","640531","906349","27.069042","9.042999","0.013977","715225","837337","836810","19.908498","6.186467","0.012624","717409","821749","830019","17.413498","5.299046","0.011910","756283","835490","888295","14.343170","4.163381","0.009310","695354","869632","963701","9.397552","2.712651","0.006351","1336","1878","2150","1398","1721","1867","1440","1702","1817","1485","1648","1714","1529","1598","1626","DualSpot on"
"MA200-0420","47358","77","1","1.10","1.6","2023-08-01T21:10:01","120","2023/08/01","21:10:01","-15.795641303062439","35.00269849947654","0.1","13","300","64","97","-29","-26958","-791","10","150","149.47","116.37","33.10","20.19","56.1","11.15","90936","20.13","DUALSPOT-UV-BLUE-GREEN-RED-IR","588387","639808","906289","27.333126","9.151283","0.014599","713532","836528","836649","20.124758","6.265224","0.014379","719974","825751","834597","17.608988","5.366494","0.013322","754429","834403","887659","14.512608","4.218288","0.011314","693879","868556","962864","9.519623","2.749251","0.007436","1332","1921","2217","1377","1764","1938","1394","1691","1822","1460","1664","1747","1465","1544","1577","DualSpot on"
"MA200-0420","47359","77","1","1.10","1.6","2023-08-01T21:15:01","120","2023/08/01","21:15:01","-15.795582950115204","35.00280916620977","0.2","13","300","64","98","-59","-27000","-524","10","150","149.59","115.95","33.63","20.20","56.3","11.23","90940","20.19","DUALSPOT-UV-BLUE-GREEN-RED-IR","585918","638123","904875","27.595912","9.256054","0.013061","711226","834993","835767","20.338896","6.341080","0.011962","718714","825381","834798","17.804500","5.434146","0.012208","752887","833647","887338","14.681528","4.273315","0.010076","693099","868350","962987","9.644016","2.786829","0.005716","1331","1829","2081","1369","1672","1809","1399","1669","1788","1461","1641","1715","1498","1560","1586","DualSpot on"
"MA200-0420","47360","77","1","1.10","1.6","2023-08-01T21:20:01","120","2023/08/01","21:20:01","-15.795619368553162","35.00276566622779","0.1","13","300","64","98","-96","-27072","-680","10","150","149.47","116.10","33.36","20.21","56.4","11.26","90940","20.19","DUALSPOT-UV-BLUE-GREEN-RED-IR","586130","639358","907593","27.857948","9.362526","0.013788","711584","836581","837975","20.556008","6.419358","0.013149","714029","821012","830968","18.001494","5.504847","0.014666","753898","835690","890021","14.851200","4.330212","0.012846","693751","869898","965059","9.770214","2.825570","0.008980","1325","1874","2152","1386","1739","1899","1408","1759","1913","1466","1711","1811","1518","1622","1664","DualSpot on"
"MA200-0420","47361","77","1","1.10","1.6","2023-08-01T21:25:01","120","2023/08/01","21:25:01","-15.795589327812195","35.00277049955912","0.0","13","300","64","98","-36","-26988","-804","10","150","149.59","115.95","33.63","20.22","56.5","11.31","90944","20.19","DUALSPOT-UV-BLUE-GREEN-RED-IR","584444","638773","907892","28.179050","9.490250","0.012738","710077","836120","838296","20.806938","6.509410","0.012335","712030","819961","830517","18.225914","5.580850","0.010675","752109","834822","889628","15.043789","4.392298","0.009039","692328","868960","964460","9.912128","2.869091","0.007527","1626","2230","2537","1604","1984","2158","1606","1876","1995","1666","1852","1928","1709","1807","1847","DualSpot on"
"MA200-0420","47362","77","1","1.10","1.6","2023-08-01T21:30:01","120","2023/08/01","21:30:01","-15.795614004135132","35.00276549952105","0.1","13","300","64","98","125","-26979","-737","10","150","149.87","116.08","33.79","20.24","56.6","11.34","90944","20.19","DUALSPOT-UV-BLUE-GREEN-RED-IR","581526","636919","906560","28.532616","9.629826","0.012252","706900","833875","836907","21.086114","6.606541","0.010494","710272","819282","830538","18.478364","5.665926","0.010024","750042","833715","889119","15.260725","4.462750","0.009201","691171","868475","964391","10.069027","2.916468","0.004951","1789","2425","2750","1782","2130","2289","1805","2090","2216","1874","2091","2181","1888","1958","1987","DualSpot on"
"MA200-0420","47363","77","1","1.10","1.6","2023-08-01T21:35:01","120","2023/08/01","21:35:01","-15.795666873455048","35.00273683294654","0.4","12","300","64","98","-136","-26916","-300","10","150","149.41","115.83","33.57","20.22","56.6","11.33","90944","20.19","DUALSPOT-UV-BLUE-GREEN-RED-IR","580633","636894","907442","28.785144","9.732716","0.013203","706405","834345","837931","21.284646","6.680490","0.013793","709271","819049","830818","18.656732","5.729536","0.013376","749209","833655","889471","15.415024","4.514768","0.012162","690415","868166","964355","10.180241","2.951196","0.009652","1280","1800","2065","1270","1632","1798","1278","1573","1703","1336","1554","1644","1341","1445","1487","DualSpot on"
"MA200-0420","47364","77","1","1.10","1.6","2023-08-01T21:40:01","120","2023/08/01","21:40:01","-15.79559189081192","35.00275749969296","0.2","12","300","64","98","-16","-26868","-676","10","150","150.67","116.27","34.40","20.19","56.7","11.33","90948","20.13","DUALSPOT-UV-BLUE-GREEN-RED-IR","578985","635912","906867","29.005054","9.823578","0.012926","704601","833140","837289","21.462564","6.746347","0.012493","712476","823600","835929","18.817502","5.786386","0.011690","747436","832431","888600","15.552635","4.561101","0.010512","689011","867027","963373","10.281124","2.981922","0.003882","1110","1551","1777","1134","1419","1550","1147","1372","1471","1187","1351","1419","1212","1247","1262","DualSpot on"
"MA200-0420","47365","77","1","1.10","1.6","2023-08-01T21:45:01","120","2023/08/01","21:45:01","-15.795619070529938","35.00277716643177","0.1","12","300","64","98","4","-26880","-764","10","150","150.46","116.48","33.98","20.17","56.8","11.34","90948","20.06","DUALSPOT-UV-BLUE-GREEN-RED-IR","576522","634053","904983","29.226216","9.912334","0.012405","701771","830757","835406","21.642062","6.811336","0.012033","710270","821951","834734","18.981278","5.844455","0.012512","745748","831361","887861","15.694012","4.608003","0.010373","688292","866711","963376","10.385891","3.014830","0.009411","1115","1534","1749","1142","1418","1544","1167","1418","1530","1217","1384","1454","1256","1353","1392","DualSpot on"
"MA200-0420","47366","77","1","1.10","1.6","2023-08-01T21:50:01","120","2023/08/01","21:50:01","-15.795625567436218","35.002731166314334","0.0","12","300","64","98","-124","-26740","-828","10","150","149.65","116.22","33.43","20.14","56.8","11.30","90952","20.06","DUALSPOT-UV-BLUE-GREEN-RED-IR","574939","633036","904293","29.423042","9.995762","0.014194","705544","836042","841252","21.799820","6.871234","0.014606","708622","820760","833982","19.123194","5.897483","0.015782","743942","830005","886805","15.818029","4.650889","0.014073","686887","865473","962254","10.475765","3.044050","0.014805","994","1465","1708","1006","1328","1476","1013","1316","1452","1070","1287","1377","1080","1220","1278","DualSpot on"
"MA200-0420","47367","77","1","1.10","1.6","2023-08-01T21:55:01","120","2023/08/01","21:55:01","-15.795700192451477","35.00271266628988","0.7","12","300","64","98","-23","-26988","-592","10","150","149.71","116.37","33.34","20.07","56.6","11.19","90948","20.00","DUALSPOT-UV-BLUE-GREEN-RED-IR","577209","636284","909760","29.628918","10.080978","0.013589","702737","833547","839306","21.967694","6.936940","0.015866","706326","818865","832533","19.274822","5.954101","0.015822","746757","833853","891302","15.947248","4.696878","0.016023","689053","868709","966163","10.565384","3.073451","0.016069","1039","1501","1739","1069","1460","1641","1081","1409","1556","1114","1383","1496","1075","1231","1295","DualSpot on"
"MA200-0420","47368","77","1","1.10","1.6","2023-08-01T22:00:01","120","2023/08/01","22:00:01","-15.79558402299881","35.00278149964288","0.1","13","300","64","98","-8","-26828","-863","10","150","150.49","116.12","34.37","20.03","56.2","11.04","90940","19.94","DUALSPOT-UV-BLUE-GREEN-RED-IR","574970","634665","908321","29.862668","10.182201","0.013823","700305","831594","837985","22.156688","7.014858","0.016481","704592","817709","831911","19.444202","6.021132","0.016879","745497","833198","891103","16.089401","4.749872","0.016736","688369","868472","966192","10.666859","3.107967","0.016321","1182","1730","2013","1206","1680","1900","1211","1619","1802","1228","1547","1680","1220","1403","1478","DualSpot on"
"MA200-0420","47369","77","1","1.10","1.6","2023-08-01T22:05:01","120","2023/08/01","22:05:01","-15.795600712299347","35.002697832882404","0.1","13","300","64","98","-20","-27060","-640","10","150","150.08","116.14","33.94","19.98","55.5","10.79","90936","19.88","DUALSPOT-UV-BLUE-GREEN-RED-IR","571885","632213","905754","30.119792","10.287609","0.012600","696890","828584","835628","22.363062","7.096996","0.015492","705894","820130","834954","19.629198","6.093816","0.016968","741672","829726","887880","16.245724","4.808126","0.017295","685819","865858","963702","10.777397","3.146489","0.019830","1300","1824","2095","1317","1793","2015","1322","1777","1982","1350","1721","1878","1329","1585","1690","DualSpot on"
"MA200-0420","47370","77","1","1.10","1.6","2023-08-01T22:10:01","120","2023/08/01","22:10:01","-15.7955801486969","35.00280366605148","0.2","13","300","64","98","-40","-26956","-752","10","150","150.47","116.43","34.04","19.88","54.6","10.47","90940","19.75","DUALSPOT-UV-BLUE-GREEN-RED-IR","572676","634061","909359","30.376064","10.390652","0.011954","698321","831291","839045","22.564762","7.179526","0.016370","702030","816529","831891","19.808490","6.164790","0.017133","743429","832498","891341","16.394917","4.863107","0.016478","687217","868222","966655","10.876980","3.180474","0.017569","1292","1777","2029","1284","1797","2036","1278","1730","1935","1285","1620","1761","1194","1394","1477","DualSpot on"
"MA200-0420","47371","77","1","1.10","1.6","2023-08-01T22:15:01","120","2023/08/01","22:15:01","-15.795618891716003","35.002795999636874","0.0","13","300","64","98","-70","-26887","-545","10","150","149.30","116.22","33.08","19.75","54.1","10.20","90924","19.56","DUALSPOT-UV-BLUE-GREEN-RED-IR","567906","629790","904129","30.638004","10.493092","0.011830","692725","825650","834044","22.773016","7.259439","0.014847","702669","818220","834192","19.991712","6.233021","0.015470","739240","828589","887665","16.548428","4.917326","0.015416","684681","865574","964022","10.977417","3.214550","0.019437","1323","1818","2076","1328","1790","2006","1308","1712","1894","1325","1644","1779","1207","1438","1534","DualSpot on"
"MA200-0420","47372","77","1","1.10","1.6","2023-08-01T22:20:01","120","2023/08/01","22:20:01","-15.795648515224457","35.00281099951826","0.1","13","300","64","98","-36","-26903","-628","10","150","150.01","116.37","33.64","19.63","53.8","10.00","90924","19.44","DUALSPOT-UV-BLUE-GREEN-RED-IR","568060","631024","906887","30.914482","10.601635","0.011411","693222","827400","836483","22.994578","7.342056","0.012990","698926","814874","831375","20.187958","6.305433","0.014204","739828","830196","889847","16.713512","4.975103","0.013807","685757","867569","966599","11.087540","3.250390","0.013632","1395","1895","2156","1411","1820","2012","1400","1787","1962","1423","1723","1850","1321","1488","1557","DualSpot on"
"MA200-0420","47373","77","1","1.10","1.6","2023-08-01T22:25:01","120","2023/08/01","22:25:01","-15.795641899108887","35.002776332898065","0.1","13","300","64","98","0","-27150","-525","10","150","149.69","116.35","33.34","19.51","53.7","9.85","90916","19.31","DUALSPOT-UV-BLUE-GREEN-RED-IR","568131","632245","909700","31.207912","10.716183","0.011393","694173","829792","839646","23.232014","7.431326","0.013538","698635","815634","832792","20.400380","6.382899","0.013925","734665","825366","885238","16.893236","5.036415","0.012637","682590","864288","963328","11.209118","3.289776","0.013912","1481","2017","2298","1512","1984","2206","1515","1929","2117","1549","1844","1970","1459","1650","1729","DualSpot on"
"MA200-0420","47374","77","1","1.10","1.6","2023-08-01T22:30:01","120","2023/08/01","22:30:01","-15.795633912086487","35.002789499703795","0.1","13","300","64","98","-116","-27083","-575","10","150","149.94","116.41","33.53","19.41","53.7","9.76","90928","19.25","DUALSPOT-UV-BLUE-GREEN-RED-IR","565160","629921","907432","31.481922","10.829697","0.012722","690335","826329","836838","23.451456","7.515509","0.013992","696299","813921","831639","20.598440","6.456357","0.014335","737726","829688","890405","17.059786","5.094900","0.013956","685341","868448","968306","11.324043","3.328687","0.017579","1382","1988","2306","1397","1861","2079","1412","1818","2004","1435","1749","1883","1379","1621","1721","DualSpot on"
"MA200-0420","47375","77","1","1.10","1.6","2023-08-01T22:35:01","120","2023/08/01","22:35:01","-15.795593321323395","35.00276899966411","0.1","13","300","64","98","12","-26896","-684","10","150","150.15","116.74","33.40","19.35","53.6","9.68","90944","19.25","DUALSPOT-UV-BLUE-GREEN-RED-IR","562303","627779","905283","31.757508","10.939087","0.011694","693024","830720","841989","23.674730","7.597262","0.012321","694296","812582","830896","20.798166","6.528395","0.013233","736193","828861","890013","17.228962","5.152381","0.012248","683801","867153","967235","11.440613","3.365020","0.009817","1386","1923","2205","1417","1814","2001","1420","1790","1959","1453","1726","1842","1394","1519","1571","DualSpot on"
"MA200-0420","47376","77","1","1.10","1.6","2023-08-01T22:40:01","120","2023/08/01","22:40:01","-15.795684516429901","35.002751499647275","0.1","13","300","64","98","-120","-27029","-695","10","150","150.15","116.71","33.44","19.30","53.3","9.57","90940","19.13","DUALSPOT-UV-BLUE-GREEN-RED-IR","563843","630515","910237","32.027180","11.047554","0.011905","689646","827737","839666","23.889562","7.680218","0.014180","695268","814724","833681","20.987730","6.599154","0.014593","732138","825150","886553","17.388338","5.208719","0.014384","681385","864721","964897","11.551693","3.403096","0.018841","1357","1905","2193","1364","1838","2063","1348","1756","1943","1370","1690","1827","1329","1590","1699","DualSpot on"
"MA200-0420","47377","77","1","1.10","1.6","2023-08-01T22:45:01","120","2023/08/01","22:45:01","-15.795664668083191","35.002751499647275","0.3","13","300","64","98","-84","-27044","-688","10","150","149.82","116.43","33.39","19.26","53.2","9.50","90944","19.13","DUALSPOT-UV-BLUE-GREEN-RED-IR","562111","629608","909925","32.299522","11.155182","0.011332","687929","826808","839356","24.103750","7.757737","0.011559","693436","813575","833034","21.178668","6.666204","0.011648","735778","830139","892347","17.548658","5.261768","0.010259","680159","863827","964211","11.663792","3.437620","0.008125","1373","1893","2167","1363","1720","1890","1361","1667","1807","1381","1593","1684","1344","1444","1485","DualSpot on"
"MA200-0420","47378","77","1","1.10","1.6","2023-08-01T22:50:01","120","2023/08/01","22:50:01","-15.795613288879395","35.00279283290729","0.0","13","300","64","97","-36","-26872","-876","10","150","150.60","116.67","33.94","19.24","53.3","9.51","90948","19.13","DUALSPOT-UV-BLUE-GREEN-RED-IR","560218","628729","909742","32.615796","11.277527","0.010277","685878","825623","838890","24.344262","7.844702","0.010842","692377","813466","833558","21.390936","6.740372","0.010614","729301","823782","886073","17.724962","5.321588","0.010841","679836","864170","964984","11.788250","3.475629","0.005605","1592","2117","2395","1528","1899","2076","1510","1814","1954","1516","1768","1876","1490","1564","1595","DualSpot on"
"MA200-0420","47379","77","1","1.10","1.6","2023-08-01T22:55:01","120","2023/08/01","22:55:01","-15.795651197433472","35.002753499662504","0.1","12","300","64","98","-25","-27012","-820","10","150","149.38","116.63","32.75","19.21","53.5","9.53","90944","19.06","DUALSPOT-UV-BLUE-GREEN-RED-IR","555681","625166","905976","33.016694","11.430916","0.010804","680895","821237","835338","24.649970","7.952561","0.011140","687941","809652","830426","21.659532","6.832725","0.011399","730912","826867","890039","17.949892","5.393545","0.009247","676875","861340","962269","11.941536","3.523162","0.010790","2019","2750","3138","1943","2441","2678","1912","2341","2538","1934","2204","2320","1836","2027","2107","DualSpot on"
"MA200-0420","47380","77","1","1.10","1.6","2023-08-01T23:00:01","120","2023/08/01","23:00:01","-15.795679450035095","35.00271016638726","0.1","13","300","64","98","-52","-26932","-756","10","150","150.67","116.35","34.32","19.20","53.7","9.59","90948","19.06","DUALSPOT-UV-BLUE-GREEN-RED-IR","555364","625785","907789","33.272152","11.532543","0.010460","681037","822428","837158","24.848152","8.024832","0.010413","688130","810800","832128","21.835872","6.894867","0.010147","731223","828044","891733","18.098744","5.443971","0.009682","677107","862255","963606","12.046638","3.555037","0.003194","1289","1739","1977","1262","1561","1703","1258","1503","1616","1283","1474","1556","1261","1297","1312","DualSpot on"
"MA200-0420","47381","77","1","1.10","1.6","2023-08-01T23:05:01","120","2023/08/01","23:05:01","-15.795746803283691","35.002711166162044","0.2","13","300","64","98","-125","-27016","-791","10","150","149.69","116.03","33.66","19.16","54.1","9.64","90968","19.06","DUALSPOT-UV-BLUE-GREEN-RED-IR","553570","624655","907037","33.511834","11.629662","0.011282","679205","821225","836502","25.037726","8.091859","0.009763","686192","809427","831193","22.005060","6.953412","0.010000","729456","826798","890832","18.239622","5.489414","0.007575","675829","861188","962713","12.147472","3.586602","0.008318","1213","1694","1950","1211","1476","1603","1210","1444","1552","1218","1354","1413","1213","1310","1350","DualSpot on"
"MA200-0420","47382","77","1","1.10","1.6","2023-08-01T23:10:01","120","2023/08/01","23:10:01","-15.795715749263763","35.002767166588455","0.1","12","300","64","98","-112","-26962","-470","10","150","149.84","116.29","33.54","19.15","54.3","9.70","90952","19.06","DUALSPOT-UV-BLUE-GREEN-RED-IR","551338","622996","905509","33.747960","11.725445","0.011372","676838","819299","835134","25.222380","8.160864","0.012058","684569","808362","830566","22.168558","7.012799","0.012407","726607","824335","888563","18.377040","5.536431","0.011452","674302","859846","961516","12.245476","3.616777","0.007141","1192","1677","1935","1177","1525","1691","1167","1469","1610","1185","1406","1501","1177","1256","1290","DualSpot on"
"MA200-0420","47383","77","1","1.10","1.6","2023-08-01T23:15:01","120","2023/08/01","23:15:01","-15.795681834220886","35.002771832980216","0.1","12","300","64","98","-48","-26952","-951","10","150","150.21","116.35","33.86","19.15","54.4","9.73","90976","19.13","DUALSPOT-UV-BLUE-GREEN-RED-IR","551065","623552","907173","33.986076","11.823147","0.011355","676795","820238","836644","25.409516","8.230147","0.011294","684623","809287","832044","22.335674","7.071659","0.010531","727978","826691","891545","18.518810","5.584629","0.010478","675209","861605","963776","12.347153","3.648029","0.005974","1202","1694","1957","1192","1516","1672","1192","1443","1559","1222","1428","1516","1220","1289","1318","DualSpot on"
"MA200-0420","47384","77","1","1.10","1.6","2023-08-01T23:20:01","120","2023/08/01","23:20:01","-15.795645833015442","35.00272833299823","0.2","13","300","64","98","-64","-26988","-684","10","150","149.82","116.55","33.27","19.22","54.4","9.79","90980","19.19","DUALSPOT-UV-BLUE-GREEN-RED-IR","550916","624248","909126","34.226716","11.923923","0.012196","677001","821430","838413","25.592568","8.299588","0.012789","684393","809864","833097","22.499268","7.130883","0.012526","728517","828048","893435","18.658394","5.632077","0.011497","675272","862296","964864","12.452072","3.680702","0.009167","1212","1778","2081","1164","1547","1730","1165","1477","1622","1201","1430","1529","1257","1371","1419","DualSpot on"
"MA200-0420","47385","77","1","1.10","1.6","2023-08-01T23:25:01","120","2023/08/01","23:25:01","-15.795664846897125","35.00272316602059","0.0","13","300","64","98","-103","-26961","-734","10","150","150.15","116.74","33.40","19.31","54.5","9.89","90980","19.31","DUALSPOT-UV-BLUE-GREEN-RED-IR","546368","620522","905121","34.608396","12.080940","0.011618","672491","817492","835341","25.890914","8.409121","0.011410","684068","810876","834941","22.765430","7.225464","0.011493","723084","823111","888803","18.884480","5.709882","0.011923","675785","863945","967198","12.614727","3.731469","0.009055","1920","2760","3211","1894","2430","2688","1892","2350","2563","1942","2336","2507","1946","2123","2197","DualSpot on"
"MA200-0420","47386","77","1","1.10","1.6","2023-08-01T23:30:01","120","2023/08/01","23:30:01","-15.795681655406952","35.0027526661288","0.0","13","300","64","98","-72","-26996","-768","10","150","149.94","116.45","33.49","19.38","54.4","9.93","90984","19.31","DUALSPOT-UV-BLUE-GREEN-RED-IR","546711","621734","907790","34.842764","12.180897","0.012232","672862","818864","837317","26.073308","8.478746","0.012530","680525","807509","831980","22.928580","7.285185","0.012462","724476","825452","891760","19.025622","5.758831","0.011986","672003","859723","962789","12.720299","3.765171","0.010632","1182","1753","2060","1161","1541","1724","1163","1480","1628","1215","1466","1575","1266","1405","1464","DualSpot on"
"MA200-0420","47387","77","1","1.10","1.6","2023-08-01T23:35:01","120","2023/08/01","23:35:01","-15.795660197734833","35.00273016630672","0.3","13","300","64","98","36","-26884","-1108","10","150","150.07","116.52","33.55","19.38","54.3","9.91","90988","19.31","DUALSPOT-UV-BLUE-GREEN-RED-IR","545072","620664","907059","35.061284","12.272945","0.011865","670943","817377","836342","26.244178","8.545322","0.013097","678915","806334","831248","23.080842","7.341588","0.012818","723221","824706","891339","19.153266","5.802421","0.010997","671261","859339","962631","12.813488","3.793745","0.006588","1101","1611","1886","1087","1471","1656","1084","1395","1540","1099","1303","1392","1117","1189","1220","DualSpot on"
"MA200-0420","47388","77","1","1.10","1.6","2023-08-01T23:40:01","120","2023/08/01","23:40:01","-15.795605957508087","35.00278599956073","0.1","13","300","64","98","-140","-26880","-908","10","150","149.95","116.71","33.25","19.39","54.4","9.94","90980","19.25","DUALSPOT-UV-BLUE-GREEN-RED-IR","542382","618350","904476","35.278696","12.363594","0.011806","667896","814517","833978","26.415224","8.609002","0.011843","680674","809254","834712","23.233990","7.396312","0.011696","719471","821111","887856","19.283930","5.847434","0.011979","672827","861859","965773","12.908535","3.823195","0.008582","1094","1601","1875","1086","1419","1581","1089","1366","1496","1123","1358","1460","1137","1237","1279","DualSpot on"
"MA200-0420","47389","77","1","1.10","1.6","2023-08-01T23:45:01","120","2023/08/01","23:45:01","-15.79558151960373","35.002735666232184","0.1","13","300","64","98","-115","-27061","-896","10","150","149.59","116.33","33.26","19.35","54.6","9.96","90988","19.25","DUALSPOT-UV-BLUE-GREEN-RED-IR","542508","619257","906586","35.481852","12.448341","0.011677","668674","816296","836306","26.576824","8.670085","0.012173","676125","804569","830306","23.378504","7.449210","0.012473","719876","822240","889462","19.407336","5.889462","0.011105","673076","862747","966981","12.995499","3.851797","0.013560","1025","1496","1751","1029","1361","1522","1031","1320","1455","1064","1267","1356","1044","1201","1267","DualSpot on"
"MA200-0420","47390","77","1","1.10","1.6","2023-08-01T23:50:01","120","2023/08/01","23:50:01","-15.795670688152313","35.00268733268604","0.3","13","300","64","98","-40","-26940","-840","10","150","149.95","116.63","33.32","19.33","54.7","9.98","90996","19.19","DUALSPOT-UV-BLUE-GREEN-RED-IR","539544","616585","903459","35.687000","12.537304","0.012437","670114","818860","839416","26.736642","8.732670","0.013275","678219","807814","834073","23.521850","7.502159","0.012779","717244","819864","887284","19.529958","5.933637","0.013953","671261","860915","965251","13.083134","3.879980","0.011570","1033","1567","1857","1015","1392","1574","1020","1319","1459","1054","1329","1449","1049","1181","1236","DualSpot on"
"MA200-0420","47391","77","1","1.10","1.6","2023-08-01T23:55:01","120","2023/08/01","23:55:01","-15.795585989952087","35.002823333023116","0.2","14","300","64","98","-28","-26988","-736","10","150","149.59","116.41","33.18","19.35","54.9","10.05","91008","19.38","DUALSPOT-UV-BLUE-GREEN-RED-IR","540670","618547","907139","35.884888","12.625549","0.012972","666853","815631","836649","26.892900","8.793485","0.013086","674918","804570","831191","23.664770","7.555593","0.013272","719602","823254","891320","19.654026","5.976850","0.012305","668626","858016","962275","13.171707","3.908666","0.012323","998","1562","1868","995","1358","1535","1019","1337","1486","1069","1306","1410","1062","1207","1268","DualSpot on"
"MA200-0420","47392","77","1","1.10","1.6","2023-08-02T00:00:01","120","2023/08/02","00:00:01","-15.795643210411072","35.00272649945691","0.1","14","300","64","98","-100","-27028","-820","10","150","150.01","116.62","33.39","19.35","54.9","10.05","91000","19.25","DUALSPOT-UV-BLUE-GREEN-RED-IR","538983","617343","906196","36.093504","12.717468","0.012583","664871","814003","835539","27.057466","8.860517","0.014261","673577","803697","830755","23.810510","7.612050","0.014345","717455","821469","889777","19.778130","6.020689","0.012715","671666","862475","967534","13.263248","3.939447","0.014983","1050","1616","1924","1046","1488","1703","1037","1403","1575","1067","1317","1426","1096","1287","1368","DualSpot on"
"MA200-0420","47393","77","1","1.10","1.6","2023-08-02T00:05:01","120","2023/08/02","00:05:01","-15.795617878437042","35.002751499647275","0.1","13","300","64","98","-104","-26952","-716","10","150","150.34","116.47","33.87","19.35","55.1","10.09","90988","19.25","DUALSPOT-UV-BLUE-GREEN-RED-IR","538493","617430","907087","36.279096","12.797295","0.011721","664672","814518","836546","27.208166","8.918741","0.012063","677537","809109","836801","23.946202","7.663964","0.013235","717054","821636","890317","19.894262","6.061486","0.011569","667103","857094","961755","13.346855","3.966076","0.008929","935","1384","1628","959","1274","1427","967","1272","1416","1000","1208","1299","1002","1098","1138","DualSpot on"
"MA200-0420","47394","77","1","1.10","1.6","2023-08-02T00:10:01","120","2023/08/02","00:10:01","-15.795623660087585","35.002677666489035","0.0","13","300","64","98","16","-27008","-692","10","150","149.76","116.31","33.45","19.35","55.3","10.15","90984","19.25","DUALSPOT-UV-BLUE-GREEN-RED-IR","536906","616491","906657","36.528920","12.902550","0.011452","663073","813626","836263","27.412496","8.994946","0.011182","672166","803628","831669","24.132748","7.730067","0.010555","716418","821779","890970","20.057292","6.118441","0.011777","666859","857526","962640","13.470661","4.004608","0.007786","1261","1848","2168","1302","1689","1878","1331","1640","1786","1406","1708","1841","1486","1609","1661","DualSpot on"
"MA200-0420","47395","77","1","1.10","1.6","2023-08-02T00:15:01","120","2023/08/02","00:15:01","-15.795629680156708","35.00265599950217","0.0","13","300","64","98","79","-27162","-341","10","150","150.15","116.52","33.62","19.37","55.5","10.23","90988","19.31","DUALSPOT-UV-BLUE-GREEN-RED-IR","535158","615157","905467","36.723564","12.988773","0.012335","661261","812132","835263","27.568430","9.057075","0.013126","670011","801795","830205","24.275066","7.783598","0.012722","713915","819557","888953","20.181732","6.161772","0.011363","669254","861144","966988","13.563755","4.034748","0.010910","981","1506","1793","992","1369","1554","1014","1321","1467","1071","1292","1390","1116","1252","1309","DualSpot on"
"MA200-0420","47396","77","1","1.10","1.6","2023-08-02T00:20:01","120","2023/08/02","00:20:01","-15.795575320720673","35.00275466614403","0.2","13","300","64","98","-76","-26960","-740","10","150","149.81","116.25","33.56","19.41","55.5","10.27","90968","19.44","DUALSPOT-UV-BLUE-GREEN-RED-IR","536966","617877","910229","36.908960","13.072384","0.012609","663948","816185","839907","27.718800","9.116762","0.012932","671665","804461","833410","24.411346","7.836922","0.014075","716576","823247","893316","20.299062","6.205097","0.014125","666966","858743","964561","13.653706","4.063655","0.010164","936","1463","1752","958","1318","1494","973","1319","1482","1012","1295","1419","1080","1203","1255","DualSpot on"
"MA200-0420","47397","77","1","1.10","1.6","2023-08-02T00:25:01","120","2023/08/02","00:25:01","-15.795551061630249","35.00276649952866","0.1","13","300","64","98","-107","-27175","-584","10","150","149.50","116.00","33.50","19.53","55.6","10.39","90960","19.56","DUALSPOT-UV-BLUE-GREEN-RED-IR","534838","616045","908292","37.093092","13.156567","0.012796","661075","813382","837540","27.866466","9.174988","0.012653","669872","802935","832276","24.544126","7.886816","0.012521","714565","821520","891866","20.415608","6.247017","0.012798","669168","862119","968637","13.744614","4.092206","0.008059","932","1475","1774","943","1288","1457","950","1236","1371","1007","1255","1364","1094","1190","1231","DualSpot on"
"MA200-0420","47398","77","1","1.10","1.6","2023-08-02T00:30:01","120","2023/08/02","00:30:01","-15.795562505722046","35.00269166636281","0.1","13","300","64","98","-8","-26716","-712","10","150","149.47","116.14","33.32","19.60","55.7","10.50","90952","19.63","DUALSPOT-UV-BLUE-GREEN-RED-IR","533205","614807","907282","37.285772","13.242924","0.012490","659636","812357","836950","28.017620","9.232892","0.011895","667947","801370","831049","24.682004","7.936216","0.010868","712559","819857","890415","20.536016","6.288011","0.010320","663257","855010","960941","13.838558","4.122922","0.011980","974","1522","1823","964","1288","1447","985","1230","1346","1040","1234","1319","1129","1287","1354","DualSpot on"
"MA200-0420","47399","77","1","1.10","1.6","2023-08-02T00:35:01","120","2023/08/02","00:35:01","-15.795667707920074","35.002791999839246","0.2","13","300","64","98","56","-26916","-984","10","150","149.53","116.21","33.33","19.66","55.8","10.59","90940","19.63","DUALSPOT-UV-BLUE-GREEN-RED-IR","533815","616159","910031","37.476680","13.327946","0.012322","661103","814959","840136","28.172394","9.293607","0.012578","668339","802530","832669","24.821782","7.989473","0.013148","713792","821939","893064","20.657256","6.331014","0.012320","663940","856469","962852","13.933079","4.152214","0.007388","964","1498","1792","987","1350","1529","998","1326","1482","1046","1294","1404","1136","1227","1266","DualSpot on"
"MA200-0420","47400","77","1","1.10","1.6","2023-08-02T00:40:01","120","2023/08/02","00:40:01","-15.795597970485687","35.002740333089605","0.4","14","300","64","98","-116","-27096","-908","10","150","150.08","116.55","33.53","19.69","56.0","10.67","90932","19.69","DUALSPOT-UV-BLUE-GREEN-RED-IR","529903","612292","905118","37.671484","13.415642","0.012402","661154","815796","841549","28.332798","9.357482","0.012862","669145","804239","834919","24.968176","8.043948","0.012095","709428","817574","888685","20.785820","6.377236","0.012733","664804","858120","965043","14.030880","4.184398","0.012115","981","1536","1842","1020","1412","1605","1042","1348","1494","1106","1382","1505","1172","1340","1412","DualSpot on"
"MA200-0420","47401","77","1","1.10","1.6","2023-08-02T00:45:01","120","2023/08/02","00:45:01","-15.795575499534607","35.0026803330984","0.7","12","300","64","98","-44","-26940","-1192","10","150","150.28","116.49","33.79","19.68","56.2","10.71","90924","19.56","DUALSPOT-UV-BLUE-GREEN-RED-IR","531893","615191","910121","37.847592","13.495815","0.012407","658709","813476","839647","28.477912","9.418100","0.013933","666758","802015","833029","25.101536","8.096582","0.013843","706497","814784","886064","20.901008","6.418660","0.012304","662718","855930","962843","14.118641","4.212513","0.009181","887","1393","1673","923","1329","1530","950","1293","1456","992","1229","1335","1052","1162","1209","DualSpot on"
"MA200-0420","47402","77","1","1.10","1.6","2023-08-02T00:50:01","120","2023/08/02","00:50:01","-15.795616090297699","35.00271066627465","0.2","12","300","64","98","-168","-27080","-976","10","150","150.28","116.11","34.16","19.68","56.3","10.74","90916","19.63","DUALSPOT-UV-BLUE-GREEN-RED-IR","531365","615172","910812","38.023600","13.576145","0.012139","658339","813697","840350","28.620300","9.475418","0.012403","666212","801992","833438","25.231206","8.147745","0.013275","711601","821270","893515","21.016240","6.462693","0.014341","662601","856279","963539","14.204910","4.242717","0.015002","890","1381","1653","909","1243","1409","927","1243","1394","995","1293","1425","1037","1235","1318","DualSpot on"
"MA200-0420","47403","77","1","1.10","1.6","2023-08-02T00:55:01","120","2023/08/02","00:55:01","-15.79562383890152","35.002787666162476","0.1","12","300","64","98","-12","-26812","-2040","10","150","150.56","116.54","34.02","19.72","56.2","10.76","90912","19.69","DUALSPOT-UV-BLUE-GREEN-RED-IR","527468","611212","905711","38.196024","13.657776","0.012877","653835","808764","835775","28.761750","9.534851","0.013788","666788","803284","835200","25.359956","8.198562","0.013494","706259","815670","887789","21.128664","6.505357","0.014309","663151","857501","965185","14.291412","4.271197","0.010791","869","1409","1710","899","1295","1491","917","1240","1394","967","1258","1387","1036","1169","1225","DualSpot on"
"MA200-0420","47404","77","1","1.10","1.6","2023-08-02T01:00:01","120","2023/08/02","01:00:01","-15.79558664560318","35.00277966633439","0.0","12","300","64","98","-107","-26936","-424","10","150","149.89","116.71","33.18","19.74","56.2","10.75","90908","19.69","DUALSPOT-UV-BLUE-GREEN-RED-IR","526774","610983","906109","38.373024","13.739632","0.012872","653248","808731","836233","28.907046","9.595516","0.014261","661918","798035","830203","25.491878","8.252159","0.015225","706732","816810","889415","21.243302","6.548805","0.015299","663146","858013","965989","14.377731","4.299984","0.013767","890","1448","1760","922","1355","1570","938","1341","1533","985","1313","1460","1033","1211","1288","DualSpot on"
"MA200-0420","47405","77","1","1.10","1.6","2023-08-02T01:05:01","120","2023/08/02","01:05:01","-15.795744478702545","35.002867833012715","0.2","12","300","64","97","-70","-27058","-850","10","150","149.44","115.75","33.68","19.74","56.1","10.75","90908","19.69","DUALSPOT-UV-BLUE-GREEN-RED-IR","523945","608463","903190","38.589060","13.834808","0.011526","649742","805297","833290","29.087554","9.667922","0.012437","663501","800777","833593","25.658008","8.315922","0.012494","703137","813383","886138","21.388262","6.600999","0.011946","660633","855342","963351","14.485813","4.335706","0.011203","1096","1659","1974","1156","1593","1811","1191","1571","1753","1256","1554","1687","1304","1481","1557","DualSpot on"
"MA200-0420","47406","77","1","1.10","1.6","2023-08-02T01:10:01","120","2023/08/02","01:10:01","-15.795665502548218","35.00275866640732","0.1","12","300","64","98","16","-26991","-1204","10","150","150.21","116.31","33.90","19.77","56.2","10.78","90900","19.75","DUALSPOT-UV-BLUE-GREEN-RED-IR","525657","611053","907852","38.773940","13.920631","0.012390","652111","808969","837615","29.241946","9.730271","0.012523","660594","797985","831112","25.798092","8.369655","0.012354","704990","816176","889614","21.512012","6.647437","0.013657","661728","857329","965894","14.579758","4.366497","0.010350","933","1486","1796","984","1363","1552","999","1315","1467","1067","1374","1511","1128","1268","1328","DualSpot on"
"MA200-0420","47407","77","1","1.10","1.6","2023-08-02T01:15:01","120","2023/08/02","01:15:01","-15.795566141605377","35.002771999686956","0.0","12","300","64","97","-328","-26647","-560","10","150","149.82","116.23","33.59","19.85","56.2","10.85","90904","19.88","DUALSPOT-UV-BLUE-GREEN-RED-IR","524732","610518","907865","38.952268","14.005924","0.012981","651143","808443","837598","29.388258","9.792339","0.014032","660364","798320","831955","25.932368","8.424871","0.014853","705334","817170","891073","21.628686","6.691858","0.014560","657910","852875","961166","14.671623","4.397471","0.013107","901","1491","1822","933","1369","1588","959","1364","1559","1007","1326","1470","1104","1288","1366","DualSpot on"
"MA200-0420","47408","77","1","1.10","1.6","2023-08-02T01:20:01","120","2023/08/02","01:20:01","-15.795576512813568","35.00273033301346","0.2","12","300","64","98","-4","-27012","-863","10","150","150.15","116.59","33.56","19.92","56.1","10.92","90900","19.94","DUALSPOT-UV-BLUE-GREEN-RED-IR","522581","608629","905801","39.140492","14.093250","0.012487","648998","806486","836081","29.539818","9.854074","0.012992","661849","800827","834958","26.071966","8.478378","0.012636","702385","814368","888417","21.751916","6.737767","0.013740","659408","855365","964265","14.767639","4.427878","0.008475","948","1528","1854","963","1363","1563","994","1323","1482","1060","1372","1512","1150","1265","1315","DualSpot on"
"MA200-0420","47409","77","1","1.10","1.6","2023-08-02T01:25:01","120","2023/08/02","01:25:01","-15.795631527900696","35.00274183298461","0.5","12","300","64","98","48","-27172","-844","10","150","149.82","116.19","33.63","20.02","56.2","11.01","90904","20.06","DUALSPOT-UV-BLUE-GREEN-RED-IR","524125","610987","910132","39.320768","14.180843","0.013096","650916","809549","839809","29.687692","9.916379","0.013686","659187","798213","832726","26.206746","8.532623","0.013994","704032","816868","891580","21.868902","6.782018","0.014080","660574","857420","966910","14.860683","4.458939","0.012098","911","1529","1878","943","1373","1589","963","1339","1520","1010","1320","1459","1118","1290","1363","DualSpot on"
"MA200-0420","47410","77","1","1.10","1.6","2023-08-02T01:30:01","120","2023/08/02","01:30:01","-15.795598983764648","35.002703999402","0.3","11","300","64","98","-20","-26945","-916","10","150","149.76","116.31","33.45","20.09","56.2","11.07","90892","20.06","DUALSPOT-UV-BLUE-GREEN-RED-IR","523074","610282","909747","39.479112","14.254669","0.012489","650260","809368","840039","29.817106","9.970779","0.013738","658396","797833","832722","26.325524","8.579194","0.013308","698312","810774","885239","21.975158","6.820953","0.012949","660477","857773","967539","14.943722","4.485170","0.008259","799","1296","1577","824","1205","1397","847","1156","1305","916","1167","1281","997","1095","1137","DualSpot on"
"MA200-0420","47411","77","1","1.10","1.6","2023-08-02T01:35:01","120","2023/08/02","01:35:01","-15.795617401599884","35.002729166299105","0.1","10","300","64","98","16","-27047","-1212","10","150","150.21","116.48","33.73","20.04","56.2","11.03","90892","19.94","DUALSPOT-UV-BLUE-GREEN-RED-IR","521023","608398","907609","39.637808","14.328583","0.012311","647621","806704","837736","29.950192","10.026287","0.013301","656132","795680","830844","26.447672","8.628476","0.013939","700902","814339","889499","22.080148","6.861595","0.014870","657984","854975","964658","15.022411","4.512834","0.015603","800","1287","1562","846","1220","1407","870","1213","1379","904","1208","1346","943","1145","1232","DualSpot on"
"MA200-0420","47412","77","1","1.10","1.6","2023-08-02T01:40:01","120","2023/08/02","01:40:01","-15.795816004276276","35.002740499563515","0.2","10","300","64","98","-96","-26984","-680","10","150","149.53","116.29","33.24","19.99","56.2","10.99","90888","19.88","DUALSPOT-UV-BLUE-GREEN-RED-IR","519446","607075","906328","39.800908","14.406559","0.012891","645760","805005","836483","30.084898","10.084673","0.014527","658671","799313","835104","26.568604","8.680012","0.015866","698813","812429","887783","22.187510","6.903909","0.015987","656852","853943","963733","15.098988","4.540116","0.017246","823","1377","1691","858","1301","1525","863","1287","1492","926","1276","1435","919","1146","1243","DualSpot on"
"MA200-0420","47413","77","1","1.10","1.6","2023-08-02T01:45:01","120","2023/08/02","01:45:01","-15.795591652393341","35.002800832968205","0.2","10","300","64","98","-64","-26916","-996","10","150","150.58","116.22","34.37","19.96","56.3","11.00","90884","19.88","DUALSPOT-UV-BLUE-GREEN-RED-IR","517613","605390","904440","39.945816","14.475689","0.012274","648753","809298","841351","30.204380","10.135609","0.013220","656877","797618","833693","26.677280","8.724298","0.013485","697720","811593","887207","22.280144","6.938761","0.012720","655936","853095","963048","15.168407","4.565426","0.016480","732","1181","1436","762","1098","1268","776","1069","1212","799","1017","1115","834","1028","1112","DualSpot on"
"MA200-0420","47414","77","1","1.10","1.6","2023-08-02T01:50:01","120","2023/08/02","01:50:01","-15.795689821243286","35.00275549967773","0.1","10","300","64","98","-124","-26908","-1176","10","150","150.41","116.07","34.33","19.89","56.5","10.98","90888","19.81","DUALSPOT-UV-BLUE-GREEN-RED-IR","518312","606704","907072","40.094532","14.546986","0.012308","644803","804897","837223","30.324476","10.188540","0.014003","653628","794172","830501","26.788384","8.771332","0.014583","698768","813322","889432","22.378764","6.977508","0.014432","657266","855221","965676","15.236675","4.590875","0.017815","752","1219","1485","767","1142","1333","794","1137","1304","852","1132","1259","821","1035","1127","DualSpot on"
"MA200-0420","47415","77","1","1.10","1.6","2023-08-02T01:55:01","120","2023/08/02","01:55:01","-15.795647978782654","35.00271916622296","0.1","10","300","64","98","-68","-27019","-688","10","150","150.34","116.43","33.91","19.87","56.6","10.99","90880","19.81","DUALSPOT-UV-BLUE-GREEN-RED-IR","518954","607880","909456","40.236772","14.618877","0.013319","645418","806218","839022","30.437940","10.237742","0.013933","654379","795604","832355","26.893358","8.815247","0.014633","699432","814575","891075","22.470026","7.015099","0.016725","658108","856694","967621","15.306000","4.617585","0.020651","717","1245","1546","722","1075","1254","748","1075","1234","786","1112","1259","831","1100","1216","DualSpot on"
"MA200-0420","47416","77","1","1.10","1.6","2023-08-02T02:00:01","120","2023/08/02","02:00:01","-15.795658230781555","35.00279683317058","0.1","11","300","64","98","-59","-27119","-588","10","150","149.76","116.27","33.49","19.89","56.8","11.08","90880","19.88","DUALSPOT-UV-BLUE-GREEN-RED-IR","518844","608124","910423","40.365196","14.681808","0.012991","644990","806135","839291","30.541070","10.280998","0.013345","654036","795635","832656","26.986716","8.852928","0.013861","700493","816161","893161","22.551594","7.045985","0.013926","658118","857066","968218","15.369068","4.638604","0.011960","648","1103","1364","657","957","1109","666","934","1064","703","925","1026","757","876","928","DualSpot on"
"MA200-0420","47417","77","1","1.10","1.6","2023-08-02T02:05:01","120","2023/08/02","02:05:01","-15.795624017715454","35.002760832896456","0.2","11","300","64","97","150","-27187","-916","10","150","149.72","116.26","33.45","19.91","56.9","11.11","90880","19.88","DUALSPOT-UV-BLUE-GREEN-RED-IR","517646","607198","909652","40.512932","14.752316","0.012559","643997","805411","838872","30.649182","10.326147","0.013215","653307","795205","832567","27.083984","8.892124","0.013790","698929","814789","891913","22.637768","7.078810","0.014147","653074","850837","961421","15.434837","4.662026","0.016457","746","1237","1519","689","1000","1158","694","972","1108","743","984","1093","790","978","1059","DualSpot on"
"MA200-0420","47418","77","1","1.10","1.6","2023-08-02T02:10:01","120","2023/08/02","02:10:01","-15.795670211315155","35.00275199953467","0.1","11","300","64","98","-64","-26919","-884","10","150","150.48","116.12","34.36","19.92","57.0","11.14","90876","19.88","DUALSPOT-UV-BLUE-GREEN-RED-IR","517472","607324","910306","40.615844","14.803368","0.012693","644020","805801","839606","30.729142","10.361392","0.013823","652901","795051","832680","27.158528","8.923930","0.014613","698182","814229","891551","22.701286","7.103555","0.013889","652880","850829","961580","15.482124","4.679215","0.015925","520","872","1074","510","760","887","532","768","883","548","722","801","568","698","755","DualSpot on"
"MA200-0420","47419","77","1","1.10","1.6","2023-08-02T02:15:01","120","2023/08/02","02:15:01","-15.795706629753113","35.00276833306998","0.3","11","300","64","98","4","-26995","-733","10","150","150.21","116.37","33.84","19.91","57.1","11.16","90876","19.88","DUALSPOT-UV-BLUE-GREEN-RED-IR","513434","602877","904080","40.717008","14.852074","0.012474","644229","806424","840554","30.809102","10.395283","0.013258","653302","795883","833766","27.230464","8.951813","0.012173","694312","810040","887158","22.764946","7.127612","0.013337","653960","852509","963624","15.529972","4.696327","0.015956","510","845","1037","509","742","861","513","684","767","548","713","788","574","706","763","DualSpot on"
"MA200-0420","47420","77","1","1.10","1.6","2023-08-02T02:20:01","120","2023/08/02","02:20:01","-15.795661330223083","35.00279133301228","0.0","11","300","64","97","0","-26980","-712","10","150","150.35","116.83","33.53","19.92","57.1","11.18","90872","19.88","DUALSPOT-UV-BLUE-GREEN-RED-IR","512071","601529","902455","40.805636","14.896248","0.013163","642870","805055","839368","30.879208","10.425295","0.013798","651883","794435","832486","27.294884","8.979666","0.015763","691675","807209","884278","22.818866","7.148935","0.015559","652139","850373","961368","15.571983","4.709615","0.008203","445","773","962","444","663","775","457","689","803","463","638","717","502","553","575","DualSpot on"
"MA200-0420","47421","77","1","1.10","1.6","2023-08-02T02:25:01","120","2023/08/02","02:25:01","-15.795606911182404","35.00280149956234","0.1","11","300","64","97","-172","-26956","-732","10","150","150.29","116.39","33.90","19.85","57.3","11.15","90868","19.75","DUALSPOT-UV-BLUE-GREEN-RED-IR","515320","605708","909110","40.901720","14.937687","0.010538","641757","803992","838556","30.955268","10.455440","0.011395","651066","793777","832028","27.365042","9.005802","0.010738","696039","812634","890379","22.880378","7.171437","0.011875","655544","855051","966777","15.613960","4.725167","0.017981","484","718","852","484","659","748","500","640","708","530","666","728","503","640","700","DualSpot on"
"MA200-0420","47422","77","1","1.10","1.6","2023-08-02T02:30:01","120","2023/08/02","02:30:01","-15.795706927776337","35.00278216623701","0.1","12","300","64","98","-104","-26891","-640","10","150","150.41","116.35","34.06","19.82","57.5","11.19","90860","19.75","DUALSPOT-UV-BLUE-GREEN-RED-IR","514402","604938","908366","41.002112","14.983440","0.011400","640690","803086","837813","31.034130","10.486975","0.011474","650465","793402","831863","27.435588","9.034133","0.013002","696195","813152","891182","22.942374","7.193591","0.010609","655635","855430","967372","15.659695","4.740791","0.012345","506","789","951","502","686","780","503","690","782","534","652","706","549","640","680","DualSpot on"
"MA200-0420","47423","77","1","1.10","1.6","2023-08-02T02:35:01","120","2023/08/02","02:35:01","-15.795684158802032","35.002742999466136","0.1","12","300","64","98","-133","-26979","-1183","10","150","149.84","116.22","33.62","19.75","57.6","11.16","90852","19.63","DUALSPOT-UV-BLUE-GREEN-RED-IR","510769","601075","903052","41.122724","15.038574","0.011618","641197","804132","839257","31.128406","10.527215","0.013433","650763","794183","832975","27.520814","9.068309","0.013283","691112","807558","885278","23.016036","7.221173","0.013045","652069","851055","962610","15.709522","4.758291","0.014960","609","963","1167","601","887","1033","608","844","959","635","823","908","598","727","782","DualSpot on"
"MA200-0420","47424","77","1","1.10","1.6","2023-08-02T02:40:01","120","2023/08/02","02:40:01","-15.795691668987274","35.00280716619454","0.1","12","300","64","98","-100","-27060","-424","10","150","149.69","116.43","33.26","19.71","58.0","11.20","90860","19.63","DUALSPOT-UV-BLUE-GREEN-RED-IR","511091","602005","905071","41.278860","15.106293","0.010894","636867","799269","834562","31.244502","10.570771","0.010284","651291","795381","834532","27.626822","9.107063","0.010656","691476","808484","886568","23.106432","7.253234","0.011267","652417","851852","963698","15.773174","4.780081","0.014043","787","1195","1431","739","970","1089","755","967","1071","778","967","1053","763","915","981","DualSpot on"
"MA200-0420","47425","77","1","1.10","1.6","2023-08-02T02:45:01","120","2023/08/02","02:45:01","-15.795658528804779","35.00274166627787","0.1","10","300","64","98","-123","-26930","-1573","10","150","149.71","116.26","33.46","19.72","58.2","11.27","90856","19.69","DUALSPOT-UV-BLUE-GREEN-RED-IR","510676","601878","905438","41.402892","15.167034","0.012692","636767","799543","835178","31.336900","10.609252","0.012872","647174","790704","829925","27.708146","9.140215","0.013835","692511","810059","888527","23.178794","7.281185","0.014362","653247","853251","965441","15.826958","4.798330","0.012916","626","1066","1320","589","852","987","580","822","941","624","838","936","646","761","812","DualSpot on"
"MA200-0420","47426","77","1","1.10","1.6","2023-08-02T02:50:01","120","2023/08/02","02:50:01","-15.795625567436218","35.002802832750604","0.0","10","300","64","98","-328","-26675","-424","10","150","149.53","115.96","33.58","19.75","58.2","11.31","90864","19.75","DUALSPOT-UV-BLUE-GREEN-RED-IR","511016","602608","907103","41.523140","15.228455","0.013169","637447","800780","836755","31.418736","10.646079","0.014513","651452","796269","835986","27.783048","9.172387","0.015087","693138","811095","889898","23.241246","7.306084","0.015264","653504","853856","966300","15.874928","4.815504","0.015961","609","1074","1343","523","813","961","536","795","923","540","744","837","577","714","774","DualSpot on"
"MA200-0420","47427","77","1","1.10","1.6","2023-08-02T02:55:01","120","2023/08/02","02:55:01","-15.795631647109985","35.0027609996032","0.1","10","300","64","98","-62","-26891","-825","10","150","149.87","116.08","33.79","19.77","58.3","11.34","90852","19.75","DUALSPOT-UV-BLUE-GREEN-RED-IR","509787","601650","906240","41.667992","15.295372","0.011547","636263","799738","836011","31.509104","10.683231","0.012191","650435","795417","835369","27.861654","9.203419","0.012460","690944","808870","887664","23.307082","7.330558","0.012346","651834","851945","964294","15.923836","4.832179","0.012388","732","1163","1412","577","815","937","562","762","861","569","726","798","588","689","733","DualSpot on"
"MA200-0420","47428","77","1","1.10","1.6","2023-08-02T03:00:01","120","2023/08/02","03:00:01","-15.795631170272827","35.00281016621739","0.1","10","300","64","98","-92","-26940","-867","10","150","150.46","116.41","34.05","19.80","58.2","11.35","90852","19.75","DUALSPOT-UV-BLUE-GREEN-RED-IR","510492","602769","908354","41.760932","15.340851","0.012341","637114","801059","837634","31.572582","10.711760","0.014191","647373","791898","831902","27.917946","9.227072","0.014135","693164","811695","890953","23.355166","7.349489","0.014363","653468","854280","967065","15.960312","4.843596","0.005724","468","784","967","404","621","732","401","576","663","414","557","623","437","468","481","DualSpot on"
"MA200-0420","47429","77","1","1.10","1.6","2023-08-02T03:05:01","120","2023/08/02","03:05:01","-15.795616924762726","35.0028243327979","0.0","10","300","64","98","-25","-27154","-837","10","150","149.38","116.31","33.07","19.80","58.3","11.36","90852","19.81","DUALSPOT-UV-BLUE-GREEN-RED-IR","510449","603017","909111","41.851532","15.384937","0.012652","637467","801830","838629","31.634838","10.737377","0.012765","647208","791965","832148","27.972128","9.249014","0.013874","693067","811826","891245","23.403060","7.368307","0.015297","653486","854464","967414","15.997044","4.858319","0.023163","457","783","972","396","574","665","386","550","632","413","570","643","441","621","700","DualSpot on"
"MA200-0420","47430","77","1","1.10","1.6","2023-08-02T03:10:01","120","2023/08/02","03:10:01","-15.795666694641113","35.0027366662398","0.1","10","300","64","98","-92","-27116","-748","10","150","149.41","116.33","33.08","19.83","58.2","11.37","90852","19.81","DUALSPOT-UV-BLUE-GREEN-RED-IR","510533","603533","910533","41.991556","15.451786","0.012334","637819","802714","839887","31.729402","10.778081","0.013792","646978","792069","832531","28.055068","9.281837","0.013163","687426","805541","884566","23.470732","7.393817","0.013732","653345","854609","967733","16.048592","4.875313","0.011610","706","1187","1466","602","912","1071","591","823","938","583","773","861","619","717","760","DualSpot on"
"MA200-0420","47431","77","1","1.10","1.6","2023-08-02T03:15:01","120","2023/08/02","03:15:01","-15.795652389526367","35.00281733297743","0.2","10","300","64","98","-116","-27088","-836","10","150","149.96","116.10","33.86","19.79","58.2","11.34","90840","19.69","DUALSPOT-UV-BLUE-GREEN-RED-IR","507813","600869","907139","42.154564","15.522961","0.010450","634209","798729","836109","31.845540","10.824666","0.011389","645019","790162","830868","28.157838","9.323230","0.012894","690604","809699","889443","23.559288","7.426364","0.011694","651613","852651","965729","16.109055","4.896401","0.013647","824","1234","1473","741","1020","1163","734","1015","1153","765","964","1056","727","870","932","DualSpot on"
"MA200-0420","47432","77","1","1.10","1.6","2023-08-02T03:20:01","120","2023/08/02","03:20:01","-15.795737981796265","35.00280866632238","0.1","10","300","64","98","-28","-27016","-496","10","150","150.28","116.33","33.95","19.76","58.3","11.33","90848","19.69","DUALSPOT-UV-BLUE-GREEN-RED-IR","506652","600025","906551","42.317412","15.600754","0.011865","633450","798307","836145","31.971466","10.878264","0.012820","643654","789009","830032","28.267860","9.368629","0.013524","689535","808940","888923","23.652314","7.461791","0.013025","650809","851993","965204","16.175896","4.919274","0.012275","822","1345","1651","802","1170","1359","785","1110","1271","802","1046","1159","802","941","1001","DualSpot on"
"MA200-0420","47433","77","1","1.10","1.6","2023-08-02T03:25:01","120","2023/08/02","03:25:01","-15.795696496963501","35.00279033300467","0.1","10","300","64","98","-59","-26980","-855","10","150","149.57","116.35","33.22","19.71","58.1","11.24","90852","19.63","DUALSPOT-UV-BLUE-GREEN-RED-IR","504223","597599","903515","42.465048","15.670498","0.011989","636119","802224","840662","32.088790","10.931854","0.014843","645780","792123","833679","28.375034","9.414551","0.015093","692111","812404","893064","23.746712","7.500703","0.016564","649078","850075","963280","16.241310","4.943491","0.018399","745","1233","1518","747","1195","1427","764","1147","1337","813","1175","1341","785","1018","1120","DualSpot on"
"MA200-0420","47434","77","1","1.10","1.6","2023-08-02T03:30:01","120","2023/08/02","03:30:01","-15.795794188976288","35.002801166148856","0.6","10","300","64","98","-104","-27096","-608","10","150","150.08","116.56","33.53","19.68","58.2","11.22","90852","19.69","DUALSPOT-UV-BLUE-GREEN-RED-IR","504479","598339","905241","42.600184","15.736343","0.012299","630899","796125","834696","32.201802","10.979648","0.012932","645762","792576","834520","28.479552","9.457932","0.014002","686680","806486","886866","23.836848","7.534387","0.012768","649397","850858","964384","16.306561","4.967621","0.017856","680","1153","1430","718","1056","1231","744","1074","1238","775","1008","1115","782","1005","1103","DualSpot on"
"MA200-0420","47435","77","1","1.10","1.6","2023-08-02T03:35:01","120","2023/08/02","03:35:01","-15.795810997486115","35.00277716643177","0.4","10","300","64","98","-41","-27020","-600","10","150","149.67","116.37","33.30","19.72","58.4","11.32","90852","19.69","DUALSPOT-UV-BLUE-GREEN-RED-IR","504228","598523","906232","42.764560","15.814930","0.012057","630954","796796","835809","32.325158","11.028940","0.011623","641638","788050","830125","28.593180","9.502325","0.012369","687772","808267","889142","23.933808","7.569381","0.011553","649793","851808","965715","16.382374","4.992742","0.011305","829","1386","1712","785","1097","1258","810","1106","1254","835","1054","1155","910","1053","1116","DualSpot on"
"MA200-0420","47436","77","1","1.10","1.6","2023-08-02T03:40:01","120","2023/08/02","03:40:01","-15.795657813549042","35.002718166215345","0.2","11","300","64","98","-104","-26852","-532","10","150","149.82","115.99","33.83","19.75","58.4","11.34","90852","19.69","DUALSPOT-UV-BLUE-GREEN-RED-IR","503830","598603","907131","42.941208","15.900360","0.011903","630739","797098","836546","32.449162","11.083311","0.013355","641133","787935","830389","28.702616","9.547190","0.013174","687070","807913","889093","24.027778","7.606827","0.014526","649404","851692","965777","16.453331","5.016950","0.011937","894","1483","1829","792","1191","1398","783","1101","1259","812","1110","1248","854","999","1063","DualSpot on"
"MA200-0420","47437","77","1","1.10","1.6","2023-08-02T03:45:01","120","2023/08/02","03:45:01","-15.795682311058044","35.00277133285999","0.2","11","300","64","98","-108","-26937","-945","10","150","150.46","116.56","33.90","19.73","58.3","11.31","90860","19.69","DUALSPOT-UV-BLUE-GREEN-RED-IR","501969","596874","905130","43.090080","15.970440","0.011503","628401","794604","834335","32.558934","11.129876","0.012611","643597","791451","834405","28.799918","9.587098","0.013221","684138","804875","886039","24.112884","7.639652","0.013401","647173","849108","963093","16.514233","5.039663","0.017493","750","1214","1487","698","1018","1184","693","977","1119","732","971","1082","729","935","1026","DualSpot on"
"MA200-0420","47438","77","1","1.10","1.6","2023-08-02T03:50:01","120","2023/08/02","03:50:01","-15.795617520809174","35.00276166643016","0.0","11","300","64","98","-96","-27116","-836","10","150","149.76","116.03","33.72","19.68","58.3","11.25","90856","19.63","DUALSPOT-UV-BLUE-GREEN-RED-IR","500565","595664","903816","43.228256","16.033642","0.011036","631888","799517","839858","32.661476","11.172618","0.012174","642739","790814","834051","28.889208","9.623550","0.013074","683935","805018","886452","24.187906","7.667557","0.012016","647343","849588","963806","16.565632","5.057770","0.014125","699","1100","1337","655","939","1087","638","897","1026","648","830","914","618","750","807","DualSpot on"
"MA200-0420","47439","77","1","1.10","1.6","2023-08-02T03:55:01","120","2023/08/02","03:55:01","-15.795637726783752","35.00275449943729","0.1","11","300","64","98","-96","-26984","-1120","10","150","150.01","116.33","33.68","19.58","58.4","11.20","90868","19.44","DUALSPOT-UV-BLUE-GREEN-RED-IR","501601","597274","906764","43.341128","16.081196","0.009687","628417","795508","835891","32.741330","11.202776","0.009662","639803","787519","830776","28.959890","9.647957","0.007738","685418","807042","888888","24.246568","7.688874","0.011217","648617","851468","966051","16.602554","5.070901","0.014897","569","829","982","508","663","744","504","601","650","505","634","694","443","544","589","DualSpot on"
"MA200-0420","47440","77","1","1.10","1.6","2023-08-02T04:00:01","120","2023/08/02","04:00:01","-15.795638680458069","35.00271649938077","0.3","11","300","64","97","-280","-26944","-800","10","150","149.95","116.31","33.64","19.52","58.8","11.22","90868","19.44","DUALSPOT-UV-BLUE-GREEN-RED-IR","499623","595301","904282","43.466604","16.136845","0.010559","631528","799872","840720","32.819690","11.232203","0.009509","641834","790360","833990","29.024976","9.674080","0.012667","683040","804543","886254","24.299312","7.706732","0.008226","647133","849699","964176","16.635109","5.081643","0.010136","633","971","1171","499","648","726","464","644","734","454","532","568","390","446","470","DualSpot on"
"MA200-0420","47441","77","1","1.10","1.6","2023-08-02T04:05:01","120","2023/08/02","04:05:01","-15.795681536197662","35.00268966611475","0.0","11","300","64","98","-54","-26975","-1383","10","150","149.71","116.41","33.30","19.53","58.9","11.28","90868","19.50","DUALSPOT-UV-BLUE-GREEN-RED-IR","500842","597253","907799","43.606524","16.200657","0.011143","628119","795901","836807","32.896000","11.261665","0.010548","639315","787568","831228","29.088160","9.697806","0.010974","685532","807749","889943","24.350012","7.723987","0.008927","648886","852216","967107","16.668346","5.092165","0.007976","706","1125","1373","485","655","744","450","591","661","436","519","558","398","441","460","DualSpot on"
"MA200-0420","47442","77","1","1.10","1.6","2023-08-02T04:10:01","120","2023/08/02","04:10:01","-15.795662820339203","35.002724832855165","0.3","11","300","64","98","-62","-27012","-687","10","150","150.08","116.44","33.64","19.54","59.1","11.33","90888","19.50","DUALSPOT-UV-BLUE-GREEN-RED-IR","498242","595682","907209","44.064176","16.396935","0.009885","626135","794531","836068","33.124546","11.346390","0.009089","638017","786890","831022","29.269820","9.759993","0.007421","684880","807722","890332","24.487320","7.768219","0.005889","648440","852150","967304","16.757431","5.116980","-0.003239","2308","3427","4089","1455","1867","2081","1295","1534","1654","1183","1319","1382","1068","1030","1013","DualSpot on"
"MA200-0420","47443","77","1","1.10","1.6","2023-08-02T04:15:01","120","2023/08/02","04:15:01","-15.795623540878296","35.00273199961521","0.3","11","300","64","98","-24","-27044","-560","10","150","150.02","116.67","33.35","19.44","58.7","11.14","90932","19.31","DUALSPOT-UV-BLUE-GREEN-RED-IR","495714","593094","903837","44.204872","16.465488","0.011964","628401","797717","839722","33.194496","11.382071","0.016393","639807","789313","833827","29.324522","9.786976","0.017777","681217","803587","885916","24.528968","7.787851","0.019870","646359","849546","964423","16.781688","5.126750","0.022080","708","1207","1503","444","793","975","389","671","813","358","590","698","290","409","461","DualSpot on"
"MA200-0420","47444","77","1","1.10","1.6","2023-08-02T04:20:01","120","2023/08/02","04:20:01","-15.795641899108887","35.00274166627787","0.0","11","300","64","98","-64","-27144","-628","10","150","149.50","116.39","33.11","19.13","57.3","10.47","90908","18.81","DUALSPOT-UV-BLUE-GREEN-RED-IR","498024","596075","908834","44.285904","16.508350","0.013054","626437","795284","837489","33.245404","11.422599","0.022037","638278","787512","832189","29.363040","9.820001","0.025597","685413","808605","891651","24.559020","7.809129","0.027927","645508","848343","963180","16.783454","5.136750","0.057473","408","760","969","324","907","1212","274","828","1106","259","644","824","21","421","598","DualSpot on"
"MA200-0420","47445","77","1","1.10","1.6","2023-08-02T04:25:01","120","2023/08/02","04:25:01","-15.795637845993042","35.00275333295576","0.1","10","300","64","97","-184","-26932","-160","10","150","150.00","116.57","33.44","18.82","56.7","10.03","90912","18.56","DUALSPOT-UV-BLUE-GREEN-RED-IR","497280","595575","908455","44.395756","16.554314","0.009515","625054","793839","836298","33.323288","11.458621","0.014488","638353","787830","832813","29.429802","9.852242","0.017221","685541","808971","892262","24.610984","7.832597","0.018580","646699","849988","965111","16.799340","5.146470","0.036925","553","807","958","495","798","957","475","800","964","447","704","824","190","406","501","DualSpot on"
"MA200-0420","47446","77","1","1.10","1.6","2023-08-02T04:30:01","120","2023/08/02","04:30:01","-15.795591533184052","35.002793833147734","0.1","11","300","64","98","-59","-26932","-928","10","150","150.08","116.35","33.73","18.53","56.7","9.76","90912","18.31","DUALSPOT-UV-BLUE-GREEN-RED-IR","495054","593428","905682","44.539876","16.611759","0.008401","627928","798049","841064","33.431580","11.501027","0.010420","636923","786542","831758","29.527004","9.891528","0.012602","684015","807590","890972","24.689800","7.863024","0.013258","646103","849373","964565","16.838108","5.163092","0.024262","727","1000","1162","689","931","1058","693","966","1104","679","905","1010","465","688","786","DualSpot on"
"MA200-0420","47447","77","1","1.10","1.6","2023-08-02T04:35:01","120","2023/08/02","04:35:01","-15.795626044273376","35.002695499686524","0.2","12","300","64","97","53","-26984","-1065","10","150","149.89","116.94","32.94","18.27","57.0","9.61","90908","18.06","DUALSPOT-UV-BLUE-GREEN-RED-IR","494141","592672","904874","44.636232","16.647442","0.007484","626715","796917","840183","33.520104","11.535796","0.011200","635602","785305","830718","29.608162","9.923440","0.012603","682621","806291","889796","24.758782","7.888924","0.013254","645634","848969","964265","16.875366","5.178039","0.022492","483","636","726","561","782","898","576","804","919","591","788","880","445","633","717","DualSpot on"
"MA200-0420","47448","77","1","1.10","1.6","2023-08-02T04:40:01","120","2023/08/02","04:40:01","-15.79562622308731","35.00265033310279","0.2","12","300","64","98","-56","-27040","-672","10","150","149.95","116.63","33.32","18.10","57.4","9.56","90916","17.94","DUALSPOT-UV-BLUE-GREEN-RED-IR","494918","593929","907135","44.726012","16.685040","0.009527","622696","792204","835446","33.600200","11.566114","0.009856","636750","787018","832782","29.678434","9.952486","0.013540","684309","808564","892543","24.819900","7.913172","0.014632","647625","851704","967529","16.910476","5.193097","0.024811","452","662","787","509","674","761","500","723","836","525","730","825","420","631","724","DualSpot on"
"MA200-0420","47449","77","1","1.10","1.6","2023-08-02T04:45:01","120","2023/08/02","04:45:01","-15.795576691627502","35.00278399977833","0.1","12","300","64","98","-25","-27070","-787","10","150","150.15","116.49","33.65","17.95","57.8","9.51","90924","17.75","DUALSPOT-UV-BLUE-GREEN-RED-IR","495849","595399","909690","44.819068","16.722076","0.008390","624489","794869","838518","33.679800","11.596957","0.010164","637901","788832","834946","29.753610","9.981956","0.011747","680648","804591","888362","24.883462","7.935624","0.009904","645196","848760","964335","16.950168","5.209417","0.022381","469","646","751","506","679","770","535","727","823","547","669","726","475","677","766","DualSpot on"
"MA200-0420","47450","77","1","1.10","1.6","2023-08-02T04:50:01","120","2023/08/02","04:50:01","-15.795587182044983","35.002785166259855","0.1","12","300","64","98","-66","-27091","-612","10","150","150.39","116.53","33.85","17.83","58.2","9.50","90936","17.69","DUALSPOT-UV-BLUE-GREEN-RED-IR","492991","592349","905516","44.938184","16.773434","0.009698","620471","790210","833968","33.784588","11.638491","0.010575","634732","785372","831575","29.848832","10.018768","0.011134","681895","806485","890699","24.967868","7.967320","0.012038","646521","850806","966868","17.008690","5.230777","0.015886","600","891","1064","666","909","1037","678","902","1016","726","939","1038","701","881","961","DualSpot on"
"MA200-0420","47451","77","1","1.10","1.6","2023-08-02T04:55:01","120","2023/08/02","04:55:01","-15.795631527900696","35.00279366644099","0.1","12","300","64","97","-48","-26972","-572","10","150","150.34","116.63","33.72","17.78","58.6","9.55","90932","17.63","DUALSPOT-UV-BLUE-GREEN-RED-IR","493106","592836","906678","45.040864","16.819076","0.010253","620763","791006","835074","33.866308","11.670262","0.010181","635290","786413","832915","29.923856","10.046200","0.009524","682429","807453","892005","25.033290","7.989719","0.008510","647406","852253","968649","17.054416","5.245978","0.010434","517","795","960","519","698","792","534","675","746","562","666","715","547","629","666","DualSpot on"
"MA200-0420","47452","77","1","1.10","1.6","2023-08-02T05:00:01","120","2023/08/02","05:00:01","-15.795596301555634","35.00268549937755","0.2","13","300","64","98","-36","-26908","-732","10","150","150.56","117.07","33.48","17.74","58.9","9.58","90944","17.69","DUALSPOT-UV-BLUE-GREEN-RED-IR","491720","591725","905751","45.218964","16.900532","0.010813","624196","795951","840642","33.975140","11.710378","0.009004","634103","785438","832182","30.016614","10.080611","0.010299","681853","807178","891931","25.109178","8.016256","0.009818","646644","851514","968015","17.106666","5.264216","0.014122","893","1428","1748","689","888","992","657","853","952","650","795","863","623","760","822","DualSpot on"
"MA200-0420","47453","77","1","1.10","1.6","2023-08-02T05:05:01","120","2023/08/02","05:05:01","-15.795649349689484","35.00270649930462","0.2","13","300","64","98","-70","-26920","-679","10","150","150.15","116.10","34.04","17.68","58.8","9.51","90944","17.50","DUALSPOT-UV-BLUE-GREEN-RED-IR","493006","593603","909034","45.322916","16.949074","0.010730","621159","792360","837129","34.046072","11.744186","0.014349","632128","783224","830048","30.077654","10.108654","0.015312","679424","804523","889194","25.160760","8.038018","0.015582","645094","849651","966008","17.141384","5.277405","0.017463","525","837","1023","452","736","885","436","683","809","445","641","733","417","541","596","DualSpot on"
"MA200-0420","47454","77","1","1.10","1.6","2023-08-02T05:10:01","120","2023/08/02","05:10:01","-15.795611500740051","35.00270183291286","0.2","13","300","64","98","-144","-26860","-532","10","150","150.35","117.16","33.19","17.61","58.9","9.46","90940","17.50","DUALSPOT-UV-BLUE-GREEN-RED-IR","490688","591527","906719","45.539112","17.045494","0.010507","623677","796295","841758","34.191824","11.802238","0.011188","633560","785602","832987","30.203372","10.157874","0.012091","676725","801861","886608","25.265046","8.076247","0.011938","643207","847541","963848","17.210414","5.302954","0.017828","1083","1706","2078","922","1296","1493","890","1231","1403","893","1155","1278","823","1075","1187","DualSpot on"
"MA200-0420","47455","77","1","1.10","1.6","2023-08-02T05:15:01","120","2023/08/02","05:15:01","-15.795595467090607","35.00277699972503","0.1","12","300","64","98","-69","-27092","-861","10","150","149.65","116.63","33.02","17.58","58.8","9.42","90940","17.44","DUALSPOT-UV-BLUE-GREEN-RED-IR","489930","590920","906174","45.637628","17.090748","0.010932","622903","795630","841312","34.264092","11.834918","0.013928","632919","785085","832671","30.269014","10.186090","0.014493","681135","807337","892846","25.319892","8.098681","0.015620","642550","846869","963232","17.250802","5.317218","0.015281","496","805","990","459","733","878","467","709","832","471","681","780","483","603","656","DualSpot on"
"MA200-0420","47456","77","1","1.10","1.6","2023-08-02T05:20:01","120","2023/08/02","05:20:01","-15.795662999153137","35.002726999577135","0.1","12","300","64","98","-96","-26900","-920","10","150","149.96","116.71","33.25","17.53","58.9","9.39","90948","17.44","DUALSPOT-UV-BLUE-GREEN-RED-IR","488682","589613","904418","45.695896","17.116528","0.010268","621366","793884","839656","34.314080","11.855329","0.011606","631518","783540","831209","30.316394","10.205108","0.012576","679865","806050","891536","25.361392","8.114343","0.012741","641491","845668","961984","17.281864","5.327521","0.011102","293","455","552","317","455","527","337","474","544","356","472","527","371","432","460","DualSpot on"
"MA200-0420","47457","77","1","1.10","1.6","2023-08-02T05:25:01","120","2023/08/02","05:25:01","-15.795665681362152","35.00270866625942","0.1","12","300","64","98","-59","-27003","-936","10","150","149.65","116.44","33.20","17.49","59.0","9.38","90940","17.38","DUALSPOT-UV-BLUE-GREEN-RED-IR","491882","593721","911049","45.767816","17.147568","0.009853","620705","793325","839243","34.375488","11.878417","0.009524","631053","783244","831041","30.369358","10.225318","0.011120","679197","805503","891099","25.407936","8.130747","0.010139","645233","850765","967862","17.313316","5.339391","0.018405","362","549","660","390","515","581","377","505","570","401","495","540","377","499","553","DualSpot on"
"MA200-0420","47458","77","1","1.10","1.6","2023-08-02T05:30:01","120","2023/08/02","05:30:01","-15.795611798763275","35.00274749961682","0.1","12","300","64","98","24","-26928","-1208","10","150","149.82","117.14","32.68","17.49","59.1","9.40","90960","17.44","DUALSPOT-UV-BLUE-GREEN-RED-IR","487589","589159","904704","45.949572","17.223214","0.009582","620708","794065","840482","34.521284","11.934021","0.010409","630552","783290","831507","30.502326","10.273811","0.010379","678840","805721","891698","25.523720","8.171504","0.010890","641170","845881","962612","17.400952","5.369298","0.014025","911","1359","1628","922","1261","1440","942","1231","1378","991","1251","1373","1045","1278","1382","DualSpot on"
"MA200-0420","47459","77","1","1.10","1.6","2023-08-02T05:35:01","120","2023/08/02","05:35:01","-15.795589029788971","35.00271083298139","0.3","12","300","64","98","-64","-26908","-780","10","150","150.15","116.75","33.40","17.53","59.2","9.47","90972","17.50","DUALSPOT-UV-BLUE-GREEN-RED-IR","488121","590242","906891","46.086532","17.282616","0.009813","616345","788969","835395","34.621248","11.970620","0.008652","631010","784331","832846","30.590618","10.305249","0.008809","679940","807427","893813","25.601696","8.197523","0.007679","641682","846925","964005","17.460534","5.387857","0.006518","689","1044","1257","634","812","906","627","781","859","670","781","834","712","776","804","DualSpot on"
"MA200-0420","47460","77","1","1.10","1.6","2023-08-02T05:40:01","120","2023/08/02","05:40:01","-15.795613467693329","35.00268366630189","0.2","11","300","64","98","-84","-26952","-792","10","150","150.08","116.87","33.21","17.55","59.3","9.51","90984","17.50","DUALSPOT-UV-BLUE-GREEN-RED-IR","487915","590385","907579","46.201144","17.333458","0.010240","616326","789305","836033","34.700664","12.002156","0.010889","631322","785062","833858","30.662182","10.331697","0.010169","673886","800555","886388","25.662452","8.219074","0.010423","641909","847501","964755","17.508256","5.401834","0.002423","576","899","1093","503","703","809","508","661","738","521","651","712","570","587","595","DualSpot on"
"MA200-0420","47461","77","1","1.10","1.6","2023-08-02T05:45:01","120","2023/08/02","05:45:01","-15.79562771320343","35.00270383292809","0.2","11","300","64","98","-92","-26952","-344","10","150","150.02","117.09","32.94","17.55","59.3","9.52","90988","17.50","DUALSPOT-UV-BLUE-GREEN-RED-IR","487403","590163","907747","46.324392","17.389236","0.010656","615571","788724","835694","34.784092","12.035799","0.011462","630858","784854","833860","30.735452","10.360039","0.011758","674145","801206","887299","25.724440","8.241475","0.011477","641809","847622","965047","17.553478","5.418269","0.016914","618","994","1220","528","757","878","519","714","813","531","682","753","539","697","767","DualSpot on"
"MA200-0420","47462","77","1","1.10","1.6","2023-08-02T05:50:01","120","2023/08/02","05:50:01","-15.795659363269806","35.002623833250254","0.1","11","300","64","98","-24","-26896","-859","10","150","149.96","116.82","33.14","17.51","59.4","9.50","90992","17.44","DUALSPOT-UV-BLUE-GREEN-RED-IR","484957","588082","905517","46.580356","17.496998","0.009377","617962","792668","840406","34.950120","12.098076","0.009448","629234","783535","832918","30.877962","10.411220","0.009277","677761","806105","893126","25.842662","8.282065","0.009148","640309","846137","963617","17.635968","5.443951","0.007015","1286","1910","2284","1053","1393","1573","1012","1282","1419","1015","1228","1329","986","1082","1125","DualSpot on"
"MA200-0420","47463","77","1","1.10","1.6","2023-08-02T05:55:01","120","2023/08/02","05:55:01","-15.795580685138702","35.00270833307877","0.2","11","300","64","98","-96","-27124","-520","10","150","150.41","116.82","33.58","17.50","59.5","9.52","91000","17.38","DUALSPOT-UV-BLUE-GREEN-RED-IR","482471","585778","902834","46.796056","17.592586","0.009929","615856","790617","838694","35.089012","12.152590","0.010217","626811","781110","830707","30.998226","10.456455","0.010246","675103","803451","890482","25.943324","8.317506","0.009582","638422","844035","961458","17.706570","5.467577","0.010832","1084","1671","2025","881","1203","1373","854","1118","1252","864","1058","1150","844","982","1044","DualSpot on"
"MA200-0420","47464","77","1","1.10","1.6","2023-08-02T06:00:01","120","2023/08/02","06:00:01","-15.79562133550644","35.002675666473806","0.1","11","300","64","98","57","-27030","-930","10","150","150.02","117.34","32.68","17.53","59.6","9.57","90996","17.50","DUALSPOT-UV-BLUE-GREEN-RED-IR","483351","587509","906397","47.008356","17.689202","0.010724","612396","786794","835054","35.222008","12.204829","0.010951","627990","783117","833202","31.111182","10.499215","0.011301","671723","799888","886863","26.036622","8.353133","0.013571","639609","845947","963841","17.774132","5.489875","0.011881","1062","1736","2143","840","1185","1367","799","1086","1232","797","1093","1233","804","953","1019","DualSpot on"
"MA200-0420","47465","77","1","1.10","1.6","2023-08-02T06:05:01","120","2023/08/02","06:05:01","-15.795561671257019","35.00269633275457","0.1","11","300","64","98","-92","-26836","-700","10","150","149.67","116.74","32.93","17.58","59.6","9.62","91000","17.56","DUALSPOT-UV-BLUE-GREEN-RED-IR","483624","588474","908738","47.210672","17.782288","0.010658","613107","788344","837149","35.352896","12.256209","0.010604","628270","784027","834503","31.223838","10.540899","0.010253","672091","800822","888161","26.130468","8.384222","0.007825","640449","847485","965827","17.844570","5.512913","0.010519","1017","1660","2048","831","1156","1329","801","1051","1178","806","947","1013","842","977","1037","DualSpot on"
"MA200-0420","47466","77","1","1.10","1.6","2023-08-02T06:10:01","120","2023/08/02","06:10:01","-15.795643866062164","35.00263899960555","0.2","11","300","64","98","-68","-26884","-720","10","150","150.28","117.18","33.10","17.62","59.7","9.69","91012","17.56","DUALSPOT-UV-BLUE-GREEN-RED-IR","483198","588377","909127","47.337616","17.839772","0.010390","612575","788105","837209","35.447904","12.294637","0.011231","627760","783827","834531","31.310600","10.572955","0.010139","671887","800965","888545","26.205262","8.411196","0.011052","640055","847324","965802","17.901058","5.531499","0.010759","636","1020","1252","601","860","998","614","804","900","640","817","901","673","784","834","DualSpot on"
"MA200-0420","47467","77","1","1.10","1.6","2023-08-02T06:15:01","120","2023/08/02","06:15:01","-15.795597970485687","35.00273933284916","0.1","11","300","64","98","-128","-27060","-584","10","150","149.90","116.75","33.15","17.68","59.9","9.79","91012","17.63","DUALSPOT-UV-BLUE-GREEN-RED-IR","479721","584609","903769","47.475404","17.900314","0.009852","613892","790293","839874","35.550104","12.330785","0.007687","624612","780336","831113","31.401254","10.605605","0.009184","672931","802622","890637","26.284158","8.437581","0.007893","636831","843387","961497","17.961758","5.549601","0.003776","693","1072","1302","648","808","893","644","817","905","678","798","855","726","762","779","DualSpot on"
"MA200-0420","47468","77","1","1.10","1.6","2023-08-02T06:20:01","120","2023/08/02","06:20:01","-15.795606315135956","35.0027324995026","0.1","12","300","64","98","-36","-26968","-976","10","150","150.02","117.01","33.01","17.75","60.0","9.87","91020","17.75","DUALSPOT-UV-BLUE-GREEN-RED-IR","480977","586647","907655","47.642136","17.976742","0.010513","610605","786639","836310","35.664748","12.376110","0.010673","625662","782162","833353","31.502270","10.641772","0.009172","668818","798196","885969","26.371730","8.467864","0.009462","638053","845411","963990","18.030518","5.571037","0.007317","836","1359","1676","726","1017","1172","716","909","1007","750","920","1000","820","907","945","DualSpot on"
"MA200-0420","47469","77","1","1.10","1.6","2023-08-02T06:25:01","120","2023/08/02","06:25:01","-15.795554161071777","35.00272149941884","0.0","12","300","64","98","-88","-26980","-365","10","150","149.44","116.78","32.65","17.80","59.9","9.90","91032","17.81","DUALSPOT-UV-BLUE-GREEN-RED-IR","480737","587094","909237","47.861628","18.071784","0.009789","610845","787621","837852","35.807996","12.430939","0.010084","625868","783051","834673","31.627738","10.687544","0.009966","669420","799444","887694","26.475782","8.504443","0.010383","637893","845676","964567","18.111186","5.595409","0.005764","1103","1709","2077","909","1244","1423","891","1163","1302","893","1123","1232","964","1042","1077","DualSpot on"
"MA200-0420","47470","77","1","1.10","1.6","2023-08-02T06:30:01","120","2023/08/02","06:30:01","-15.795567691326141","35.002746666548774","0.1","11","300","64","98","-59","-27016","-720","10","150","149.82","116.74","33.08","17.88","59.8","9.95","91028","17.81","DUALSPOT-UV-BLUE-GREEN-RED-IR","477665","583869","904874","48.025556","18.146458","0.010290","611588","789220","839979","35.939032","12.483388","0.010780","622742","779677","831498","31.745892","10.733668","0.011448","671251","802153","891060","26.579410","8.542453","0.011389","639159","847826","967266","18.195092","5.623927","0.012321","824","1326","1630","832","1175","1358","840","1157","1319","890","1152","1277","1003","1204","1294","DualSpot on"
"MA200-0420","47471","77","1","1.10","1.6","2023-08-02T06:35:01","120","2023/08/02","06:35:01","-15.795593619346619","35.00272083282471","0.1","11","300","64","98","-16","-27100","-762","10","150","149.59","116.60","32.99","17.99","59.7","10.04","91036","18.06","DUALSPOT-UV-BLUE-GREEN-RED-IR","479082","586006","908783","48.157248","18.208500","0.010731","609097","786472","837388","36.038232","12.523413","0.010960","624626","782467","834755","31.834608","10.767477","0.010802","668567","799357","888172","26.656248","8.570992","0.011834","637167","845530","964822","18.256104","5.641133","-0.000264","663","1104","1372","630","899","1042","631","850","962","661","867","965","731","728","727","DualSpot on"
"MA200-0420","47472","77","1","1.10","1.6","2023-08-02T06:40:01","120","2023/08/02","06:40:01","-15.795587360858917","35.0028159993235","0.4","11","300","64","97","-119","-26788","-508","10","150","149.67","117.20","32.47","18.08","59.3","10.00","91032","18.06","DUALSPOT-UV-BLUE-GREEN-RED-IR","475491","582172","903502","48.329452","18.287434","0.010612","609785","787948","839445","36.166304","12.580125","0.013229","624473","782814","835492","31.947954","10.814492","0.013430","669358","800734","890087","26.752130","8.609424","0.014844","637040","845787","965349","18.327248","5.664164","0.010694","863","1427","1771","810","1294","1553","802","1202","1406","820","1187","1361","848","990","1054","DualSpot on"
"MA200-0420","47473","77","1","1.10","1.6","2023-08-02T06:45:01","120","2023/08/02","06:45:01","-15.795675218105316","35.00255083316006","0.1","11","300","64","98","0","-26872","-976","10","150","149.85","116.93","32.92","18.12","59.0","9.98","91040","18.13","DUALSPOT-UV-BLUE-GREEN-RED-IR","475273","582526","904827","48.518548","18.368576","0.009431","609658","788456","840439","36.306508","12.636934","0.011087","620403","778279","831044","32.071782","10.862916","0.011549","668905","800738","890399","26.857612","8.647182","0.010645","636935","846094","965971","18.406726","5.690943","0.012043","949","1447","1751","888","1279","1487","879","1221","1396","905","1150","1267","949","1136","1219","DualSpot on"
"MA200-0420","47474","77","1","1.10","1.6","2023-08-02T06:50:01","120","2023/08/02","06:50:01","-15.795681118965149","35.002715666079894","0.1","11","300","64","98","-119","-26972","-724","10","150","149.67","116.49","33.17","18.24","59.1","10.12","91052","18.38","DUALSPOT-UV-BLUE-GREEN-RED-IR","473603","581190","903503","48.726648","18.454730","0.008663","608336","787503","839897","36.460680","12.690586","0.006968","622652","781847","835223","32.208900","10.907732","0.005670","667345","799477","889349","26.971406","8.686279","0.008657","635374","844528","964400","18.495136","5.717771","0.004691","1049","1525","1815","981","1198","1315","977","1121","1195","980","1182","1278","1060","1129","1160","DualSpot on"
"MA200-0420","47475","77","1","1.10","1.6","2023-08-02T06:55:01","120","2023/08/02","06:55:01","-15.795578837394714","35.00273966626264","0.1","11","300","64","98","-84","-27008","-696","10","150","149.47","116.52","32.95","18.48","59.0","10.32","91052","18.69","DUALSPOT-UV-BLUE-GREEN-RED-IR","474497","582669","906407","48.861420","18.522098","0.011315","604537","782984","835409","36.557236","12.729689","0.010907","619722","778544","831966","32.293922","10.939168","0.009832","667844","800476","890691","27.045942","8.712339","0.009564","635670","845397","965552","18.562088","5.733731","-0.015829","679","1201","1519","614","879","1021","605","792","887","641","793","865","802","676","620","DualSpot on"
"MA200-0420","47476","77","1","1.10","1.6","2023-08-02T07:00:01","120","2023/08/02","07:00:01","-15.795619368553162","35.00272583286278","0.1","12","300","64","98","-48","-27052","-844","10","150","149.47","117.03","32.44","18.58","58.3","10.24","91056","18.69","DUALSPOT-UV-BLUE-GREEN-RED-IR","474332","583002","907592","49.025292","18.591172","0.009306","604217","783137","835965","36.674432","12.778235","0.011766","619607","778908","832713","32.397762","10.980590","0.012322","669001","802264","892978","27.133882","8.745889","0.013162","636023","846220","966725","18.632816","5.756919","0.011231","822","1250","1512","742","1109","1305","736","1060","1226","753","1037","1172","844","998","1067","DualSpot on"
"MA200-0420","47477","77","1","1.10","1.6","2023-08-02T07:05:01","120","2023/08/02","07:05:01","-15.79561722278595","35.00273316609673","0.1","12","300","64","98","-184","-27068","-483","10","150","149.65","116.71","32.94","18.66","58.0","10.23","91064","18.75","DUALSPOT-UV-BLUE-GREEN-RED-IR","474590","583756","909283","49.153276","18.648118","0.009797","605049","784678","837907","36.768172","12.815106","0.010243","619748","779510","833607","32.479980","11.010659","0.009519","664469","797207","887559","27.202820","8.770014","0.009613","636003","846590","967271","18.687942","5.770756","-0.010201","644","1015","1242","595","829","955","584","757","846","592","734","802","659","586","554","DualSpot on"
"MA200-0420","47478","77","1","1.10","1.6","2023-08-02T07:10:01","120","2023/08/02","07:10:01","-15.795600712299347","35.00281983264722","0.5","12","300","64","98","-80","-26980","-859","10","150","149.95","116.71","33.25","18.76","57.9","10.28","91076","18.81","DUALSPOT-UV-BLUE-GREEN-RED-IR","471290","580376","904749","49.353632","18.731376","0.008613","605984","786656","840522","36.922484","12.874024","0.009295","616384","775966","830258","32.619670","11.060503","0.008476","665028","798520","889398","27.322872","8.811233","0.008510","632364","842251","962594","18.780506","5.799037","0.005057","1008","1470","1753","980","1313","1492","993","1244","1373","1032","1243","1344","1107","1188","1224","DualSpot on"
