"Serial number","Datum ID","Session ID","Data format version","Firmware version","App version","Date / time local","Timezone offset (mins)","Date local (yyyy/MM/dd)","Time local (hh:mm:ss)","GPS lat (ddmm.mmmmm)","GPS long (dddmm.mmmmm)","GPS speed (km/h)","GPS sat count","Timebase (s)","Status","Battery remaining (%)","Accel X","Accel Y","Accel Z","Tape position","Flow setpoint (mL/min)","Flow total (mL/min)","Flow1 (mL/min)","Flow2 (mL/min)","Sample temp (C)","Sample RH (%)","Sample dewpoint (C)","Internal pressure (Pa)","Internal temp (C)","Optical config","UV Sen1","UV Sen2","UV Ref","UV ATN1","UV ATN2","UV K","Blue Sen1","Blue Sen2","Blue Ref","Blue ATN1","Blue ATN2","Blue K","Green Sen1","Green Sen2","Green Ref","Green ATN1","Green ATN2","Green K","Red Sen1","Red Sen2","Red Ref","Red ATN1","Red ATN2","Red K","IR Sen1","IR Sen2","IR Ref","IR ATN1","IR ATN2","IR K","UV BC1","UV BC2","UV BCc","Blue BC1","Blue BC2","Blue BCc","Green BC1","Green BC2","Green BCc","Red BC1","Red BC2","Red BCc","IR BC1","IR BC2","IR BCc","Readable status"
"MA200-0416","53436","114","1","1.10","1.6","2023-07-30T14:20:00","120","2023/07/30","14:20:00","0","0","0.0","13","300","66","56","-252","-1228","-26600","1","150","149.33","115.75","33.57","32.78","36.1","15.79","89388","32.38","DUALSPOT-UV-BLUE-GREEN-RED-IR","823494","724100","905834","0.000000","0.000000","0.000000","771980","896429","761217","0.000000","0.000000","0.000000","865930","903239","814181","0.000000","0.000000","0.000000","856502","926783","865667","0.000000","0.000000","0.000000","721335","844810","950676","0.000000","0.000000","0.000000","","","","","","","","","","","","","","","","Start up-DualSpot on"
"MA200-0416","53437","114","1","1.10","1.6","2023-07-30T14:25:00","120","2023/07/30","14:25:00","0","0","0.0","13","300","64","55","-356","-1180","-26480","1","150","150.28","117.67","32.61","32.57","35.2","15.22","0","0.00","DUALSPOT-UV-BLUE-GREEN-RED-IR","812042","722260","908044","0.000000","0.000000","0.000000","767906","898720","765805","0.000000","0.000000","0.000000","860612","903373","816493","0.000000","0.000000","0.000000","845048","918754","859949","0.000000","0.000000","0.000000","720130","846001","953278","0.000000","0.000000","0.000000","","","","","","","","","","","","","","","","DualSpot on"
"MA200-0416","53438","114","1","1.10","1.6","2023-07-30T14:30:00","120","2023/07/30","14:30:00","0","0","0.0","13","300","64","55","-328","-1148","-26580","1","150","150.30","116.51","33.79","32.43","34.2","14.64","0","0.00","DUALSPOT-UV-BLUE-GREEN-RED-IR","789588","713625","903483","2.256407","0.691427","0.000000","754239","891425","762899","1.403531","0.433940","0.000000","848132","897021","813538","1.087444","0.337338","0.000000","841542","920100","863436","0.813385","0.253689","0.000000","714766","842555","950769","0.482839","0.143371","0.000000","11375","12019","11375","8930","9521","8930","7748","8289","7748","7004","7533","7004","5789","5927","5789","DualSpot on"
"MA200-0416","53439","114","1","1.10","1.6","2023-07-30T14:35:00","120","2023/07/30","14:35:00","0","0","0.0","13","300","64","54","-384","-1088","-26373","1","150","150.56","117.20","33.37","32.35","33.9","14.43","89372","31.31","DUALSPOT-UV-BLUE-GREEN-RED-IR","761569","705359","902880","5.847595","1.801803","0.018898","739451","885690","762464","3.343294","1.025808","0.028023","836907","893844","814085","2.500349","0.764530","0.000000","832965","917111","863185","1.814465","0.554925","0.000000","711331","841777","951417","1.037036","0.304031","0.000000","17998","19545","20234","12270","13149","13538","10009","10628","10009","8569","9057","8569","6605","6725","6605","DualSpot on"
"MA200-0416","53440","114","1","1.10","1.6","2023-07-30T14:40:00","120","2023/07/30","14:40:00","0","0","0.0","13","300","64","53","-312","-1112","-26441","1","150","149.55","116.80","32.75","32.29","33.0","13.97","89364","31.25","DUALSPOT-UV-BLUE-GREEN-RED-IR","747764","700746","902572","7.636793","2.418687","0.032959","729949","881454","761949","4.561949","1.435262","0.049221","828308","890433","813655","3.472149","1.086705","0.060458","826358","914363","862704","2.550734","0.795132","0.000000","707916","840276","951080","1.479177","0.442983","0.000000","8997","11065","12023","7734","9269","9974","6907","8168","8742","6324","7359","6324","5288","5927","5288","DualSpot on"
"MA200-0416","53441","114","1","1.10","1.6","2023-07-30T14:45:00","120","2023/07/30","14:45:00","0","0","0.0","13","300","64","53","-288","-1136","-26480","1","150","149.91","116.23","33.68","32.28","32.9","13.91","89360","31.31","DUALSPOT-UV-BLUE-GREEN-RED-IR","729522","694717","902656","10.111576","3.291111","0.024051","718258","876668","762034","6.183638","1.985920","0.032691","817945","886800","813727","4.740769","1.507574","0.036996","818890","911884","863033","3.500045","1.103920","0.043424","704223","839212","951487","2.044689","0.618195","0.000000","12505","15216","16524","10343","12121","12963","9061","10375","10988","8194","9199","9662","6796","7268","6796","DualSpot on"
"MA200-0416","53442","114","1","1.10","1.6","2023-07-30T14:50:00","120","2023/07/30","14:50:00","0","0","0.0","13","300","64","53","-208","-1120","-26416","1","150","149.44","116.04","33.39","32.26","32.5","13.72","89356","31.31","DUALSPOT-UV-BLUE-GREEN-RED-IR","712509","691958","908533","13.123566","4.338699","0.018105","707541","874886","765318","8.121402","2.621950","0.021169","804611","881546","812823","6.275500","1.993042","0.020227","807144","906263","860698","4.672287","1.458478","0.014787","698142","836237","950046","2.761364","0.819630","0.000000","15245","18425","19996","12379","14119","14949","10980","12069","12576","10134","10652","10887","8627","8426","8627","DualSpot on"
"MA200-0416","53443","114","1","1.10","1.6","2023-07-30T14:55:00","120","2023/07/30","14:55:00","0","0","0.0","13","300","64","52","-320","-1148","-26719","1","150","149.80","116.21","33.59","32.24","32.0","13.43","89360","31.31","DUALSPOT-UV-BLUE-GREEN-RED-IR","689400","681091","903709","15.880104","5.388092","0.020424","692720","866639","763003","9.926198","3.261865","0.025434","794305","878416","813906","7.689269","2.474874","0.027180","800546","905277","862780","5.732034","1.803607","0.027235","694844","836039","951605","3.394407","1.007457","0.010723","13932","18350","20620","11513","14123","15401","10100","11909","12768","9149","10309","10841","7609","7811","7897","DualSpot on"
"MA200-0416","53444","114","1","1.10","1.6","2023-07-30T15:00:00","120","2023/07/30","15:00:00","0","0","0.0","13","300","64","51","-308","-1064","-26503","1","150","150.09","116.67","33.43","32.23","31.5","13.21","89356","31.25","DUALSPOT-UV-BLUE-GREEN-RED-IR","676169","676084","903924","17.869350","6.158155","0.019521","683254","862594","763257","11.352201","3.770918","0.023707","785598","875187","814035","8.819592","2.863860","0.026016","793903","902970","863031","6.601660","2.089798","0.027052","691350","834964","951923","3.939808","1.171248","0.016270","10014","13530","15379","9061","11289","12397","8043","9661","10438","7478","8589","9104","6530","6844","6977","DualSpot on"
"MA200-0416","53445","114","1","1.10","1.6","2023-07-30T15:05:00","120","2023/07/30","15:05:00","0","0","0.0","13","300","64","51","-320","-1016","-26600","1","150","149.66","116.96","32.70","32.22","31.2","13.04","89356","31.31","DUALSPOT-UV-BLUE-GREEN-RED-IR","667322","672474","903940","19.187108","6.695696","0.021553","676266","859118","763100","12.357037","4.151655","0.028206","778806","872250","813699","9.651965","3.165203","0.031598","788287","900460","862614","7.262312","2.318287","0.035564","688228","833649","951702","4.367321","1.306733","0.036649","6617","9655","11283","6368","8631","9776","5908","7651","8501","5667","7010","7640","5106","5788","6079","DualSpot on"
"MA200-0416","53446","114","1","1.10","1.6","2023-07-30T15:10:00","120","2023/07/30","15:10:00","0","0","0.0","13","300","64","50","-320","-1208","-26236","1","150","150.11","117.69","32.42","32.20","30.6","12.74","89352","31.31","DUALSPOT-UV-BLUE-GREEN-RED-IR","660531","669734","904445","20.267868","7.161087","0.022969","670490","856066","762949","13.200512","4.489101","0.030809","774115","870806","814611","10.368699","3.438883","0.035321","785162","900171","864138","7.839386","2.528030","0.040874","686521","833620","952907","4.744983","1.434329","0.051652","5393","8431","10091","5312","7716","8954","5056","7008","7977","4919","6490","7238","4482","5498","5938","DualSpot on"
"MA200-0416","53447","114","1","1.10","1.6","2023-07-30T15:15:00","120","2023/07/30","15:15:00","0","0","0.0","14","300","64","50","-280","-1100","-26452","1","150","149.98","118.07","31.91","32.19","30.4","12.61","89348","31.31","DUALSPOT-UV-BLUE-GREEN-RED-IR","653124","665934","903388","21.286808","7.614650","0.023574","664974","853038","762750","14.002956","4.817968","0.031456","768692","868344","814506","11.054517","3.707033","0.036358","780866","898374","864180","8.393566","2.733809","0.042496","683893","832454","952733","5.109009","1.559279","0.054776","5068","8348","10174","5038","7639","9004","4822","6976","8063","4709","6469","7320","4306","5469","5980","DualSpot on"
"MA200-0416","53448","114","1","1.10","1.6","2023-07-30T15:20:00","120","2023/07/30","15:20:00","0","0","0.0","14","300","64","49","-320","-1064","-26560","1","150","149.81","117.21","32.60","32.18","30.1","12.46","89356","31.31","DUALSPOT-UV-BLUE-GREEN-RED-IR","646509","662922","903631","22.323036","8.089500","0.022571","659592","850142","762810","14.819915","5.166036","0.030326","763463","866028","814611","11.754826","3.991150","0.034862","776322","896284","864054","8.960785","2.952713","0.040872","681441","831433","952843","5.479084","1.689834","0.051016","5192","8554","10465","5167","7914","9384","4960","7235","8404","4855","6736","7661","4410","5594","6121","DualSpot on"
"MA200-0416","53449","114","1","1.10","1.6","2023-07-30T15:25:00","120","2023/07/30","15:25:00","0","0","0.0","14","300","64","48","-376","-1072","-26663","1","150","149.55","117.06","32.48","32.17","29.7","12.25","0","0.00","DUALSPOT-UV-BLUE-GREEN-RED-IR","639873","659937","904041","23.402192","8.588894","0.021936","654191","847324","763067","15.675892","5.529106","0.028677","758311","863937","815088","12.488475","4.287701","0.032848","771602","894092","863944","9.553604","3.179777","0.038008","678910","830480","953069","5.874786","1.828634","0.047184","5414","9030","11126","5420","8286","9847","5203","7579","8822","5080","7013","7977","4721","5969","6532","DualSpot on"
"MA200-0416","53450","114","1","1.10","1.6","2023-07-30T15:30:00","120","2023/07/30","15:30:00","0","0","0.0","14","300","64","48","-372","-1064","-26591","1","150","149.59","117.25","32.34","32.13","29.4","12.04","0","0.00","DUALSPOT-UV-BLUE-GREEN-RED-IR","632363","655859","903060","24.476468","9.102076","0.021988","648206","843620","762561","16.527805","5.902487","0.028932","751730","860132","813959","13.218511","4.589426","0.032757","766267","891115","863074","10.148252","3.414393","0.038776","675712","828666","952329","6.268009","1.970418","0.049380","5381","9320","11653","5386","8559","10322","5169","7746","9116","5088","7278","8389","4684","6124","6784","DualSpot on"
"MA200-0416","53451","114","1","1.10","1.6","2023-07-30T15:35:00","120","2023/07/30","15:35:00","0","0","0.0","14","300","64","47","-324","-1044","-26524","1","150","150.05","117.46","32.60","32.09","29.2","11.93","0","0.00","DUALSPOT-UV-BLUE-GREEN-RED-IR","630993","658083","910958","25.563286","9.629421","0.021344","642305","839897","762124","17.390404","6.288023","0.028109","746757","858041","814541","13.957425","4.905277","0.032561","761153","888305","862438","10.747272","3.655547","0.037760","673033","827422","952294","6.664486","2.115933","0.048151","5434","9502","11960","5444","8768","10650","5222","8044","9573","5116","7422","8611","4715","6236","6943","DualSpot on"
"MA200-0416","53452","114","1","1.10","1.6","2023-07-30T15:40:00","120","2023/07/30","15:40:00","0","0","0.0","14","300","64","47","-431","-1164","-26563","1","150","150.17","117.50","32.67","32.04","28.9","11.73","0","0.00","DUALSPOT-UV-BLUE-GREEN-RED-IR","623179","653589","909802","26.677502","10.186951","0.021140","640211","841046","766065","18.226588","6.666713","0.027312","740341","854151","813340","14.670146","5.211216","0.031185","755943","885297","861538","11.328865","3.892189","0.036522","669994","825740","951720","7.053161","2.259061","0.045799","5569","10022","12773","5275","8592","10505","5035","7774","9282","4965","7266","8470","4620","6119","6825","DualSpot on"
"MA200-0416","53453","114","1","1.10","1.6","2023-07-30T15:45:00","120","2023/07/30","15:45:00","0","0","0.0","14","300","64","46","-348","-1048","-26540","1","150","150.09","117.10","32.99","32.01","28.7","11.60","89368","31.19","DUALSPOT-UV-BLUE-GREEN-RED-IR","614703","649103","909849","28.043296","10.877956","0.020157","630651","832669","761658","19.152356","7.088083","0.025808","738567","855947","817776","15.447947","5.542707","0.028767","750373","882160","860683","11.964203","4.146892","0.032848","666679","823917","951111","7.485573","2.412616","0.037096","6850","12302","15757","5860","9468","11588","5514","8342","9924","5443","7745","8967","5158","6502","7141","DualSpot on"
"MA200-0416","53454","114","1","1.10","1.6","2023-07-30T15:50:00","120","2023/07/30","15:50:00","0","0","0.0","14","300","64","45","-288","-1156","-26608","1","150","149.69","117.15","32.54","31.98","28.6","11.50","89372","31.19","DUALSPOT-UV-BLUE-GREEN-RED-IR","603423","642284","907837","29.678218","11.713009","0.019572","626751","832286","764843","20.186776","7.552427","0.024575","731826","852303","817203","16.297308","5.899989","0.027392","745036","879529","860454","12.654607","4.416591","0.030374","663609","822710","951248","7.960102","2.576583","0.033312","8196","15073","19556","6545","10579","12990","6019","9116","10873","5912","8315","9603","5658","7039","7700","DualSpot on"
"MA200-0416","53455","114","1","1.10","1.6","2023-07-30T15:55:00","120","2023/07/30","15:55:00","0","0","0.0","14","300","64","44","-412","-1160","-26512","1","150","149.42","116.98","32.44","31.94","28.6","11.49","89372","31.13","DUALSPOT-UV-BLUE-GREEN-RED-IR","595119","637371","907131","30.992782","12.404823","0.019343","620447","827875","764053","21.101696","7.982315","0.025003","725623","848754","816527","17.067288","6.238377","0.028102","746283","884276","867298","13.280980","4.675549","0.032454","660338","820822","950544","8.386104","2.732905","0.038649","6600","12526","16481","5798","9824","12273","5464","8660","10501","5372","8009","9441","5087","6731","7526","DualSpot on"
"MA200-0416","53456","114","1","1.10","1.6","2023-07-30T16:00:00","120","2023/07/30","16:00:00","0","0","0.0","14","300","64","44","-512","-1162","-26350","1","150","149.83","117.18","32.65","31.88","28.6","11.42","89376","31.06","DUALSPOT-UV-BLUE-GREEN-RED-IR","588194","633265","906686","32.117050","13.005047","0.018877","614468","823697","763387","21.979824","8.402473","0.024448","719916","845582","816243","17.824224","6.579447","0.027749","740461","880557","865953","13.907857","4.939109","0.031723","661097","823995","955794","8.818958","2.896609","0.039397","5635","10799","14312","5555","9541","12007","5362","8673","10611","5367","8099","9604","5160","7005","7907","DualSpot on"
"MA200-0416","53457","114","1","1.10","1.6","2023-07-30T16:05:00","120","2023/07/30","16:05:00","0","0","0.0","14","300","64","43","-291","-1145","-26395","1","150","149.66","117.13","32.53","31.84","28.5","11.34","89376","31.06","DUALSPOT-UV-BLUE-GREEN-RED-IR","581125","628407","904640","33.103642","13.552807","0.018984","609321","819883","762782","22.748460","8.786018","0.024827","714890","842585","815906","18.486704","6.891638","0.028464","735862","877722","865254","14.452566","5.180741","0.033354","658352","822442","955369","9.189766","3.043075","0.042100","4947","9889","13315","4864","8739","11178","4695","7967","9911","4665","7451","9008","4422","6289","7213","DualSpot on"
"MA200-0416","53458","114","1","1.10","1.6","2023-07-30T16:10:00","120","2023/07/30","16:10:00","0","0","0.0","13","300","64","42","-356","-1144","-26447","1","150","150.03","116.63","33.40","31.80","28.4","11.26","89376","31.00","DUALSPOT-UV-BLUE-GREEN-RED-IR","573228","622427","900689","34.031744","14.069935","0.018135","606422","819076","764882","23.497824","9.161795","0.023481","708542","837986","813976","19.138566","7.199502","0.026644","728824","871956","861610","14.990046","5.419308","0.030867","654161","819007","952764","9.556519","3.187426","0.037633","4674","9093","12208","4763","8340","10626","4640","7652","9468","4623","7165","8605","4392","6037","6860","DualSpot on"
"MA200-0416","53459","114","1","1.10","1.6","2023-07-30T16:15:00","120","2023/07/30","16:15:00","0","0","0.0","13","300","64","41","-408","-1152","-26408","1","150","150.17","116.59","33.59","31.75","28.2","11.12","89376","30.94","DUALSPOT-UV-BLUE-GREEN-RED-IR","574545","626357","911071","34.944988","14.584709","0.017785","599047","812014","761136","24.230544","9.531380","0.022829","704656","836156","814639","19.772098","7.501077","0.025920","726004","871100","862768","15.514433","5.653942","0.029996","652461","818654","953694","9.913498","3.329722","0.036940","4600","9002","12155","4658","8157","10426","4511","7454","9254","4512","7008","8440","4277","5918","6748","DualSpot on"
"MA200-0416","53460","114","1","1.10","1.6","2023-07-30T16:20:00","120","2023/07/30","16:20:00","0","0","0.0","14","300","64","41","-464","-1000","-26503","1","150","149.80","117.12","32.67","31.72","28.2","11.06","89376","30.94","DUALSPOT-UV-BLUE-GREEN-RED-IR","567213","620648","907307","35.819240","15.086273","0.018036","596264","811074","763020","24.944924","9.899843","0.023436","698714","831769","812797","20.395988","7.802683","0.026610","719595","865838","859564","16.028999","5.887735","0.031094","648759","815676","951601","10.265015","3.472392","0.039685","4384","9016","12386","4521","8359","10885","4422","7663","9671","4407","7178","8787","4192","6099","7074","DualSpot on"
"MA200-0416","53461","114","1","1.10","1.6","2023-07-30T16:25:00","120","2023/07/30","16:25:00","0","0","0.0","15","300","64","40","-416","-1092","-26575","1","150","149.63","117.94","31.69","31.66","28.1","10.96","89384","30.88","DUALSPOT-UV-BLUE-GREEN-RED-IR","562239","617511","907434","36.714368","15.608234","0.018264","592831","809224","764164","25.668084","10.275038","0.023693","697884","833479","817002","21.023428","8.111298","0.027343","715452","863263","859074","16.547525","6.126934","0.032168","646588","814631","951788","10.620071","3.621724","0.043473","4457","9673","13530","4545","8776","11600","4416","8084","10388","4410","7572","9431","4205","6582","7812","DualSpot on"
"MA200-0416","53462","114","1","1.10","1.6","2023-07-30T16:30:00","120","2023/07/30","16:30:00","0","0","0.0","14","300","64","40","-328","-1120","-26556","1","150","149.98","118.02","31.96","31.59","28.0","10.86","0","0.00","DUALSPOT-UV-BLUE-GREEN-RED-IR","555761","612644","904862","37.586256","16.114681","0.017749","587097","804129","762148","26.379598","10.644455","0.022969","692695","829900","815953","21.642672","8.413381","0.026211","717034","867572","865382","17.061048","6.362456","0.030781","643557","812508","950670","10.971764","3.764891","0.039533","4339","9307","13035","4469","8568","11341","4356","7846","10066","4365","7393","9193","4162","6257","7351","DualSpot on"
"MA200-0416","53463","114","1","1.10","1.6","2023-07-30T16:35:00","120","2023/07/30","16:35:00","0","0","0.0","14","300","64","39","-380","-1072","-26552","1","150","150.49","118.03","32.46","31.52","27.8","10.68","0","0.00","DUALSPOT-UV-BLUE-GREEN-RED-IR","550220","608487","902949","38.381996","16.587894","0.017502","585891","804966","765688","27.046910","10.998709","0.022572","688079","826762","815241","22.227170","8.705974","0.025828","712267","864022","863835","17.547056","6.589961","0.030158","644828","815697","955736","11.303211","3.903137","0.039012","3959","8561","12064","4191","8089","10761","4111","7482","9653","4131","7030","8774","3922","5948","7017","DualSpot on"
"MA200-0416","53464","114","1","1.10","1.6","2023-07-30T16:40:00","120","2023/07/30","16:40:00","0","0","0.0","14","300","64","39","-320","-1240","-26356","1","150","149.98","119.03","30.95","31.43","27.7","10.57","89392","30.69","DUALSPOT-UV-BLUE-GREEN-RED-IR","550097","610246","909753","39.151228","17.046978","0.017789","580950","800609","764128","27.690502","11.341745","0.023116","683813","823947","814767","22.792390","8.989233","0.026543","708109","861095","862809","18.017890","6.812138","0.031477","642492","814274","955328","11.625217","4.038065","0.041614","3795","8712","12504","4008","8216","11136","3942","7598","9979","3968","7202","9168","3779","6090","7320","DualSpot on"
"MA200-0416","53465","114","1","1.10","1.6","2023-07-30T16:45:00","120","2023/07/30","16:45:00","0","0","0.0","13","300","64","38","-356","-1184","-26563","1","150","149.59","119.63","29.96","31.35","27.7","10.50","89388","30.63","DUALSPOT-UV-BLUE-GREEN-RED-IR","544403","605564","906465","39.835204","17.455922","0.017867","576271","796294","762372","28.270534","11.650808","0.023248","679036","820231","813202","23.303876","9.248221","0.026981","708343","863357","866810","18.446692","7.015721","0.032039","639543","811943","953764","11.920223","4.161537","0.042583","3358","8016","11649","3594","7646","10487","3549","7175","9561","3596","6816","8793","3444","5756","6996","DualSpot on"
"MA200-0416","53466","114","1","1.10","1.6","2023-07-30T16:50:00","120","2023/07/30","16:50:00","0","0","0.0","13","300","64","38","-354","-1154","-25891","1","150","149.69","119.56","30.13","31.23","27.5","10.26","89384","30.50","DUALSPOT-UV-BLUE-GREEN-RED-IR","539294","601634","904721","40.585384","17.913864","0.017690","571804","792478","761437","28.923758","12.009604","0.023113","677895","821238","816669","23.890224","9.552103","0.026692","702231","858051","863631","18.943748","7.259471","0.031950","636427","809539","952426","12.271152","4.316404","0.043737","3685","8926","13067","4050","8827","12218","4071","8372","11237","4171","8115","10566","4100","7179","8850","DualSpot on"
"MA200-0416","53467","114","1","1.10","1.6","2023-07-30T16:55:00","120","2023/07/30","16:55:00","0","0","0.0","13","300","64","37","-272","-1128","-26340","1","150","149.76","119.16","30.60","31.12","27.4","10.11","89384","30.44","DUALSPOT-UV-BLUE-GREEN-RED-IR","537303","601694","909952","41.526988","18.480618","0.017043","569022","791692","764218","29.772702","12.469687","0.022049","671578","816631","815293","24.657984","9.945583","0.025360","695407","852707","860979","19.608614","7.579678","0.029987","632012","806146","950454","12.756134","4.525520","0.040201","4641","10878","15880","5281","11146","15373","5349","10675","14276","5597","10498","13587","5685","9546","11669","DualSpot on"
"MA200-0416","53468","114","1","1.10","1.6","2023-07-30T17:00:00","120","2023/07/30","17:00:00","0","0","0.0","13","300","64","36","-404","-1144","-26636","1","150","150.17","119.90","30.27","31.00","27.4","10.02","89388","30.31","DUALSPOT-UV-BLUE-GREEN-RED-IR","530811","596430","906610","42.375580","18.994298","0.016919","562672","785542","761404","30.528278","12.880667","0.021826","665830","812290","813843","25.339784","10.297116","0.025141","689469","847943","858601","20.194816","7.864526","0.029823","632532","808771","955289","13.181660","4.708957","0.039746","4156","9966","14685","4671","10064","13999","4720","9640","13008","4905","9440","12332","4957","8464","10413","DualSpot on"
"MA200-0416","53469","114","1","1.10","1.6","2023-07-30T17:05:00","120","2023/07/30","17:05:00","0","0","0.0","13","300","64","36","-434","-911","-27060","1","150","149.37","118.68","30.69","30.91","27.5","9.99","89396","30.25","DUALSPOT-UV-BLUE-GREEN-RED-IR","529701","596981","912020","43.174448","19.487500","0.016598","561201","785901","764603","31.211506","13.258011","0.021268","663826","812217","816363","25.951056","10.615713","0.024359","688409","848871","861762","20.715566","8.120752","0.028844","628945","805860","953371","13.551727","4.869556","0.037944","3953","9438","13951","4267","9114","12693","4276","8618","11624","4402","8375","10937","4355","7309","8966","DualSpot on"
"MA200-0416","53470","114","1","1.10","1.6","2023-07-30T17:10:00","120","2023/07/30","17:10:00","0","0","0.0","13","300","64","35","-444","-1088","-26368","1","150","149.53","118.79","30.73","30.78","27.4","9.86","0","0.00","DUALSPOT-UV-BLUE-GREEN-RED-IR","522586","590775","907022","43.979700","19.986512","0.016347","558683","784575","766022","31.844210","13.607515","0.020873","658672","808045","814489","26.501782","10.902952","0.023893","687655","849956","864827","21.180892","8.347709","0.028030","625360","802796","951053","13.880337","5.009987","0.036381","3981","9537","14165","3948","8430","11775","3848","7759","10493","3929","7409","9672","3864","6383","7806","DualSpot on"
"MA200-0416","53471","114","1","1.10","1.6","2023-07-30T17:15:00","120","2023/07/30","17:15:00","0","0","0.0","13","300","64","35","-368","-1092","-26547","1","150","150.27","119.34","30.93","30.71","27.5","9.84","0","0.00","DUALSPOT-UV-BLUE-GREEN-RED-IR","516247","585651","904244","44.898104","20.553586","0.015997","553542","779767","764130","32.525848","13.980247","0.020309","654280","804950","813849","27.092664","11.207204","0.023150","682064","845261","862105","21.677464","8.586611","0.027049","626444","805783","956028","14.228256","5.157308","0.035032","4520","10767","16041","4234","8932","12474","4110","8165","11026","4174","7748","10092","4072","6653","8120","DualSpot on"
"MA200-0416","53472","114","1","1.10","1.6","2023-07-30T17:20:00","120","2023/07/30","17:20:00","0","0","0.0","13","300","64","34","-488","-1169","-26473","1","150","149.58","118.81","30.77","30.57","27.5","9.74","89404","29.94","DUALSPOT-UV-BLUE-GREEN-RED-IR","515208","586224","909637","45.688744","21.043640","0.015779","547984","774296","761679","33.208324","14.358604","0.020108","649115","800917","812365","27.700962","11.526142","0.022996","681303","846554","865649","22.201292","8.843770","0.026945","623150","803294","954663","14.606499","5.319477","0.034757","3908","9355","14006","4258","9116","12817","4250","8606","11710","4423","8385","11008","4447","7363","9033","DualSpot on"
"MA200-0416","53473","114","1","1.10","1.6","2023-07-30T17:25:00","120","2023/07/30","17:25:00","0","0","0.0","13","300","64","34","-372","-951","-26612","1","150","149.64","118.94","30.69","30.46","27.6","9.70","0","0.00","DUALSPOT-UV-BLUE-GREEN-RED-IR","508048","580155","905085","46.587676","21.587566","0.015343","545631","773700","764295","33.983036","14.779188","0.019463","646061","799929","814278","28.405302","11.886160","0.022101","674326","840569","862042","22.809776","9.135021","0.025770","618715","799674","952145","15.063740","5.512237","0.033183","4439","10409","15564","4828","10158","14260","4916","9738","13208","5132","9520","12451","5370","8773","10737","DualSpot on"
"MA200-0416","53474","114","1","1.10","1.6","2023-07-30T17:30:00","120","2023/07/30","17:30:00","0","0","0.0","14","300","64","33","-368","-1132","-26456","1","150","149.67","119.09","30.59","30.34","27.6","9.59","0","0.00","DUALSPOT-UV-BLUE-GREEN-RED-IR","505705","579485","909536","47.545220","22.192360","0.015404","539040","767222","761626","34.851540","15.272123","0.019595","642896","798937","816724","29.198840","12.311765","0.022364","667157","834477","858813","23.505436","9.484741","0.026212","614213","796218","950260","15.595661","5.746023","0.033964","4722","11614","17647","5406","11947","17050","5532","11553","15942","5860","11471","15267","6239","10678","13267","DualSpot on"
"MA200-0416","53475","114","1","1.10","1.6","2023-07-30T17:35:00","120","2023/07/30","17:35:00","0","0","0.0","14","300","64","33","-425","-1166","-26491","1","150","149.84","118.86","30.98","30.23","27.7","9.52","89408","29.63","DUALSPOT-UV-BLUE-GREEN-RED-IR","498054","572771","904576","48.517692","22.810940","0.015068","535105","764465","762677","35.717224","15.768559","0.019106","636169","793450","814619","29.990430","12.739898","0.021722","663974","833377","860671","24.200124","9.836587","0.025362","612808","796719","953102","16.121449","5.980339","0.032884","4805","11727","17869","5399","11878","17000","5529","11472","15862","5863","11393","15181","6179","10565","13151","DualSpot on"
"MA200-0416","53476","114","1","1.10","1.6","2023-07-30T17:40:00","120","2023/07/30","17:40:00","0","0","0.0","15","300","64","33","-388","-1200","-26347","1","150","149.95","118.76","31.19","30.11","27.8","9.50","89412","29.44","DUALSPOT-UV-BLUE-GREEN-RED-IR","497092","573486","911364","49.455456","23.430282","0.015008","533438","764788","766874","36.572256","16.272594","0.018911","630419","789058","813658","30.778252","13.176176","0.021435","662945","834869","865335","24.892228","10.196187","0.025057","608987","794000","952147","16.647488","6.221168","0.032603","4637","11664","17990","5337","11981","17307","5507","11614","16186","5846","11568","15538","6187","10787","13532","DualSpot on"
"MA200-0416","53477","114","1","1.10","1.6","2023-07-30T17:45:00","120","2023/07/30","17:45:00","0","0","0.0","15","300","64","33","-356","-1016","-26644","1","150","149.55","118.38","31.17","30.00","27.9","9.45","89416","29.38","DUALSPOT-UV-BLUE-GREEN-RED-IR","491037","568118","907967","50.311552","24.001046","0.014818","527927","759191","764677","37.333136","16.724056","0.018596","628169","788638","816339","31.469098","13.561677","0.021066","656373","829006","861924","25.499232","10.510929","0.024412","605251","791074","950557","17.097518","6.427709","0.031788","4247","10755","16691","4764","10737","15583","4845","10267","14374","5144","10130","13627","5310","9256","11633","DualSpot on"
"MA200-0416","53478","114","1","1.10","1.6","2023-07-30T17:50:00","120","2023/07/30","17:50:00","0","0","0.0","15","300","64","32","-426","-1046","-26450","1","150","149.62","118.64","30.98","29.89","28.2","9.49","89420","29.25","DUALSPOT-UV-BLUE-GREEN-RED-IR","484587","562274","903810","51.178364","24.578990","0.014641","522468","753613","762371","38.066696","17.156664","0.018288","622841","784263","814812","32.130150","13.926425","0.020625","655176","829791","865357","26.074434","10.806525","0.023897","605234","792922","954648","17.525474","6.618730","0.030395","4291","10957","17117","4583","10352","15085","4625","9775","13714","4864","9573","12906","5039","8613","10783","DualSpot on"
"MA200-0416","53479","114","1","1.10","1.6","2023-07-30T17:55:00","120","2023/07/30","17:55:00","0","0","0.0","15","300","64","32","-370","-1062","-26575","1","150","149.91","118.25","31.66","29.77","28.3","9.46","89428","29.19","DUALSPOT-UV-BLUE-GREEN-RED-IR","482368","561601","909138","52.220412","25.282952","0.014304","519104","751433","764300","38.968092","17.698222","0.017835","616918","779563","813703","32.950092","14.389557","0.020128","648807","824500","863079","26.791088","11.183934","0.023290","601119","789824","953300","18.069722","6.870210","0.029846","5176","13058","20456","5651","12679","18527","5757","12143","17094","6080","11958","16170","6429","11094","13956","DualSpot on"
"MA200-0416","53480","114","1","1.10","1.6","2023-07-30T18:00:00","120","2023/07/30","18:00:00","0","0","0.0","15","300","64","32","-376","-1088","-26532","1","150","149.53","118.42","31.11","29.65","28.6","9.50","89424","29.06","DUALSPOT-UV-BLUE-GREEN-RED-IR","476376","556210","905816","53.100676","25.880608","0.014229","513877","746079","762227","39.712276","18.145278","0.017708","614844","779245","816405","33.620988","14.765897","0.019910","646842","824285","865495","27.376586","11.490753","0.023071","597063","786384","951040","18.505208","7.070251","0.029604","4366","11284","17863","4658","10654","15698","4703","10044","14226","4960","9895","13465","5137","8983","11361","DualSpot on"
"MA200-0416","53481","114","1","1.10","1.6","2023-07-30T18:05:00","120","2023/07/30","18:05:00","0","0","0.0","15","300","64","31","-360","-980","-26180","1","150","150.49","119.25","31.24","29.54","29.0","9.61","89432","28.94","DUALSPOT-UV-BLUE-GREEN-RED-IR","472264","552922","905988","53.988100","26.492694","0.014119","510267","742988","762416","40.439980","18.583960","0.017471","608716","773682","813552","34.271532","15.133730","0.019688","639810","817527","860984","27.939796","11.787080","0.022749","596466","787387","954084","18.925464","7.260814","0.028667","4370","11508","18385","4523","10410","15415","4529","9775","13924","4738","9516","13003","4923","8521","10761","DualSpot on"
"MA200-0416","53482","114","1","1.10","1.6","2023-07-30T18:10:00","120","2023/07/30","18:10:00","0","0","0.0","13","300","64","31","-450","-1100","-26523","1","150","150.11","117.96","32.15","29.43","29.3","9.67","89436","28.81","DUALSPOT-UV-BLUE-GREEN-RED-IR","467711","549025","905020","54.856972","27.096916","0.013745","505895","738683","761377","41.166116","19.030334","0.017006","607361","774101","817063","34.926668","15.510081","0.019063","639907","819815","865994","28.509510","12.091162","0.021908","593476","785234","953350","19.351932","7.460123","0.027782","4326","11037","17588","4563","10291","15216","4611","9717","13797","4845","9488","12907","5050","8659","10923","DualSpot on"
"MA200-0416","53483","114","1","1.10","1.6","2023-07-30T18:15:00","120","2023/07/30","18:15:00","0","0","0.0","13","300","64","30","-380","-961","-26319","1","150","149.66","118.13","31.53","29.32","29.5","9.71","89448","28.75","DUALSPOT-UV-BLUE-GREEN-RED-IR","465835","548033","908463","55.643332","27.659024","0.013827","504171","737973","763853","41.830412","19.453562","0.017251","602759","770089","815789","35.531200","15.872333","0.019484","634426","814728","863132","29.039582","12.386307","0.022535","590110","782370","951706","19.753788","7.655145","0.028949","3910","10470","16954","4168","9949","14975","4248","9537","13807","4502","9390","13026","4752","8639","11099","DualSpot on"
"MA200-0416","53484","114","1","1.10","1.6","2023-07-30T18:20:00","120","2023/07/30","18:20:00","0","0","0.0","13","300","64","30","-404","-1120","-26603","1","150","149.91","118.51","31.40","29.22","29.7","9.69","89456","28.63","DUALSPOT-UV-BLUE-GREEN-RED-IR","461483","543803","905115","56.211784","28.063508","0.013715","500566","734038","762237","42.336368","19.773110","0.017052","598480","766063","813731","35.992080","16.144211","0.019166","633767","815350","865762","29.445112","12.609305","0.022172","590449","784062","955181","20.057670","7.800173","0.028282","2817","7565","12300","3165","7543","11381","3228","7188","10409","3433","7124","9889","3582","6451","8278","DualSpot on"
"MA200-0416","53485","114","1","1.10","1.6","2023-07-30T18:25:00","120","2023/07/30","18:25:00","0","0","0.0","13","300","64","29","-412","-1084","-26436","1","150","149.90","118.18","31.72","29.12","29.8","9.69","89464","28.50","DUALSPOT-UV-BLUE-GREEN-RED-IR","459075","542028","906629","56.899896","28.558162","0.013553","498092","732033","763210","42.962208","20.171968","0.016795","596493","765283","815701","36.566044","16.487564","0.018902","626900","808288","860662","29.949786","12.889295","0.021769","586581","780482","952544","20.440620","7.983869","0.027576","3419","9160","14944","3925","9322","14098","4032","8987","13056","4284","8856","12310","4526","8090","10374","DualSpot on"
"MA200-0416","53486","114","1","1.10","1.6","2023-07-30T18:30:00","120","2023/07/30","18:30:00","0","0","0.0","13","300","64","29","-427","-1056","-26236","1","150","150.20","118.11","32.09","29.02","30.0","9.68","89476","28.44","DUALSPOT-UV-BLUE-GREEN-RED-IR","456159","539418","905790","57.445288","28.948318","0.013353","495148","729000","762346","43.443632","20.478426","0.016518","593788","763170","815580","37.007496","16.750332","0.018514","629272","812798","867293","30.339622","13.105100","0.021301","584896","779427","952563","20.733558","8.122514","0.026509","2712","7142","11642","3021","7080","10700","3102","6799","9855","3311","6747","9361","3464","6036","7692","DualSpot on"
"MA200-0416","53487","114","1","1.10","1.6","2023-07-30T18:35:00","120","2023/07/30","18:35:00","0","0","0.0","13","300","64","29","-368","-1212","-26784","1","150","149.40","118.25","31.15","28.92","30.2","9.69","0","0.00","DUALSPOT-UV-BLUE-GREEN-RED-IR","454115","537721","906298","57.953956","29.320740","0.013505","493538","727821","763258","43.885036","20.760348","0.016635","589139","758401","812381","37.408664","16.988390","0.018619","622894","805853","861526","30.689128","13.297142","0.021412","584587","780118","954606","20.995460","8.244879","0.026685","2526","7022","11626","2767","6709","10249","2816","6345","9280","2965","6185","8647","3093","5487","7035","DualSpot on"
"MA200-0416","53488","114","1","1.10","1.6","2023-07-30T18:40:00","120","2023/07/30","18:40:00","0","0","0.0","13","300","64","29","-372","-888","-26719","1","150","149.63","118.02","31.61","28.83","30.4","9.69","0","0.00","DUALSPOT-UV-BLUE-GREEN-RED-IR","450584","534491","905321","58.627756","29.815166","0.013299","490434","724666","762655","44.434868","21.110582","0.016297","589067","759871","816420","37.904012","17.280942","0.018175","624129","809026","867012","31.125592","13.533769","0.020702","582649","778847","954472","21.316670","8.396128","0.026066","3353","9186","15222","3453","8213","12520","3484","7683","11201","3710","7509","10432","3802","6683","8556","DualSpot on"
"MA200-0416","53489","114","1","1.10","1.6","2023-07-30T18:45:00","120","2023/07/30","18:45:00","0","0","0.0","13","300","68","29","-370","-1083","-26316","2","150","150.42","116.92","33.50","28.74","31.0","9.93","89488","28.19","DUALSPOT-UV-BLUE-GREEN-RED-IR","808097","715001","907180","0.000000","0.000000","0.000000","769765","891666","763028","0.000000","0.000000","0.000000","866472","899711","816999","0.000000","0.000000","0.000000","857052","921586","867002","0.000000","0.000000","0.000000","726395","844982","953557","0.000000","0.000000","0.000000","","","","","","","","","","","","","","","","Tape advance-DualSpot on"
"MA200-0416","53490","114","1","1.10","1.6","2023-07-30T18:50:00","120","2023/07/30","18:50:00","0","0","0.0","13","300","68","29","-411","-1091","-26466","2","150","150.43","117.16","33.27","28.60","31.3","9.95","89492","28.00","DUALSPOT-UV-BLUE-GREEN-RED-IR","793128","712302","909550","0.000000","0.000000","0.000000","762013","890810","765259","0.000000","0.000000","0.000000","855106","894373","814647","0.000000","0.000000","0.000000","845659","914338","862203","0.000000","0.000000","0.000000","720909","841540","950908","0.000000","0.000000","0.000000","","","","","","","","","","","","","","","","Tape advance-DualSpot on"
"MA200-0416","53491","114","1","1.10","1.6","2023-07-30T18:55:00","120","2023/07/30","18:55:00","0","0","0.0","13","300","64","28","-400","-1108","-26556","2","150","149.35","116.93","32.42","28.50","31.5","9.95","89496","27.94","DUALSPOT-UV-BLUE-GREEN-RED-IR","775438","705900","906930","1.965454","0.613447","0.000000","750052","884564","762871","1.268790","0.389593","0.000000","849812","895117","817823","1.012426","0.308394","0.000000","842428","915820","865653","0.777575","0.234538","0.000000","720601","844072","955061","0.483020","0.136677","0.000000","9872","11115","9872","8043","8909","8043","7188","7898","7188","6671","7258","6671","5770","5889","5770","DualSpot on"
"MA200-0416","53492","114","1","1.10","1.6","2023-07-30T19:00:00","120","2023/07/30","19:00:00","0","0","0.0","13","300","64","27","-412","-1076","-26432","2","150","150.68","117.69","32.99","28.39","31.6","9.93","89492","27.81","DUALSPOT-UV-BLUE-GREEN-RED-IR","762226","703019","908744","3.891128","1.226596","0.042575","741978","882782","764327","2.537225","0.780307","0.000000","839371","890382","816037","2.028638","0.615722","0.000000","833686","911281","863365","1.559182","0.468272","0.000000","715913","841570","953520","0.972026","0.270908","0.000000","9610","10917","11518","7989","8780","7989","7168","7734","7168","6662","7108","6662","5804","5684","5804","DualSpot on"
"MA200-0416","53493","114","1","1.10","1.6","2023-07-30T19:05:00","120","2023/07/30","19:05:00","0","0","0.0","13","300","64","28","-420","-1052","-26475","2","150","149.90","117.78","32.12","28.28","31.9","9.94","0","0.00","DUALSPOT-UV-BLUE-GREEN-RED-IR","743618","695276","904718","5.921957","1.889751","0.037977","729913","876470","762065","3.884340","1.204395","0.047111","828191","885103","813922","3.108370","0.950038","0.052538","828802","911240","865484","2.393699","0.721270","0.000000","710167","838011","950881","1.498928","0.416340","0.000000","10127","12128","13066","8478","9789","10378","7611","8642","9096","7108","7903","7108","6249","6325","6249","DualSpot on"
"MA200-0416","53494","114","1","1.10","1.6","2023-07-30T19:10:00","120","2023/07/30","19:10:00","0","0","0.0","13","300","64","27","-392","-996","-26436","2","150","149.86","117.08","32.78","28.18","31.9","9.89","0","0.00","DUALSPOT-UV-BLUE-GREEN-RED-IR","733534","693691","907974","7.649580","2.476614","0.031368","723173","875510","764264","5.105267","1.602637","0.038016","822698","885232","816613","4.109848","1.268243","0.039761","819240","905585","862258","3.182119","0.968128","0.045739","709486","840261","954762","2.003366","0.558303","0.000000","8666","10517","11402","7730","9007","9592","7101","8060","8488","6755","7556","7906","6018","6050","6018","DualSpot on"
"MA200-0416","53495","114","1","1.10","1.6","2023-07-30T19:15:00","120","2023/07/30","19:15:00","0","0","0.0","13","300","64","27","-384","-1012","-26472","2","150","150.20","117.85","32.35","28.09","32.0","9.86","89504","27.50","DUALSPOT-UV-BLUE-GREEN-RED-IR","720579","688187","905621","9.167919","3.016554","0.033356","713735","870096","762255","6.154807","1.961123","0.042893","814858","881832","815818","4.964861","1.552475","0.047329","817987","908310","866712","3.845111","1.182955","0.053782","705889","838455","953891","2.420908","0.680798","0.000000","7567","9803","10900","6601","8215","8970","6023","7294","7873","5644","6662","7115","4949","5289","4949","DualSpot on"
"MA200-0416","53496","114","1","1.10","1.6","2023-07-30T19:20:00","120","2023/07/30","19:20:00","0","0","0.0","13","300","64","26","-420","-1136","-26488","2","150","150.01","117.34","32.67","27.99","32.2","9.83","89508","27.44","DUALSPOT-UV-BLUE-GREEN-RED-IR","709654","685086","907180","10.867149","3.633533","0.028852","706380","868020","763651","7.368007","2.378636","0.035072","803877","875826","812951","5.969233","1.887495","0.037611","806089","899885","860904","4.639084","1.442128","0.043122","699720","834174","950480","2.937280","0.832509","0.000000","8506","11092","12391","7665","9473","10335","7106","8513","9164","6788","7958","8486","6147","6486","6147","DualSpot on"
"MA200-0416","53497","114","1","1.10","1.6","2023-07-30T19:25:00","120","2023/07/30","19:25:00","0","0","0.0","13","300","64","26","-380","-1108","-26528","2","150","150.66","117.14","33.52","27.94","32.2","9.81","89512","27.38","DUALSPOT-UV-BLUE-GREEN-RED-IR","697572","680809","907279","12.595245","4.273868","0.024503","697908","864582","763922","8.611589","2.814286","0.029014","799702","877225","817131","7.002573","2.237838","0.030503","799742","897703","861132","5.460007","1.710254","0.031270","696031","832925","950560","3.475057","0.992158","0.014332","8664","11220","12532","7869","9634","10491","7323","8677","9312","7030","8025","8478","6413","6653","6749","DualSpot on"
"MA200-0416","53498","114","1","1.10","1.6","2023-07-30T19:30:00","120","2023/07/30","19:30:00","0","0","0.0","13","300","64","26","-400","-1072","-26456","2","150","150.05","117.15","32.90","27.84","32.3","9.78","89524","27.31","DUALSPOT-UV-BLUE-GREEN-RED-IR","687796","678362","910042","14.311331","4.935976","0.025383","691152","862883","765773","9.826519","3.251033","0.030018","790220","872560","815646","8.012497","2.589333","0.032592","797178","899640","865289","6.261305","1.979744","0.035788","695372","835134","954593","3.995048","1.150076","0.025654","8603","11819","13512","7687","9840","10904","7157","8869","9686","6862","8217","8843","6200","6704","6908","DualSpot on"
"MA200-0416","53499","114","1","1.10","1.6","2023-07-30T19:35:00","120","2023/07/30","19:35:00","0","0","0.0","13","300","64","25","-388","-1088","-26588","2","150","150.42","117.42","33.00","27.75","32.4","9.76","89532","27.25","DUALSPOT-UV-BLUE-GREEN-RED-IR","675212","672680","908261","15.962278","5.582060","0.023573","681995","857878","764659","11.009825","3.683185","0.028180","781385","868341","814529","9.000366","2.937853","0.030528","788533","894516","862703","7.051403","2.249158","0.033806","690806","832678","953280","4.513817","1.307128","0.021686","8258","11498","13240","7470","9707","10831","6984","8767","9631","6750","8189","8863","6171","6647","6841","DualSpot on"
"MA200-0416","53500","114","1","1.10","1.6","2023-07-30T19:40:00","120","2023/07/30","19:40:00","0","0","0.0","14","300","64","25","-405","-1045","-26464","2","150","150.27","116.98","33.30","27.67","32.7","9.79","89536","27.13","DUALSPOT-UV-BLUE-GREEN-RED-IR","659420","665338","905677","18.037530","6.390198","0.020130","670297","851311","762894","12.512952","4.223543","0.022709","774403","867753","817578","10.267465","3.374589","0.023285","783718","895273","866375","8.083597","2.590227","0.023681","684991","829759","951920","5.217071","1.517268","0.012575","10420","14256","16360","9525","12030","13307","8993","10889","11818","8852","10277","10948","8398","8816","8988","DualSpot on"
"MA200-0416","53501","114","1","1.10","1.6","2023-07-30T19:45:00","120","2023/07/30","19:45:00","0","0","0.0","14","300","64","24","-456","-1024","-26319","2","150","149.63","117.62","32.01","27.59","32.9","9.84","89544","27.06","DUALSPOT-UV-BLUE-GREEN-RED-IR","651221","663687","909587","19.728462","7.076593","0.021995","664125","849966","765187","13.744534","4.684298","0.026368","765611","863595","816641","11.305091","3.745986","0.028339","775704","890974","864712","8.928696","2.880221","0.031141","680345","827393","950889","5.791626","1.695578","0.028593","8443","12594","14916","7762","10670","12174","7324","9632","10776","7208","9089","9984","6823","7781","8178","DualSpot on"
"MA200-0416","53502","114","1","1.10","1.6","2023-07-30T19:50:00","120","2023/07/30","19:50:00","0","0","0.0","13","300","64","24","-440","-867","-26408","2","150","150.01","117.67","32.34","27.53","33.1","9.84","89548","27.00","DUALSPOT-UV-BLUE-GREEN-RED-IR","641469","658420","907158","20.975124","7.604656","0.021894","656610","845281","763810","14.697924","5.056613","0.026596","758642","860082","815770","12.116949","4.049403","0.028959","768889","886920","862796","9.591065","3.116918","0.032102","680736","830374","955651","6.237106","1.834624","0.025861","6222","9591","11507","6006","8535","9861","5728","7789","8824","5647","7343","8159","5288","6006","6305","DualSpot on"
"MA200-0416","53503","114","1","1.10","1.6","2023-07-30T19:55:00","120","2023/07/30","19:55:00","0","0","0.0","13","300","64","24","-475","-1092","-26403","2","150","149.40","117.50","31.90","27.45","33.2","9.83","89556","26.88","DUALSPOT-UV-BLUE-GREEN-RED-IR","632786","653652","905026","22.105752","8.095527","0.021986","649917","841012","762580","15.567077","5.401158","0.026557","751885","856357","814549","12.857016","4.329342","0.028957","767313","888529","866265","10.193617","3.333855","0.032030","676983","828095","954272","6.642246","1.964173","0.030360","5651","9038","10995","5483","8007","9348","5229","7286","8330","5144","6823","7638","4816","5673","6033","DualSpot on"
"MA200-0416","53504","114","1","1.10","1.6","2023-07-30T20:00:00","120","2023/07/30","20:00:00","0","0","0.0","13","300","64","23","-392","-1180","-26496","2","150","149.76","117.50","32.26","27.40","33.3","9.84","89572","26.81","DUALSPOT-UV-BLUE-GREEN-RED-IR","629377","654069","909984","23.190822","8.579514","0.021466","643284","836472","760990","16.388437","5.737948","0.026334","749248","857021","817381","13.556412","4.602587","0.028796","761129","884511","864179","10.762351","3.545683","0.032255","673192","825578","952565","7.024830","2.090233","0.031557","5423","8811","10800","5182","7738","9116","4941","7031","8106","4856","6587","7438","4548","5458","5843","DualSpot on"
"MA200-0416","53505","114","1","1.10","1.6","2023-07-30T20:05:00","120","2023/07/30","20:05:00","0","0","0.0","14","300","64","23","-448","-1072","-26252","2","150","149.92","117.24","32.69","27.35","33.3","9.80","89584","26.75","DUALSPOT-UV-BLUE-GREEN-RED-IR","621637","649593","907792","24.185456","9.026066","0.020398","641317","837697","764538","17.157708","6.055480","0.024836","743496","853812","816441","14.212281","4.861391","0.027227","755363","880760","862237","11.296646","3.745425","0.029895","669994","823594","951377","7.381767","2.208094","0.028209","4983","8024","9835","4864","7201","8476","4644","6573","7576","4572","6130","6903","4253","5037","5371","DualSpot on"
"MA200-0416","53506","114","1","1.10","1.6","2023-07-30T20:10:00","120","2023/07/30","20:10:00","0","0","0.0","14","300","64","23","-404","-1124","-26347","2","150","150.23","117.50","32.72","27.28","33.4","9.77","0","0.00","DUALSPOT-UV-BLUE-GREEN-RED-IR","613515","644706","905110","25.205528","9.483269","0.019605","634560","832757","762544","17.955530","6.383460","0.023662","737492","850427","815406","14.896410","5.129927","0.025805","755497","884012","867249","11.858488","3.955155","0.028506","670803","826766","956260","7.766292","2.333954","0.025798","5099","8206","10080","5033","7429","8751","4833","6812","7852","4797","6429","7247","4571","5372","5716","DualSpot on"
"MA200-0416","53507","114","1","1.10","1.6","2023-07-30T20:15:00","120","2023/07/30","20:15:00","0","0","0.0","13","300","64","22","-416","-1120","-26528","2","150","150.11","117.31","32.80","27.24","33.5","9.77","0","0.00","DUALSPOT-UV-BLUE-GREEN-RED-IR","610342","645337","910569","26.327480","9.989494","0.018887","628148","828644","761594","18.846382","6.752753","0.022777","731368","847299","814885","15.664133","5.432720","0.024642","749365","880340","865680","12.495831","4.193652","0.027004","667233","824790","955352","8.207718","2.479398","0.024808","5617","9065","11173","5629","8346","9863","5433","7664","8848","5450","7295","8226","5256","6194","6600","DualSpot on"
"MA200-0416","53508","114","1","1.10","1.6","2023-07-30T20:20:00","120","2023/07/30","20:20:00","0","0","0.0","13","300","64","22","-380","-1000","-26312","2","150","149.80","117.17","32.63","27.19","33.5","9.75","89592","26.63","DUALSPOT-UV-BLUE-GREEN-RED-IR","602876","641046","908697","27.353650","10.449650","0.018164","626350","830160","765458","19.636298","7.078253","0.021826","725460","843923","813758","16.340063","5.697882","0.023595","743449","876377","863557","13.047355","4.399687","0.026060","663815","822660","954079","8.589283","2.603816","0.022926","5144","8283","10223","4997","7395","8746","4789","6746","7794","4722","6335","7155","4549","5326","5664","DualSpot on"
"MA200-0416","53509","114","1","1.10","1.6","2023-07-30T20:25:00","120","2023/07/30","20:25:00","0","0","0.0","12","300","64","22","-424","-1060","-26428","2","150","150.27","117.50","32.77","27.15","33.6","9.74","89600","26.56","DUALSPOT-UV-BLUE-GREEN-RED-IR","597544","638089","907920","28.161750","10.833130","0.018917","621537","826786","764450","20.283196","7.360011","0.023100","725026","846166","817818","16.895974","5.927510","0.025191","739050","873660","862421","13.505719","4.578912","0.028001","661782","821835","954157","8.903782","2.710976","0.027148","4039","6873","8644","4081","6373","7679","3927","5817","6838","3913","5486","6293","3739","4568","4930","DualSpot on"
"MA200-0416","53510","114","1","1.10","1.6","2023-07-30T20:30:00","120","2023/07/30","20:30:00","0","0","0.0","12","300","64","21","-420","-1080","-26460","2","150","150.01","117.67","32.34","27.11","33.6","9.71","89604","26.56","DUALSPOT-UV-BLUE-GREEN-RED-IR","591989","634561","906275","28.910186","11.199158","0.019369","616924","823372","763403","20.885156","7.627767","0.023630","720513","843410","816966","17.415074","6.147338","0.026147","734891","870971","861266","13.934674","4.752463","0.029958","658864","819766","952726","9.195469","2.812350","0.030014","3735","6648","8489","3792","6138","7487","3662","5643","6724","3657","5384","6278","3462","4379","4782","DualSpot on"
"MA200-0416","53511","114","1","1.10","1.6","2023-07-30T20:35:00","120","2023/07/30","20:35:00","0","0","0.0","12","300","64","21","-152","-1052","-26552","2","150","149.84","117.55","32.29","27.09","33.7","9.75","89608","26.50","DUALSPOT-UV-BLUE-GREEN-RED-IR","580640","628662","905566","30.764588","12.055309","0.017167","606130","816677","762557","22.538338","8.334571","0.020804","709794","838249","816927","18.905524","6.756974","0.022856","725175","866293","860995","15.226210","5.254072","0.025429","652433","817001","952747","10.172714","3.154239","0.027908","9266","15573","19637","10426","16226","19630","10527","15674","18537","11023","15584","17988","11613","14790","16218","DualSpot on"
"MA200-0416","53512","114","1","1.10","1.6","2023-07-30T20:40:00","120","2023/07/30","20:40:00","0","0","0.0","12","300","64","21","-296","-1132","-26416","2","150","150.08","117.13","32.95","27.08","33.9","9.81","0","0.00","DUALSPOT-UV-BLUE-GREEN-RED-IR","578275","629303","910867","31.760150","12.539669","0.017209","600582","812944","761871","23.370092","8.703613","0.020501","704008","834934","816202","19.641614","7.066417","0.022185","724937","869287","866071","15.853550","5.503834","0.024524","648734","814724","951623","10.628864","3.313969","0.024685","4992","8634","11010","5264","8303","10106","5217","7797","9246","5373","7605","8791","5440","6772","7375","DualSpot on"
"MA200-0416","53513","114","1","1.10","1.6","2023-07-30T20:45:00","120","2023/07/30","20:45:00","0","0","0.0","12","300","64","20","-320","-1116","-26456","2","150","150.29","117.58","32.71","27.07","34.0","9.84","0","0.00","DUALSPOT-UV-BLUE-GREEN-RED-IR","573400","626371","910262","32.541092","12.938629","0.017864","596461","810066","761398","24.005502","8.999353","0.021597","699626","832334","815637","20.197978","7.310653","0.023531","721139","867045","865500","16.317564","5.695701","0.026206","646299","813391","951204","10.957851","3.432125","0.027158","3901","7163","9317","4006","6702","8319","3928","6198","7486","3959","5884","6917","3908","5045","5564","DualSpot on"
"MA200-0416","53514","114","1","1.10","1.6","2023-07-30T20:50:00","120","2023/07/30","20:50:00","0","0","0.0","12","300","64","19","-528","-1352","-26340","2","150","149.87","117.04","32.82","27.06","33.9","9.81","0","0.00","DUALSPOT-UV-BLUE-GREEN-RED-IR","567474","622065","907326","33.262882","13.309219","0.017458","595290","811054","764385","24.588788","9.269709","0.020809","695074","829288","814437","20.706472","7.533557","0.022676","715828","862801","862791","16.743862","5.870599","0.024856","643190","811031","949461","11.258419","3.540541","0.026161","3622","6631","8638","3694","6105","7565","3606","5637","6799","3654","5345","6259","3587","4614","5085","DualSpot on"
"MA200-0416","53515","114","1","1.10","1.6","2023-07-30T20:55:00","120","2023/07/30","20:55:00","0","0","0.0","12","300","64","19","-384","-1176","-26480","2","150","150.13","116.92","33.21","27.05","33.9","9.80","0","0.00","DUALSPOT-UV-BLUE-GREEN-RED-IR","562502","619129","906811","34.066172","13.716335","0.016663","591028","808211","764096","25.256262","9.576946","0.019793","690702","826875","814183","21.292618","7.788254","0.021377","711708","860388","862150","17.235986","6.071720","0.023432","644757","814889","955170","11.609547","3.665420","0.023193","4035","7200","9333","4232","6858","8462","4162","6367","7639","4222","6076","7084","4195","5253","5741","DualSpot on"
"MA200-0416","53516","114","1","1.10","1.6","2023-07-30T21:00:00","120","2023/07/30","21:00:00","0","0","0.0","12","300","64","19","-396","-1096","-26452","2","150","149.91","116.67","33.24","27.01","33.8","9.72","89612","26.44","DUALSPOT-UV-BLUE-GREEN-RED-IR","556843","616008","906937","35.106372","14.242023","0.016112","585464","804371","763570","26.148010","9.990692","0.019286","685266","823935","814146","22.084138","8.139086","0.021198","707227","858322","862449","17.910692","6.355470","0.023710","637642","808364","949263","12.106297","3.850031","0.025496","5236","9289","12055","5666","9227","11430","5632","8763","10590","5801","8564","10084","5947","7758","8603","DualSpot on"
"MA200-0416","53517","114","1","1.10","1.6","2023-07-30T21:05:00","120","2023/07/30","21:05:00","0","0","0.0","12","300","64","18","-528","-1016","-26488","2","150","149.55","116.63","32.92","26.99","33.8","9.68","89620","26.38","DUALSPOT-UV-BLUE-GREEN-RED-IR","552783","613345","906098","35.752112","14.585155","0.016740","582326","802221","763530","26.685258","10.252177","0.020254","681611","821587","813523","22.555264","8.354498","0.021994","703402","855578","861185","18.304738","6.524904","0.024501","639212","811775","954247","12.381607","3.953630","0.026538","3252","6122","8099","3414","5888","7431","3353","5432","6655","3389","5163","6146","3297","4396","4911","DualSpot on"
"MA200-0416","53518","114","1","1.10","1.6","2023-07-30T21:10:00","120","2023/07/30","21:10:00","0","0","0.0","12","300","64","18","-416","-1168","-26475","2","150","149.73","116.28","33.45","26.96","33.9","9.71","0","0.00","DUALSPOT-UV-BLUE-GREEN-RED-IR","549862","611797","906806","36.354340","14.914356","0.016621","579753","800723","764006","27.183436","10.498082","0.019808","679218","820610","814257","22.991944","8.558161","0.021637","701699","855236","862208","18.670424","6.685060","0.024036","638413","812014","955468","12.637310","4.050632","0.025275","3041","5780","7686","3175","5450","6881","3117","5055","6204","3155","4803","5723","3071","4051","4513","DualSpot on"
"MA200-0416","53519","114","1","1.10","1.6","2023-07-30T21:15:00","120","2023/07/30","21:15:00","0","0","0.0","13","300","64","18","-435","-963","-26175","2","150","149.67","117.35","32.32","26.96","34.1","9.83","0","0.00","DUALSPOT-UV-BLUE-GREEN-RED-IR","546282","609559","906654","36.991032","15.263065","0.016958","576590","798486","763796","27.704308","10.753214","0.020211","676070","818867","814226","23.452074","8.769251","0.021975","699033","853879","862321","19.059988","6.853116","0.024623","636752","811345","955675","12.914700","4.154934","0.027104","3186","6337","8550","3290","5852","7477","3255","5422","6716","3330","5216","6275","3302","4508","5080","DualSpot on"
"MA200-0416","53520","114","1","1.10","1.6","2023-07-30T21:20:00","120","2023/07/30","21:20:00","0","0","0.0","13","300","64","17","-396","-1152","-26356","2","150","150.42","117.41","33.00","26.97","34.2","9.85","89632","26.38","DUALSPOT-UV-BLUE-GREEN-RED-IR","542962","607508","906745","37.617384","15.611729","0.016649","573670","796507","763895","28.223874","11.012733","0.019851","673192","817373","814457","23.911688","8.983285","0.021439","696472","852699","862556","19.456498","7.022239","0.022995","634868","810406","955583","13.203251","4.259964","0.022974","3133","6205","8384","3280","5829","7460","3249","5384","6668","3388","5141","6131","3433","4445","4927","DualSpot on"
"MA200-0416","53521","114","1","1.10","1.6","2023-07-30T21:25:00","120","2023/07/30","21:25:00","0","0","0.0","12","300","64","16","-384","-1040","-26556","2","150","149.59","116.71","32.88","26.96","34.1","9.81","89628","26.31","DUALSPOT-UV-BLUE-GREEN-RED-IR","540283","605959","907175","38.152916","15.912567","0.016521","571433","795171","764355","28.675846","11.241091","0.019743","670616","815959","814624","24.312634","9.173567","0.021539","693806","851039","862167","19.795064","7.171467","0.023721","632964","809181","955002","13.445488","4.353451","0.026298","2695","5374","7290","2870","5148","6617","2852","4804","5987","2910","4553","5486","2899","3971","4485","DualSpot on"
"MA200-0416","53522","114","1","1.10","1.6","2023-07-30T21:30:00","120","2023/07/30","21:30:00","0","0","0.0","13","300","64","16","-568","-1248","-26319","2","150","149.42","116.80","32.61","26.98","34.2","9.86","89620","26.38","DUALSPOT-UV-BLUE-GREEN-RED-IR","536751","603571","906512","38.738700","16.236324","0.016204","568266","792669","763784","29.156828","11.481369","0.019396","667700","814228","814509","24.733822","9.372895","0.021350","691975","850473","862946","20.150630","7.329142","0.023838","628052","804145","949985","13.702484","4.450548","0.025060","2945","5830","7912","3052","5461","7026","2993","5074","6343","3054","4850","5877","3073","4159","4681","DualSpot on"
"MA200-0416","53523","114","1","1.10","1.6","2023-07-30T21:35:00","120","2023/07/30","21:35:00","0","0","0.0","13","300","64","15","-448","-1128","-26112","2","150","149.53","116.46","33.07","26.98","34.3","9.90","89620","26.38","DUALSPOT-UV-BLUE-GREEN-RED-IR","534281","602226","907210","39.274956","16.537216","0.015983","565873","791073","764003","29.606334","11.711121","0.019242","665059","812684","814538","25.131092","9.564150","0.021049","689218","848671","862409","20.485456","7.478635","0.023147","630165","808106","955557","13.945042","4.542618","0.023895","2704","5344","7265","2861","5151","6649","2832","4802","6012","2884","4535","5485","2909","3889","4363","DualSpot on"
"MA200-0416","53524","114","1","1.10","1.6","2023-07-30T21:40:00","120","2023/07/30","21:40:00","0","0","0.0","13","300","64","15","-452","-1092","-26500","2","150","150.20","116.80","33.40","27.00","34.3","9.94","89608","26.38","DUALSPOT-UV-BLUE-GREEN-RED-IR","531461","600312","906993","39.780600","16.827576","0.015988","563496","789362","764007","30.026938","11.928881","0.019101","662784","811467","814747","25.504914","9.743466","0.020506","687693","848263","863238","20.802166","7.621510","0.022926","628977","807712","955960","14.173012","4.629881","0.023613","2542","5106","6985","2669","4833","6259","2657","4457","5570","2720","4291","5200","2726","3649","4097","DualSpot on"
"MA200-0416","53525","114","1","1.10","1.6","2023-07-30T21:45:00","120","2023/07/30","21:45:00","0","0","0.0","13","300","64","14","-356","-1136","-26456","2","150","150.49","116.54","33.95","27.00","34.4","9.97","89600","26.38","DUALSPOT-UV-BLUE-GREEN-RED-IR","527850","597516","905355","40.279812","17.115852","0.015658","560406","786581","762953","30.444796","12.145579","0.018552","659086","808460","813207","25.873226","9.923932","0.020299","683164","844130","860212","21.114866","7.762596","0.022003","626082","805090","953667","14.397800","4.718179","0.023704","2516","4987","6813","2658","4731","6107","2623","4412","5526","2692","4169","5027","2694","3633","4090","DualSpot on"
"MA200-0416","53526","114","1","1.10","1.6","2023-07-30T21:50:00","120","2023/07/30","21:50:00","0","0","0.0","12","300","64","13","-435","-1060","-26260","2","150","150.11","116.70","33.41","27.01","34.1","9.87","89608","26.38","DUALSPOT-UV-BLUE-GREEN-RED-IR","526432","597090","907125","40.744252","17.382390","0.015626","559005","786121","764085","30.841164","12.351483","0.018678","657883","808453","814563","26.224214","10.094850","0.020312","683580","846003","863308","21.414892","7.898092","0.022313","626142","806224","955827","14.614052","4.801780","0.023467","2337","4686","6433","2517","4568","5939","2496","4247","5343","2579","4068","4939","2588","3495","3939","DualSpot on"
"MA200-0416","53527","114","1","1.10","1.6","2023-07-30T21:55:00","120","2023/07/30","21:55:00","0","0","0.0","12","300","64","13","-460","-1180","-26344","2","150","149.94","116.92","33.02","27.00","34.0","9.80","89600","26.38","DUALSPOT-UV-BLUE-GREEN-RED-IR","524083","595503","907145","41.197624","17.650280","0.015935","556762","784354","763953","31.225368","12.556267","0.019134","655475","806874","814407","26.566984","10.266698","0.021012","681374","844600","863060","21.706688","8.034734","0.023541","624811","805539","955776","14.822906","4.884418","0.025251","2277","4765","6630","2436","4597","6051","2433","4321","5509","2503","4151","5120","2495","3496","3988","DualSpot on"
"MA200-0416","53528","114","1","1.10","1.6","2023-07-30T22:00:00","120","2023/07/30","22:00:00","0","0","0.0","12","300","64","12","-507","-1042","-26576","2","150","149.39","117.22","32.16","26.98","33.9","9.73","89596","26.38","DUALSPOT-UV-BLUE-GREEN-RED-IR","521440","593655","906775","41.664504","17.924636","0.016011","554274","782327","763584","31.624610","12.767744","0.019272","653158","805448","814396","26.921340","10.442953","0.021190","678923","842893","862502","22.007152","8.174123","0.023792","623408","804744","955689","15.037270","4.971628","0.027866","2339","5010","7027","2524","4874","6465","2509","4549","5842","2571","4348","5397","2554","3787","4397","DualSpot on"
"MA200-0416","53529","114","1","1.10","1.6","2023-07-30T22:05:00","120","2023/07/30","22:05:00","0","0","0.0","12","300","64","33","228","5160","-26036","2","150","150.27","117.06","33.21","27.43","33.6","9.98","0","0.00","DUALSPOT-UV-BLUE-GREEN-RED-IR","520564","593680","909187","42.097160","18.184330","0.015741","553556","782647","765423","31.995864","12.969547","0.018953","651998","805300","815607","27.252158","10.611320","0.020744","678270","843352","864134","22.286240","8.305524","0.023000","619372","800458","951330","15.236282","5.050125","0.024198","2170","4593","6435","2351","4504","5973","2346","4209","5397","2391","3969","4907","2374","3302","3761","DualSpot on"
"MA200-0416","53530","114","1","1.10","1.6","2023-07-30T22:10:00","120","2023/07/30","22:10:00","0","0","0.0","13","300","64","36","320","5408","-25847","2","150","149.66","117.17","32.49","28.34","32.7","10.38","0","0.00","DUALSPOT-UV-BLUE-GREEN-RED-IR","518149","592024","908938","42.534120","18.435848","0.015400","551118","780597","764779","32.357590","13.146049","0.017346","647984","801813","813184","27.572862","10.748508","0.017071","675802","841722","863272","22.554274","8.402822","0.014632","618455","800400","951950","15.447552","5.124700","0.018772","2190","4546","6349","2288","4027","5216","2272","3505","4293","2295","3004","3425","2518","3206","3547","DualSpot on"
"MA200-0416","53531","114","1","1.10","1.6","2023-07-30T22:15:00","120","2023/07/30","22:15:00","0","0","0.0","13","300","64","39","276","5724","-25747","2","150","150.03","117.26","32.76","29.17","31.5","10.55","89616","31.50","DUALSPOT-UV-BLUE-GREEN-RED-IR","513775","588035","904860","42.933560","18.665062","0.015160","546916","775991","761425","32.683392","13.304144","0.016952","646580","801447","813764","27.857086","10.864409","0.015422","676393","843844","866091","22.793046","8.478567","0.007778","616273","798674","950557","15.654129","5.193277","0.014031","2000","4108","5730","2059","3577","4618","2012","2936","3527","2042","2319","2483","2460","2923","3153","DualSpot on"
"MA200-0416","53532","114","1","1.10","1.6","2023-07-30T22:20:00","120","2023/07/30","22:20:00","0","0","0.0","13","300","64","40","360","5856","-25616","2","150","149.80","117.43","32.37","29.89","30.6","10.75","89632","32.25","DUALSPOT-UV-BLUE-GREEN-RED-IR","513285","588434","907558","43.325968","18.894642","0.015362","547936","778734","765307","33.003112","13.460660","0.017185","644938","800723","813953","28.138166","10.981173","0.016134","672541","840347","863167","23.025282","8.554971","0.010223","617824","801781","954906","15.858360","5.262737","0.016345","1962","4165","5869","2018","3584","4663","1987","2994","3639","1984","2368","2595","2429","2997","3279","DualSpot on"
"MA200-0416","53533","114","1","1.10","1.6","2023-07-30T22:25:00","120","2023/07/30","22:25:00","0","0","0.0","13","300","64","41","454","5966","-25616","2","150","150.16","116.91","33.26","30.50","29.7","10.80","89632","32.94","DUALSPOT-UV-BLUE-GREEN-RED-IR","510369","586056","906013","43.726212","19.127320","0.014860","543853","774192","762114","33.331612","13.621367","0.016470","644182","801082","815339","28.423310","11.102344","0.015749","674069","843582","867214","23.263822","8.635672","0.009947","616196","800787","954399","16.066704","5.333948","0.014426","2010","4109","5741","2083","3582","4618","2025","3025","3666","2047","2434","2663","2489","2991","3240","DualSpot on"
"MA200-0416","53534","114","1","1.10","1.6","2023-07-30T22:30:00","120","2023/07/30","22:30:00","0","0","0.0","13","300","64","42","416","5820","-24760","2","150","149.76","116.70","33.06","31.01","28.9","10.82","89644","33.44","DUALSPOT-UV-BLUE-GREEN-RED-IR","509362","585866","907877","44.128048","19.366292","0.015002","543271","774635","763815","33.660556","13.791097","0.017284","641989","799646","814940","28.716668","11.234715","0.017178","667860","837066","861276","23.504298","8.727182","0.015022","613398","798187","952018","16.271511","5.408153","0.018105","2022","4245","5983","2089","3805","4996","2087","3323","4118","2067","2776","3195","2451","3135","3475","DualSpot on"
"MA200-0416","53535","114","1","1.10","1.6","2023-07-30T22:35:00","120","2023/07/30","22:35:00","0","0","0.0","13","300","64","44","462","6087","-25520","2","150","149.48","116.54","32.94","31.46","28.2","10.85","89628","33.88","DUALSPOT-UV-BLUE-GREEN-RED-IR","506418","583496","906481","44.550492","19.613808","0.014750","540625","772115","762697","34.006024","13.967145","0.016959","641836","800808","817250","29.020254","11.371886","0.017091","670192","841284","866471","23.760056","8.825898","0.015474","612920","798660","953341","16.487610","5.485533","0.017322","2129","4413","6209","2197","3961","5191","2162","3457","4291","2201","3006","3482","2590","3281","3625","DualSpot on"
"MA200-0416","53536","114","1","1.10","1.6","2023-07-30T22:40:00","120","2023/07/30","22:40:00","0","0","0.0","13","300","64","45","500","6162","-24941","2","150","149.42","117.17","32.24","31.84","27.6","10.84","89632","34.25","DUALSPOT-UV-BLUE-GREEN-RED-IR","506526","584682","910615","44.982328","19.869294","0.014966","540756","773682","765610","34.361252","14.147740","0.017180","637749","797039","814571","29.332548","11.514301","0.017718","665648","836909","862844","24.020670","8.929407","0.017225","612318","798945","954425","16.701576","5.563610","0.019665","2164","4654","6624","2247","4152","5485","2212","3667","4607","2231","3220","3806","2550","3382","3798","DualSpot on"
"MA200-0416","53537","114","1","1.10","1.6","2023-07-30T22:45:00","120","2023/07/30","22:45:00","0","0","0.0","13","300","64","45","532","6276","-25536","2","150","150.13","118.11","32.01","32.16","27.1","10.84","89640","34.56","DUALSPOT-UV-BLUE-GREEN-RED-IR","499551","577581","901796","45.402268","20.119668","0.015043","534734","766330","759727","34.711484","14.330900","0.017656","635160","795088","813784","29.642852","11.662421","0.018774","663751","835792","862634","24.279650","9.036234","0.018696","609779","796657","952439","16.909748","5.642092","0.021868","2088","4593","6587","2198","4241","5678","2181","3841","4918","2199","3347","4028","2462","3424","3906","DualSpot on"
"MA200-0416","53538","114","1","1.10","1.6","2023-07-30T22:50:00","120","2023/07/30","22:50:00","0","0","0.0","13","300","64","47","412","6292","-25703","2","150","149.62","118.29","31.33","32.42","26.7","10.82","89648","34.75","DUALSPOT-UV-BLUE-GREEN-RED-IR","499094","578023","904755","45.818208","20.368474","0.015142","534183","766826","761614","35.061084","14.515024","0.017907","633862","794751","814619","29.951996","11.809259","0.018933","663572","836813","864676","24.539754","9.145687","0.019731","608573","796123","952495","17.115268","5.719192","0.022482","2065","4664","6745","2190","4356","5887","2169","3891","5011","2206","3505","4276","2427","3437","3945","DualSpot on"
"MA200-0416","53539","114","1","1.10","1.6","2023-07-30T22:55:00","120","2023/07/30","22:55:00","0","0","0.0","13","300","64","48","416","6058","-25500","2","150","150.35","118.11","32.23","32.62","26.3","10.80","89656","34.94","DUALSPOT-UV-BLUE-GREEN-RED-IR","496466","575860","903588","46.218596","20.614518","0.014999","531653","764371","760562","35.397520","14.696503","0.017671","631430","792891","813916","30.250896","11.958086","0.019072","660757","834444","863167","24.793746","9.257283","0.019897","605862","793531","950167","17.312690","5.795986","0.022532","1991","4483","6490","2111","4174","5638","2100","3833","4966","2157","3473","4257","2334","3328","3828","DualSpot on"
"MA200-0416","53540","114","1","1.10","1.6","2023-07-30T23:00:00","120","2023/07/30","23:00:00","0","0","0.0","13","300","64","50","456","6528","-25691","2","150","150.25","117.87","32.38","32.79","26.0","10.77","89656","35.13","DUALSPOT-UV-BLUE-GREEN-RED-IR","497400","577837","908888","46.615076","20.855736","0.014744","532230","766397","763968","35.733928","14.877767","0.017412","631568","794288","816586","30.550364","12.107332","0.018794","657176","831075","860659","25.046380","9.371374","0.020245","607052","796041","953925","17.510036","5.874176","0.022817","1975","4375","6318","2115","4149","5600","2109","3826","4953","2150","3534","4362","2338","3373","3895","DualSpot on"
"MA200-0416","53541","114","1","1.10","1.6","2023-07-30T23:05:00","120","2023/07/30","23:05:00","0","0","0.0","13","300","64","51","358","6462","-25733","2","150","150.20","117.63","32.57","32.93","25.7","10.73","89668","35.25","DUALSPOT-UV-BLUE-GREEN-RED-IR","493485","574128","905203","46.998120","21.093228","0.014728","528552","762198","761144","36.059948","15.058434","0.017536","628115","791072","814439","30.842092","12.255770","0.018859","658082","833297","863976","25.293032","9.486275","0.020641","606763","796541","955208","17.697448","5.948971","0.022570","1912","4283","6213","2054","4112","5588","2058","3784","4921","2103","3539","4401","2225","3208","3705","DualSpot on"
"MA200-0416","53542","114","1","1.10","1.6","2023-07-30T23:10:00","120","2023/07/30","23:10:00","0","0","0.0","12","300","64","52","504","6558","-25508","2","150","150.56","117.72","32.84","33.03","25.5","10.68","89668","35.31","DUALSPOT-UV-BLUE-GREEN-RED-IR","492467","573744","906756","47.378404","21.331264","0.014636","527371","761582","761939","36.385656","15.239825","0.017357","626626","790285","814874","31.130506","12.404513","0.018797","657137","833186","864842","25.538022","9.600925","0.020381","602018","791188","949521","17.883126","6.025280","0.023284","1897","4256","6189","2051","4094","5566","2034","3760","4903","2087","3502","4354","2203","3245","3775","DualSpot on"
"MA200-0416","53543","114","1","1.10","1.6","2023-07-30T23:15:00","120","2023/07/30","23:15:00","0","0","0.0","13","300","64","54","564","6492","-25360","2","150","149.91","117.63","32.28","33.11","25.4","10.65","89664","35.38","DUALSPOT-UV-BLUE-GREEN-RED-IR","488656","570166","903369","47.781488","21.581096","0.014579","527597","763128","764907","36.729072","15.430356","0.017371","626268","790991","816932","31.438426","12.564585","0.019035","652883","828948","861513","25.799698","9.725208","0.020925","602366","792566","951926","18.079716","6.105400","0.023391","2012","4546","6633","2164","4376","5978","2173","4117","5411","2231","3863","4850","2334","3467","4045","DualSpot on"
"MA200-0416","53544","114","1","1.10","1.6","2023-07-30T23:20:00","120","2023/07/30","23:20:00","0","0","0.0","13","300","64","56","475","6492","-25516","2","150","150.14","117.71","32.43","33.16","25.2","10.63","89660","35.44","DUALSPOT-UV-BLUE-GREEN-RED-IR","487622","569809","905030","48.176576","21.830464","0.014579","522875","757382","760624","37.070048","15.622161","0.017342","622902","787908","815053","31.742652","12.724589","0.018986","652568","829686","863343","26.060890","9.851221","0.020987","602444","793591","953948","18.275178","6.188749","0.024784","1971","4515","6624","2147","4383","6012","2145","4095","5400","2226","3897","4913","2319","3589","4240","DualSpot on"
"MA200-0416","53545","114","1","1.10","1.6","2023-07-30T23:25:00","120","2023/07/30","23:25:00","0","0","0.0","13","300","64","58","488","6565","-25642","2","150","149.40","117.09","32.31","33.20","25.2","10.62","89664","35.44","DUALSPOT-UV-BLUE-GREEN-RED-IR","486275","569029","905963","48.554356","22.069142","0.014472","521380","756267","760920","37.397276","15.807677","0.017278","621205","786809","815153","32.033680","12.877678","0.018805","651261","829087","863753","26.307628","9.971133","0.020930","601211","792803","953734","18.460724","6.264669","0.022865","1895","4338","6374","2071","4255","5855","2063","3933","5189","2114","3722","4704","2213","3281","3830","DualSpot on"
"MA200-0416","53546","114","1","1.10","1.6","2023-07-30T23:30:00","120","2023/07/30","23:30:00","0","0","0.0","13","300","64","59","433","6487","-25579","2","150","150.26","117.36","32.90","33.22","25.1","10.59","89660","35.44","DUALSPOT-UV-BLUE-GREEN-RED-IR","484650","567924","906454","48.939188","22.315620","0.014356","519985","755338","761395","37.725944","15.995917","0.017078","619481","785712","815319","32.328506","13.037741","0.018897","650329","828954","864726","26.562164","10.098514","0.021041","600358","792521","954149","18.646820","6.344635","0.023964","1925","4400","6474","2076","4241","5836","2085","4039","5360","2175","3884","4932","2215","3395","4004","DualSpot on"
"MA200-0416","53547","114","1","1.10","1.6","2023-07-30T23:35:00","120","2023/07/30","23:35:00","0","0","0.0","12","300","64","61","568","6624","-25376","2","150","150.03","116.87","33.16","33.22","25.0","10.52","89648","35.38","DUALSPOT-UV-BLUE-GREEN-RED-IR","482720","566431","906250","49.320068","22.560436","0.014190","517796","753188","760693","38.055264","16.188475","0.017043","617612","784390","815256","32.624000","13.197651","0.018504","648723","827918","864770","26.814912","10.227140","0.020955","599138","791703","953985","18.833362","6.425758","0.023734","1914","4336","6377","2089","4304","5944","2099","4003","5296","2169","3891","4952","2229","3417","4032","DualSpot on"
"MA200-0416","53548","114","1","1.10","1.6","2023-07-30T23:40:00","120","2023/07/30","23:40:00","0","0","0.0","12","300","64","64","427","6736","-25568","2","150","149.76","116.91","32.86","33.21","24.9","10.49","89644","35.38","DUALSPOT-UV-BLUE-GREEN-RED-IR","480280","564310","905055","49.694164","22.804016","0.014262","519386","756483","765496","38.378148","16.378351","0.017088","615432","782632","814739","32.917114","13.359233","0.018775","646388","825932","863780","27.063632","10.355109","0.021195","597627","790561","953331","19.013306","6.504873","0.024283","1879","4354","6452","2047","4283","5948","2081","4082","5449","2134","3907","5006","2150","3363","3994","DualSpot on"
"MA200-0416","53549","114","1","1.10","1.6","2023-07-30T23:45:00","120","2023/07/30","23:45:00","0","0","0.0","12","300","64","65","512","6664","-25592","2","150","150.71","117.72","32.99","33.17","24.9","10.43","89640","35.31","DUALSPOT-UV-BLUE-GREEN-RED-IR","477390","561658","903003","50.073400","23.047786","0.014092","516963","754020","764438","38.705240","16.568647","0.016870","613122","780743","814094","33.211064","13.518976","0.018458","643852","823699","862559","27.316468","10.484453","0.020962","595944","789142","952396","19.198364","6.584430","0.023357","1892","4340","6428","2059","4276","5935","2073","4020","5357","2154","3933","5041","2196","3368","3981","DualSpot on"
"MA200-0416","53550","114","1","1.10","1.6","2023-07-30T23:50:00","120","2023/07/30","23:50:00","0","0","0.0","12","300","64","67","495","6712","-25550","2","150","149.84","116.76","33.08","33.13","24.9","10.38","89640","35.25","DUALSPOT-UV-BLUE-GREEN-RED-IR","478648","563881","908770","50.444404","23.285682","0.013900","514400","751245","763081","39.030192","16.757965","0.016635","613289","781983","816686","33.502480","13.680293","0.018422","641064","821124","860972","27.565058","10.612439","0.020701","594626","788213","952004","19.380302","6.663673","0.023232","1866","4224","6245","2063","4242","5882","2072","4048","5413","2136","3881","4974","2176","3346","3959","DualSpot on"
"MA200-0416","53551","114","1","1.10","1.6","2023-07-30T23:55:00","120","2023/07/30","23:55:00","0","0","0.0","12","300","64","69","456","6784","-25500","2","150","149.76","116.98","32.79","33.06","24.9","10.33","89632","35.13","DUALSPOT-UV-BLUE-GREEN-RED-IR","475753","561128","906389","50.790460","23.513854","0.014093","511778","748385","761501","39.332000","16.936844","0.016828","610707","779627","815435","33.773656","13.832070","0.018595","643221","824806","865879","27.801166","10.735621","0.021003","595799","790501","955482","19.549266","6.739032","0.024263","1737","4087","6113","1912","4044","5656","1924","3843","5174","2025","3769","4866","2017","3210","3838","DualSpot on"
"MA200-0416","53552","114","1","1.10","1.6","2023-07-31T00:00:00","120","2023/07/31","00:00:00","0","0","0.0","12","300","64","70","528","6664","-25164","2","150","149.48","117.02","32.46","33.00","24.9","10.30","89628","35.06","DUALSPOT-UV-BLUE-GREEN-RED-IR","471506","556763","901360","51.131464","23.741546","0.014165","511804","749284","763821","39.629256","17.117684","0.017095","607367","776203","813125","34.042276","13.985865","0.018906","638786","819985","861869","28.030858","10.858906","0.021553","593547","788234","953468","19.713890","6.813968","0.025101","1711","4119","6207","1883","4129","5838","1905","3933","5347","1969","3810","4974","1965","3224","3890","DualSpot on"
"MA200-0416","53553","114","1","1.10","1.6","2023-07-31T00:05:00","120","2023/07/31","00:05:00","0","0","0.0","12","300","64","73","444","6828","-25368","2","150","150.56","117.42","33.14","32.91","24.9","10.21","89620","34.94","DUALSPOT-UV-BLUE-GREEN-RED-IR","473295","559768","908945","51.586136","24.038204","0.013776","509364","746958","763304","40.035360","17.357998","0.016470","607378","777550","816218","34.409212","14.191702","0.018220","635851","817491","860754","28.352856","11.029550","0.020793","591387","786382","952267","19.954800","6.921541","0.023614","2274","5257","7860","2563","5375","7527","2594","5156","6954","2751","5165","6703","2866","4534","5420","DualSpot on"
"MA200-0416","53554","114","1","1.10","1.6","2023-07-31T00:10:00","120","2023/07/31","00:10:00","0","0","0.0","12","300","64","74","495","6837","-25587","2","150","149.81","117.14","32.66","32.84","24.9","10.13","89616","34.88","DUALSPOT-UV-BLUE-GREEN-RED-IR","469613","556159","905489","51.988760","24.301938","0.013791","506055","743152","761029","40.395664","17.573326","0.016567","604097","774434","814433","34.737636","14.376572","0.018273","637645","820886","865615","28.638032","11.179691","0.020705","589044","784202","950505","20.167008","7.016800","0.023963","2018","4742","7132","2280","4886","6894","2327","4698","6372","2442","4611","6000","2530","4073","4897","DualSpot on"
"MA200-0416","53555","114","1","1.10","1.6","2023-07-31T00:15:00","120","2023/07/31","00:15:00","0","0","0.0","13","300","64","77","430","6863","-25741","2","150","149.54","116.97","32.58","32.75","24.8","10.05","89604","34.75","DUALSPOT-UV-BLUE-GREEN-RED-IR","466517","553122","902626","52.335008","24.534314","0.013879","507029","745499","764839","40.699236","17.756754","0.016580","601666","772223","813354","35.009928","14.532650","0.018396","633973","817046","862684","28.875646","11.307628","0.020965","590530","786889","954517","20.336754","7.094190","0.024318","1738","4189","6353","1923","4174","5916","1932","3977","5429","2038","3940","5164","2027","3318","4010","DualSpot on"
"MA200-0416","53556","114","1","1.10","1.6","2023-07-31T00:20:00","120","2023/07/31","00:20:00","0","0","0.0","13","300","64","78","479","6872","-25400","2","150","150.21","117.21","33.00","32.67","24.9","10.00","89596","34.63","DUALSPOT-UV-BLUE-GREEN-RED-IR","467149","554504","906991","52.679344","24.767944","0.013797","503858","741685","762347","40.999776","17.942134","0.016566","601545","772946","815436","35.281308","14.689602","0.018242","629991","812753","859246","29.108072","11.434316","0.020835","588248","784591","952425","20.504314","7.171289","0.024078","1725","4157","6316","1900","4164","5925","1922","3948","5393","1989","3851","5055","1997","3263","3944","DualSpot on"
"MA200-0416","53557","114","1","1.10","1.6","2023-07-31T00:25:00","120","2023/07/31","00:25:00","0","0","0.0","12","300","64","80","504","6920","-25295","2","150","149.84","116.89","32.95","32.57","24.9","9.91","89584","34.50","DUALSPOT-UV-BLUE-GREEN-RED-IR","463928","551262","903735","53.014968","24.997482","0.013763","504631","743678","765773","41.294656","18.123576","0.016425","598868","770336","813937","35.548572","14.845604","0.018221","632151","816433","864216","29.337642","11.561215","0.020906","586336","782691","950888","20.667964","7.247816","0.024372","1686","4092","6238","1870","4082","5812","1898","3931","5388","1970","3864","5095","1955","3244","3940","DualSpot on"
"MA200-0416","53558","114","1","1.10","1.6","2023-07-31T00:30:00","120","2023/07/31","00:30:00","0","0","0.0","12","300","64","82","629","6950","-25329","2","150","150.35","117.21","33.14","32.47","24.9","9.85","89572","34.38","DUALSPOT-UV-BLUE-GREEN-RED-IR","464604","552630","908066","53.346008","25.224102","0.013673","501407","739722","763072","41.582960","18.302556","0.016378","596203","767737","812412","35.807264","14.997912","0.018170","628074","812018","860591","29.563224","11.684108","0.020468","587664","785143","954569","20.826668","7.322195","0.024174","1658","4016","6130","1823","4003","5717","1832","3815","5244","1930","3720","4889","1891","3135","3809","DualSpot on"
"MA200-0416","53559","114","1","1.10","1.6","2023-07-31T00:35:00","120","2023/07/31","00:35:00","0","0","0.0","12","300","64","83","470","6979","-25508","2","150","149.54","116.97","32.58","32.38","25.0","9.81","89568","34.25","DUALSPOT-UV-BLUE-GREEN-RED-IR","461415","549494","904863","53.680716","25.447956","0.013546","498491","736220","760788","41.873472","18.480380","0.016286","596338","768737","814698","36.070224","15.149431","0.017972","629935","815226","865055","29.788594","11.806808","0.020568","585523","782975","952617","20.990132","7.395048","0.022917","1680","4036","6159","1841","4046","5789","1866","3861","5306","1933","3779","4991","1952","3124","3761","DualSpot on"
"MA200-0416","53560","114","1","1.10","1.6","2023-07-31T00:40:00","120","2023/07/31","00:40:00","0","0","0.0","12","300","64","85","520","6956","-25176","2","150","150.42","116.88","33.54","32.28","25.1","9.82","89564","34.13","DUALSPOT-UV-BLUE-GREEN-RED-IR","462202","550958","909381","54.005988","25.668834","0.013378","498891","737631","763606","42.155592","18.655324","0.016024","593531","765964","812948","36.323884","15.297218","0.017625","625942","810845","861463","30.010570","11.929116","0.020133","583291","780645","950467","21.146980","7.467666","0.023011","1634","3867","5890","1789","3866","5514","1801","3657","5007","1905","3658","4814","1874","3024","3651","DualSpot on"
"MA200-0416","53561","114","1","1.10","1.6","2023-07-31T00:45:00","120","2023/07/31","00:45:00","0","0","0.0","12","300","64","88","408","6840","-25304","2","150","150.29","116.98","33.31","32.18","25.3","9.83","89552","34.00","DUALSPOT-UV-BLUE-GREEN-RED-IR","459210","547933","906356","54.328508","25.891236","0.013454","496072","734221","761425","42.438324","18.831460","0.016049","594051","767465","815823","36.580908","15.449431","0.017810","627929","814246","866136","30.231556","12.051724","0.020245","584760","783289","954410","21.305164","7.542064","0.023575","1619","3921","6018","1791","3920","5618","1824","3794","5234","1895","3693","4885","1888","3120","3795","DualSpot on"
"MA200-0416","53562","114","1","1.10","1.6","2023-07-31T00:50:00","120","2023/07/31","00:50:00","0","0","0.0","12","300","64","90","556","7052","-25452","2","150","149.48","117.41","32.07","32.09","25.4","9.84","89548","33.88","DUALSPOT-UV-BLUE-GREEN-RED-IR","455912","544588","902819","54.656732","26.113926","0.013534","497232","736796","765449","42.730000","19.010464","0.016194","591780","765325","814770","36.841388","15.600163","0.017913","624257","810304","863008","30.458206","12.175880","0.020561","583430","782185","953790","21.466782","7.616663","0.024075","1641","4078","6308","1841","4138","5978","1841","3902","5415","1936","3884","5181","1922","3249","3979","DualSpot on"
"MA200-0416","53563","114","1","1.10","1.6","2023-07-31T00:55:00","120","2023/07/31","00:55:00","0","0","0.0","13","300","64","92","452","6940","-25468","2","150","149.87","117.29","32.57","32.00","25.5","9.83","89544","33.75","DUALSPOT-UV-BLUE-GREEN-RED-IR","456832","546219","907441","54.964356","26.325634","0.013452","494217","733063","762826","42.998748","19.177566","0.016070","592011","766436","817151","37.086744","15.743052","0.017686","625952","813281","867189","30.671124","12.291739","0.020069","581219","779813","951582","21.620652","7.687650","0.023424","1540","3817","5910","1698","3802","5497","1736","3641","5047","1821","3568","4736","1832","3044","3712","DualSpot on"
"MA200-0416","53564","114","1","1.10","1.6","2023-07-31T01:00:00","120","2023/07/31","01:00:00","0","0","0.0","12","300","64","94","488","7060","-25388","2","150","150.09","117.18","32.91","31.90","25.7","9.81","89540","33.63","DUALSPOT-UV-BLUE-GREEN-RED-IR","453663","542941","903874","55.268540","26.536110","0.013352","491573","729867","760787","43.267548","19.346764","0.015990","589078","763394","815059","37.328076","15.888144","0.017818","621996","808932","863551","30.882900","12.409716","0.020135","581747","781207","953961","21.772006","7.759056","0.023593","1524","3756","5817","1700","3811","5518","1709","3660","5105","1813","3596","4794","1804","3030","3710","DualSpot on"
"MA200-0416","53565","114","1","1.10","1.6","2023-07-31T01:05:00","120","2023/07/31","01:05:00","0","0","0.0","12","300","64","96","440","7200","-25508","2","150","149.76","117.33","32.44","31.81","25.8","9.80","89528","33.50","DUALSPOT-UV-BLUE-GREEN-RED-IR","454262","544126","907827","55.568000","26.749050","0.013532","491721","730793","763047","43.532680","19.517718","0.016245","586238","760396","813057","37.572768","16.036545","0.017981","623555","811669","867521","31.093452","12.531884","0.020839","580009","779472","952498","21.919788","7.830513","0.024551","1499","3855","6043","1675","3907","5720","1731","3798","5337","1800","3778","5114","1759","3077","3809","DualSpot on"
"MA200-0416","53566","114","1","1.10","1.6","2023-07-31T01:10:00","120","2023/07/31","01:10:00","0","0","0.0","12","300","64","97","504","7096","-25332","2","150","149.49","116.67","32.82","31.69","25.9","9.76","89524","33.38","DUALSPOT-UV-BLUE-GREEN-RED-IR","453766","544045","909618","55.874016","26.960896","0.013215","491540","731246","764857","43.803472","19.687940","0.015788","585764","760523","814377","37.812704","16.180468","0.017568","618495","805803","862294","31.305256","12.650643","0.019964","580113","780248","954169","22.074402","7.904100","0.023496","1540","3791","5889","1720","3844","5578","1707","3640","5086","1821","3630","4856","1851","3131","3846","DualSpot on"
"MA200-0416","53567","114","1","1.10","1.6","2023-07-31T01:15:00","120","2023/07/31","01:15:00","0","0","0.0","12","300","64","97","532","7168","-25192","2","150","150.20","117.11","33.09","31.55","26.0","9.70","89528","33.13","DUALSPOT-UV-BLUE-GREEN-RED-IR","449630","539533","903958","56.176492","27.173352","0.013210","491075","731280","766186","44.072652","19.859102","0.015763","585373","760747","815843","38.058988","16.329622","0.017524","619125","807387","865032","31.517574","12.771446","0.019994","577557","777370","951330","22.225380","7.976694","0.023510","1517","3770","5882","1703","3834","5581","1745","3742","5242","1818","3662","4918","1800","3064","3771","DualSpot on"
"MA200-0416","53568","114","1","1.10","1.6","2023-07-31T01:20:00","120","2023/07/31","01:20:00","0","0","0.0","12","300","64","98","440","7268","-25352","2","150","149.91","116.98","32.93","31.40","26.0","9.61","89524","32.94","DUALSPOT-UV-BLUE-GREEN-RED-IR","442755","534612","905759","57.887992","28.276184","0.012366","480075","719660","761813","45.748036","20.874056","0.014849","574008","751145","813034","39.657380","17.247054","0.016332","611051","802328","866629","32.997288","13.573732","0.018527","571409","774326","953166","23.471184","8.555622","0.021554","8593","19669","30245","10617","22847","33110","11344","23128","32197","12691","24441","32653","14877","24557","30110","DualSpot on"
"MA200-0416","53569","114","1","1.10","1.6","2023-07-31T01:25:00","120","2023/07/31","01:25:00","0","0","0.0","12","300","64","98","405","7111","-25300","2","150","149.87","117.38","32.49","31.23","26.1","9.51","89512","32.75","DUALSPOT-UV-BLUE-GREEN-RED-IR","441403","533778","907454","58.398920","28.626442","0.012729","478788","718958","763280","46.225908","21.176264","0.015215","572501","750445","814404","40.107560","17.518734","0.016878","605205","795976","861660","33.401676","13.801893","0.019128","567958","770856","950298","23.791446","8.709618","0.022598","2556","6331","9961","3018","6895","10173","3184","6942","9856","3456","7045","9572","3811","6621","8243","DualSpot on"
"MA200-0416","53570","114","1","1.10","1.6","2023-07-31T01:30:00","120","2023/07/31","01:30:00","0","0","0.0","12","300","68","98","524","7124","-25292","3","150","150.09","116.98","33.11","31.06","26.4","9.53","89500","32.50","DUALSPOT-UV-BLUE-GREEN-RED-IR","801567","710905","903817","0.000000","0.000000","0.000000","762916","890583","762642","0.000000","0.000000","0.000000","857525","898435","816620","0.000000","0.000000","0.000000","840827","913251","859993","0.000000","0.000000","0.000000","716199","839577","954422","0.000000","0.000000","0.000000","","","","","","","","","","","","","","","","Tape advance-DualSpot on"
"MA200-0416","53571","114","1","1.10","1.6","2023-07-31T01:35:00","120","2023/07/31","01:35:00","0","0","0.0","12","300","68","98","388","7132","-25112","3","150","150.27","117.20","33.08","30.85","26.6","9.49","89488","32.25","DUALSPOT-UV-BLUE-GREEN-RED-IR","793878","709488","904918","0.000000","0.000000","0.000000","756530","887838","762040","0.000000","0.000000","0.000000","851980","896488","816411","0.000000","0.000000","0.000000","837070","912214","860337","0.000000","0.000000","0.000000","714761","839618","955287","0.000000","0.000000","0.000000","","","","","","","","","","","","","","","","Tape advance-DualSpot on"
"MA200-0416","53572","114","1","1.10","1.6","2023-07-31T01:40:00","120","2023/07/31","01:40:00","0","0","0.0","12","300","64","98","392","7275","-25268","3","150","149.62","117.24","32.38","30.68","26.8","9.42","89476","32.00","DUALSPOT-UV-BLUE-GREEN-RED-IR","785612","707338","905146","1.073568","0.325731","0.000000","750767","885780","762050","0.766650","0.236523","0.000000","846893","895013","816654","0.626927","0.194442","0.000000","832619","910394","859950","0.485693","0.152689","0.000000","708860","834353","950116","0.290208","0.085526","0.000000","5378","5908","5378","4847","5415","4847","4439","4985","4439","4156","4731","4156","3457","3689","3457","DualSpot on"
"MA200-0416","53573","114","1","1.10","1.6","2023-07-31T01:45:00","120","2023/07/31","01:45:00","0","0","0.0","12","300","64","98","396","7192","-25164","3","150","150.55","117.05","33.51","30.47","27.1","9.39","89480","31.75","DUALSPOT-UV-BLUE-GREEN-RED-IR","776892","704635","904721","2.140283","0.659585","0.000000","748831","888130","765888","1.525837","0.473851","0.000000","842372","893998","817334","1.246768","0.390666","0.000000","828979","909376","860295","0.966038","0.305879","0.000000","707937","834973","951658","0.578300","0.170631","0.000000","5353","5851","5353","4808","5250","4808","4396","4861","4396","4117","4586","4117","3438","3547","3438","DualSpot on"
"MA200-0416","53574","114","1","1.10","1.6","2023-07-31T01:50:00","120","2023/07/31","01:50:00","0","0","0.0","11","300","64","98","396","7200","-25280","3","150","149.94","117.34","32.60","30.27","27.4","9.39","89460","31.56","DUALSPOT-UV-BLUE-GREEN-RED-IR","769166","702597","905112","3.184641","0.994485","0.057490","742170","884709","764752","2.269642","0.709962","0.000000","838694","893771","818757","1.855200","0.586384","0.000000","825701","908691","860922","1.436646","0.456786","0.000000","707398","835999","953620","0.861515","0.256464","0.000000","5227","6033","6399","4699","5368","4699","4305","4984","4305","4023","4643","4023","3371","3677","3371","DualSpot on"
"MA200-0416","53575","114","1","1.10","1.6","2023-07-31T01:55:00","120","2023/07/31","01:55:00","0","0","0.0","10","300","64","98","400","7304","-25252","3","150","149.84","117.59","32.25","30.09","27.6","9.37","89448","31.31","DUALSPOT-UV-BLUE-GREEN-RED-IR","761870","700805","905901","4.224468","1.335046","0.052368","736576","882415","764607","3.008156","0.949186","0.069584","829730","887868","814880","2.457654","0.779390","0.000000","824244","909980","863473","1.903946","0.608205","0.000000","706743","836871","955417","1.143465","0.341242","0.000000","5193","6203","6669","4655","5499","5888","4253","4969","4253","3987","4710","3987","3349","3672","3349","DualSpot on"
"MA200-0416","53576","114","1","1.10","1.6","2023-07-31T02:00:00","120","2023/07/31","02:00:00","0","0","0.0","10","300","64","98","332","7311","-25104","3","150","150.21","117.29","32.92","29.92","27.8","9.32","89444","31.13","DUALSPOT-UV-BLUE-GREEN-RED-IR","755985","700244","908374","5.274566","1.687139","0.042184","732035","881426","765613","3.755570","1.192855","0.050979","826056","887564","816228","3.067195","0.978035","0.062374","819798","907939","862866","2.378044","0.762605","0.000000","701808","832642","951443","1.426817","0.427645","0.000000","5258","6281","6763","4723","5487","5842","4314","5009","5335","4055","4705","4055","3374","3666","3374","DualSpot on"
"MA200-0416","53577","114","1","1.10","1.6","2023-07-31T02:05:00","120","2023/07/31","02:05:00","0","0","0.0","10","300","64","98","404","7252","-25148","3","150","150.56","116.93","33.63","29.74","28.0","9.29","89428","30.88","DUALSPOT-UV-BLUE-GREEN-RED-IR","749078","698440","909045","6.267208","2.022552","0.032744","722550","874167","761095","4.470660","1.428479","0.039441","821847","886560","816857","3.656417","1.169646","0.044084","816643","907275","863518","2.837851","0.910765","0.000000","701243","833583","953303","1.705837","0.511845","0.000000","4986","5857","6273","4533","5193","5504","4183","4730","4987","3945","4419","3945","3333","3497","3333","DualSpot on"
"MA200-0416","53578","114","1","1.10","1.6","2023-07-31T02:10:00","120","2023/07/31","02:10:00","0","0","0.0","10","300","64","98","364","7308","-25380","3","150","150.09","117.70","32.39","29.58","28.1","9.18","89428","30.75","DUALSPOT-UV-BLUE-GREEN-RED-IR","743135","697521","911077","7.286205","2.373857","0.037412","721640","877399","765785","5.207381","1.673496","0.045118","813911","881552","813875","4.263353","1.371157","0.054709","813907","907123","864708","3.313065","1.066094","0.065412","700957","834943","955689","1.994615","0.598889","0.000000","5085","6369","6990","4640","5607","6065","4281","5164","5583","4050","4810","5171","3427","3753","3427","DualSpot on"
"MA200-0416","53579","114","1","1.10","1.6","2023-07-31T02:15:00","120","2023/07/31","02:15:00","0","0","0.0","10","300","64","98","356","7288","-25344","3","150","149.99","117.81","32.18","29.42","28.3","9.14","89420","30.50","DUALSPOT-UV-BLUE-GREEN-RED-IR","730501","690745","905675","8.403215","2.754135","0.031914","712050","870463","761766","6.020303","1.941425","0.038817","810464","881822","815936","4.936533","1.590306","0.044677","810213","906273","865353","3.842453","1.236975","0.055005","696562","831678","952889","2.328384","0.698800","0.000000","5569","6941","7610","5115","6172","6675","4744","5654","6086","4508","5327","5716","3957","4337","3957","DualSpot on"
"MA200-0416","53580","114","1","1.10","1.6","2023-07-31T02:20:00","120","2023/07/31","02:20:00","0","0","0.0","11","300","64","99","360","7464","-25500","3","150","149.91","117.41","32.49","29.26","28.4","9.06","89424","30.31","DUALSPOT-UV-BLUE-GREEN-RED-IR","722416","688030","905592","9.504717","3.141809","0.030375","706023","867756","761514","6.840454","2.220732","0.037204","805327","880245","816344","5.620811","1.819349","0.042071","804514","903140","863933","4.384707","1.415443","0.049811","695062","831858","954084","2.673189","0.804162","0.000000","5510","7007","7746","5178","6372","6945","4838","5851","6337","4633","5510","5928","4102","4529","4102","DualSpot on"
"MA200-0416","53581","114","1","1.10","1.6","2023-07-31T02:25:00","120","2023/07/31","02:25:00","0","0","0.0","11","300","64","98","426","7246","-24992","3","150","149.48","117.37","32.11","29.09","28.5","9.00","89428","30.19","DUALSPOT-UV-BLUE-GREEN-RED-IR","717598","688430","909918","10.653786","3.559265","0.030971","701695","867414","763581","7.719930","2.526039","0.036987","797512","875998","814472","6.367549","2.075392","0.042895","797101","898445","861176","4.988507","1.617693","0.049966","691107","829329","952377","3.062580","0.929206","0.065197","5750","7635","8581","5554","7048","7774","5282","6620","7266","5161","6319","6874","4634","5439","5790","DualSpot on"
"MA200-0416","53582","114","1","1.10","1.6","2023-07-31T02:30:00","120","2023/07/31","02:30:00","0","0","0.0","11","300","64","98","329","7458","-25320","3","150","149.82","117.10","32.72","28.95","28.7","8.97","89428","30.00","DUALSPOT-UV-BLUE-GREEN-RED-IR","704341","680346","902779","11.736233","3.955152","0.027077","695760","864724","763388","8.549908","2.814764","0.031281","793120","875229","815716","7.073283","2.315962","0.034832","792865","897094","861522","5.559574","1.806247","0.038124","690032","830161","954462","3.435318","1.043579","0.035943","5429","7106","7958","5254","6541","7172","5003","6103","6639","4892","5781","6208","4446","4882","5073","DualSpot on"
"MA200-0416","53583","114","1","1.10","1.6","2023-07-31T02:35:00","120","2023/07/31","02:35:00","0","0","0.0","11","300","64","98","424","7320","-25312","3","150","149.90","117.66","32.23","28.82","28.9","8.95","89420","29.88","DUALSPOT-UV-BLUE-GREEN-RED-IR","701141","681488","907690","12.733559","4.328451","0.028024","689044","860591","761816","9.312293","3.085822","0.033087","786394","871452","814008","7.718286","2.539199","0.036513","791523","898669","864508","6.080109","1.981163","0.041368","686226","827487","952388","3.772468","1.147959","0.041751","4978","6801","7740","4803","6233","6942","4551","5749","6337","4438","5444","5930","4002","4523","4751","DualSpot on"
"MA200-0416","53584","114","1","1.10","1.6","2023-07-31T02:40:00","120","2023/07/31","02:40:00","0","0","0.0","11","300","64","98","368","7364","-25284","3","150","149.91","117.15","32.76","28.70","29.0","8.89","89420","29.75","DUALSPOT-UV-BLUE-GREEN-RED-IR","690796","675302","902685","13.666885","4.688410","0.026783","685376","859849","763102","10.014863","3.341937","0.031265","783720","871825","816095","8.311208","2.750361","0.034928","784006","892871","860401","6.556395","2.146548","0.040339","686381","829435","955531","4.077098","1.243713","0.037176","4679","6454","7381","4445","5796","6472","4201","5351","5920","4078","5065","5545","3632","4083","4281","DualSpot on"
"MA200-0416","53585","114","1","1.10","1.6","2023-07-31T02:45:00","120","2023/07/31","02:45:00","0","0","0.0","11","300","64","99","356","7315","-25196","3","150","150.43","117.46","32.96","28.56","29.2","8.86","89416","29.56","DUALSPOT-UV-BLUE-GREEN-RED-IR","688736","676920","907975","14.549767","5.034799","0.026006","678546","854849","760539","10.681858","3.589272","0.030534","777777","868337","814458","8.873185","2.953768","0.034128","783105","894465","863281","7.006272","2.304566","0.038924","683427","827451","954113","4.362797","1.335517","0.039628","4414","6172","7101","4209","5562","6246","3972","5123","5697","3842","4809","5283","3397","3890","4107","DualSpot on"
"MA200-0416","53586","114","1","1.10","1.6","2023-07-31T02:50:00","120","2023/07/31","02:50:00","0","0","0.0","11","300","64","99","300","7370","-25166","3","150","149.87","117.04","32.82","28.45","29.4","8.88","89412","29.44","DUALSPOT-UV-BLUE-GREEN-RED-IR","684438","676106","909989","15.391788","5.372110","0.025788","675575","854512","762078","11.322308","3.831339","0.030428","775636","868882","816590","9.411580","3.150213","0.033102","781612","895270","865356","7.439678","2.458352","0.038140","679360","824067","951066","4.640342","1.425261","0.038978","4225","6035","7006","4056","5467","6188","3819","4968","5547","3715","4700","5186","3312","3819","4044","DualSpot on"
"MA200-0416","53587","114","1","1.10","1.6","2023-07-31T02:55:00","120","2023/07/31","02:55:00","0","0","0.0","11","300","64","98","320","7533","-25304","3","150","149.73","118.00","31.74","28.34","29.5","8.87","89416","29.38","DUALSPOT-UV-BLUE-GREEN-RED-IR","675740","670918","906050","16.239912","5.713024","0.026648","673156","854902","764259","11.968077","4.073131","0.031152","769978","865515","815052","9.956169","3.349758","0.035476","775839","891207","862801","7.879436","2.613860","0.040641","680613","827243","955568","4.926227","1.517079","0.044473","4221","6309","7442","4057","5648","6469","3831","5220","5924","3739","4916","5500","3384","4041","4334","DualSpot on"
"MA200-0416","53588","114","1","1.10","1.6","2023-07-31T03:00:00","120","2023/07/31","03:00:00","0","0","0.0","11","300","64","98","340","7420","-25068","3","150","150.17","117.27","32.90","28.25","29.6","8.82","89424","29.25","DUALSPOT-UV-BLUE-GREEN-RED-IR","668861","667352","904347","17.076198","6.055843","0.024406","667685","851268","762897","12.606344","4.318732","0.028644","764768","862588","813937","10.497703","3.549892","0.030870","775412","893231","866082","8.314638","2.766985","0.033174","677413","824905","953764","5.205238","1.607964","0.036314","4188","6120","7181","4034","5533","6315","3833","5050","5671","3723","4669","5141","3323","3858","4098","DualSpot on"
"MA200-0416","53589","114","1","1.10","1.6","2023-07-31T03:05:00","120","2023/07/31","03:05:00","0","0","0.0","10","300","64","98","344","7500","-25100","3","150","150.28","117.67","32.61","28.16","29.7","8.78","89440","29.19","DUALSPOT-UV-BLUE-GREEN-RED-IR","664563","666494","906468","17.957320","6.419924","0.024116","664631","850960","764630","13.285316","4.579646","0.027921","762476","863177","816236","11.075928","3.765214","0.030903","768839","888312","862774","8.783735","2.936113","0.035428","673710","822054","951445","5.512233","1.709072","0.038884","4398","6556","7757","4277","5930","6800","4079","5481","6202","3999","5202","5806","3644","4330","4638","DualSpot on"
"MA200-0416","53590","114","1","1.10","1.6","2023-07-31T03:10:00","120","2023/07/31","03:10:00","0","0","0.0","10","300","64","98","344","7520","-25168","3","150","150.16","117.82","32.34","28.08","29.7","8.72","89440","29.06","DUALSPOT-UV-BLUE-GREEN-RED-IR","660367","665795","908977","18.866446","6.798210","0.023664","657119","844947","761314","13.991132","4.855126","0.028055","755910","858957","814065","11.679954","3.991598","0.030562","767118","889107","865083","9.278820","3.115177","0.034865","673707","823890","954579","5.841709","1.816095","0.035981","4532","6870","8187","4441","6314","7310","4256","5811","6619","4215","5555","6231","3906","4622","4946","DualSpot on"
"MA200-0416","53591","114","1","1.10","1.6","2023-07-31T03:15:00","120","2023/07/31","03:15:00","0","0","0.0","10","300","64","99","365","7523","-25096","3","150","150.14","117.59","32.56","27.98","29.8","8.69","89444","29.00","DUALSPOT-UV-BLUE-GREEN-RED-IR","653188","661990","907215","19.764466","7.179174","0.023031","656002","847125","765356","14.691648","5.129575","0.026498","750649","856149","813282","12.279799","4.219867","0.029574","762262","886279","863843","9.769018","3.291810","0.031982","671196","822569","954112","6.167145","1.924631","0.037148","4485","6872","8233","4416","6248","7231","4235","5820","6650","4182","5442","6083","3866","4656","5015","DualSpot on"
"MA200-0416","53592","114","1","1.10","1.6","2023-07-31T03:20:00","120","2023/07/31","03:20:00","0","0","0.0","10","300","64","99","344","7484","-25132","3","150","150.35","116.98","33.37","27.90","29.9","8.66","89452","28.94","DUALSPOT-UV-BLUE-GREEN-RED-IR","645023","656942","903759","20.639454","7.557953","0.021779","649536","842231","763049","15.377569","5.406368","0.025364","749132","857535","816472","12.869413","4.448551","0.027561","756715","882506","861716","10.253053","3.470862","0.030206","668202","820683","952919","6.489460","2.033241","0.032183","4393","6667","7981","4346","6149","7126","4184","5689","6484","4151","5383","6013","3849","4546","4865","DualSpot on"
"MA200-0416","53593","114","1","1.10","1.6","2023-07-31T03:25:00","120","2023/07/31","03:25:00","0","0","0.0","10","300","64","99","404","7543","-25148","3","150","149.99","117.24","32.75","27.82","30.0","8.63","89452","28.81","DUALSPOT-UV-BLUE-GREEN-RED-IR","643567","658636","909431","21.488846","7.927955","0.021867","644299","838758","761940","16.043518","5.674202","0.025237","743935","854558","815421","13.441957","4.669905","0.027559","756096","884390","865073","10.723673","3.644383","0.030437","664864","818283","951160","6.805679","2.138868","0.032631","4255","6635","8027","4211","6062","7076","4054","5611","6440","4027","5315","5979","3767","4505","4843","DualSpot on"
"MA200-0416","53594","114","1","1.10","1.6","2023-07-31T03:30:00","120","2023/07/31","03:30:00","0","0","0.0","10","300","64","99","364","7532","-25116","3","150","149.76","117.37","32.39","27.75","30.1","8.62","89456","28.75","DUALSPOT-UV-BLUE-GREEN-RED-IR","634628","653135","905482","22.455974","8.334701","0.020238","641380","838732","764194","16.790986","5.967092","0.023488","737680","850733","813707","14.077949","4.909432","0.025495","750691","880999","863378","11.242436","3.831828","0.028402","661316","815843","949424","7.156547","2.253191","0.029146","4839","7375","8871","4721","6702","7795","4498","6139","7017","4434","5805","6514","4176","4930","5276","DualSpot on"
"MA200-0416","53595","114","1","1.10","1.6","2023-07-31T03:35:00","120","2023/07/31","03:35:00","0","0","0.0","10","300","64","98","323","7526","-25192","3","150","149.80","116.88","32.92","27.68","30.1","8.57","89468","28.69","DUALSPOT-UV-BLUE-GREEN-RED-IR","628749","649882","904167","23.244682","8.688198","0.020891","636844","835824","763435","17.404376","6.220133","0.024108","733354","848446","813222","14.604362","5.117148","0.026129","751000","883759","867463","11.672523","3.992528","0.028414","663217","819732","954894","7.444908","2.350926","0.030766","3963","6306","7705","3890","5698","6703","3739","5238","6046","3691","4897","5523","3446","4147","4470","DualSpot on"
"MA200-0416","53596","114","1","1.10","1.6","2023-07-31T03:40:00","120","2023/07/31","03:40:00","0","0","0.0","10","300","64","98","376","7508","-25156","3","150","149.76","117.42","32.34","27.61","30.2","8.59","89472","28.63","DUALSPOT-UV-BLUE-GREEN-RED-IR","626827","650625","908406","24.015160","9.040092","0.021383","631529","831781","761676","18.010216","6.473881","0.024897","732151","849717","816155","15.126348","5.326462","0.027306","746071","880279","865434","12.100707","4.155934","0.030576","660137","817467","953144","7.727543","2.449035","0.035707","3854","6390","7922","3824","5816","6934","3690","5373","6287","3658","5069","5806","3362","4237","4643","DualSpot on"
"MA200-0416","53597","114","1","1.10","1.6","2023-07-31T03:45:00","120","2023/07/31","03:45:00","0","0","0.0","10","300","64","98","424","7632","-25208","3","150","149.84","117.28","32.55","27.56","30.4","8.62","89480","28.56","DUALSPOT-UV-BLUE-GREEN-RED-IR","620990","647160","906732","24.768230","9.390675","0.021064","630274","832944","764670","18.602170","6.727952","0.024792","727798","847200","815421","15.633188","5.534316","0.027187","741626","877251","863885","12.516803","4.317022","0.030042","657818","816076","952460","8.007667","2.547142","0.034643","3771","6325","7885","3741","5785","6944","3587","5301","6239","3559","4964","5704","3336","4210","4617","DualSpot on"
"MA200-0416","53598","114","1","1.10","1.6","2023-07-31T03:50:00","120","2023/07/31","03:50:00","0","0","0.0","10","300","64","99","300","7515","-24988","3","150","150.24","118.26","31.98","27.51","30.5","8.63","89488","28.50","DUALSPOT-UV-BLUE-GREEN-RED-IR","614652","643168","904285","25.528308","9.743942","0.021061","625779","829817","763736","19.200910","6.982249","0.024628","723084","844235","814279","16.149323","5.745626","0.027487","736823","873864","861906","12.940063","4.480469","0.030587","655157","814267","951313","8.291572","2.647434","0.037449","3774","6489","8164","3753","5895","7120","3623","5486","6515","3590","5128","5942","3353","4381","4863","DualSpot on"
"MA200-0416","53599","114","1","1.10","1.6","2023-07-31T03:55:00","120","2023/07/31","03:55:00","0","0","0.0","11","300","64","99","284","7552","-25200","3","150","149.39","117.46","31.92","27.45","30.6","8.63","89492","28.44","DUALSPOT-UV-BLUE-GREEN-RED-IR","612384","643392","907851","26.288258","10.101761","0.020667","619999","824948","761223","19.797710","7.240618","0.024405","718217","841085","812977","16.662426","5.957080","0.026741","731322","869563","859112","13.363150","4.645884","0.030085","651988","811817","949406","8.578224","2.748119","0.035067","3800","6583","8320","3766","5999","7287","3626","5499","6541","3613","5198","6043","3409","4405","4875","DualSpot on"
"MA200-0416","53600","114","1","1.10","1.6","2023-07-31T04:00:00","120","2023/07/31","04:00:00","0","0","0.0","11","300","64","99","269","7580","-25169","3","150","149.80","117.87","31.93","27.41","30.7","8.64","89500","28.44","DUALSPOT-UV-BLUE-GREEN-RED-IR","607455","640904","907869","27.091404","10.484383","0.020415","616944","823765","762176","20.412938","7.507134","0.023835","718136","843653","817220","17.191848","6.176526","0.026334","733472","874391","865369","13.797947","4.815763","0.029318","654104","816008","955285","8.871204","2.850641","0.033886","4002","7038","8954","3869","6187","7535","3729","5705","6813","3700","5337","6214","3472","4485","4964","DualSpot on"
"MA200-0416","53601","114","1","1.10","1.6","2023-07-31T04:05:00","120","2023/07/31","04:05:00","0","0","0.0","11","300","64","99","348","7584","-25060","3","150","149.80","117.67","32.13","27.37","30.7","8.62","89500","28.38","DUALSPOT-UV-BLUE-GREEN-RED-IR","601894","637665","906727","27.891682","10.869427","0.019909","615856","825187","765564","21.032758","7.779300","0.023350","714297","841765","817244","17.726108","6.398827","0.025413","730174","872840","865330","14.238382","4.988063","0.028077","652231","815267","955429","9.171295","2.956715","0.033034","3994","7038","8982","3904","6279","7673","3769","5744","6859","3755","5380","6256","3562","4611","5111","DualSpot on"
"MA200-0416","53602","114","1","1.10","1.6","2023-07-31T04:10:00","120","2023/07/31","04:10:00","0","0","0.0","11","300","64","99","500","7611","-24448","3","150","150.56","117.34","33.21","27.34","30.7","8.59","89496","28.31","DUALSPOT-UV-BLUE-GREEN-RED-IR","596414","634568","905957","28.719414","11.268906","0.018702","611742","822616","765340","21.677662","8.062196","0.021531","709282","838552","816015","18.282406","6.631524","0.023437","725118","869194","863231","14.696495","5.168176","0.025516","649298","813226","954141","9.489845","3.069626","0.028619","4143","7064","8950","4074","6314","7640","3935","5816","6886","3916","5440","6266","3792","4748","5206","DualSpot on"
"MA200-0416","53603","114","1","1.10","1.6","2023-07-31T04:15:00","120","2023/07/31","04:15:00","0","0","0.0","11","300","64","99","324","7632","-25528","3","150","149.53","117.62","31.91","27.28","30.8","8.59","89496","28.31","DUALSPOT-UV-BLUE-GREEN-RED-IR","593664","634170","908804","29.497188","11.645985","0.019167","605404","816923","762133","22.296122","8.335883","0.022518","703986","834863","814239","18.820278","6.857336","0.024591","719863","865226","860856","15.146307","5.346602","0.027513","645994","810754","952254","9.799961","3.179185","0.031547","3884","6941","8936","3898","6358","7828","3796","5875","7067","3836","5610","6578","3683","4796","5331","DualSpot on"
"MA200-0416","53604","114","1","1.10","1.6","2023-07-31T04:20:00","120","2023/07/31","04:20:00","0","0","0.0","11","300","64","99","279","7670","-25158","3","150","150.35","117.72","32.62","27.26","30.9","8.61","89500","28.25","DUALSPOT-UV-BLUE-GREEN-RED-IR","590722","633231","910610","30.191224","11.991760","0.018866","603037","816227","763402","22.857052","8.588387","0.021876","701062","833763","814862","19.309436","7.065935","0.023789","716608","863425","860454","15.551754","5.509603","0.026430","644421","810213","952603","10.081139","3.282383","0.032211","3462","6225","8045","3532","5737","7064","3449","5308","6380","3455","5012","5866","3336","4418","4941","DualSpot on"
"MA200-0416","53605","114","1","1.10","1.6","2023-07-31T04:25:00","120","2023/07/31","04:25:00","0","0","0.0","11","300","64","99","296","7715","-25357","3","150","149.62","117.24","32.38","27.22","31.0","8.61","89500","28.19","DUALSPOT-UV-BLUE-GREEN-RED-IR","585377","629569","908327","30.850976","12.323910","0.018739","602279","817597","766543","23.391354","8.830470","0.021681","700915","835782","818489","19.776662","7.268430","0.023953","718956","868264","866631","15.942135","5.667174","0.026174","642391","809066","952189","10.349758","3.379669","0.030549","3305","6025","7834","3378","5542","6855","3308","5192","6286","3340","4882","5732","3200","4197","4680","DualSpot on"
"MA200-0416","53606","114","1","1.10","1.6","2023-07-31T04:30:00","120","2023/07/31","04:30:00","0","0","0.0","11","300","64","98","332","7928","-25148","3","150","149.76","117.30","32.46","27.19","31.0","8.58","89500","28.19","DUALSPOT-UV-BLUE-GREEN-RED-IR","578105","624902","905827","31.808712","12.784252","0.017354","596111","812949","764942","24.195826","9.186269","0.020290","694405","831516","816801","20.485268","7.567227","0.022149","711334","862257","862729","16.545170","5.906958","0.024454","637756","805523","949550","10.790302","3.538522","0.028802","4795","8329","10704","5084","8125","9987","5015","7642","9181","5157","7411","8662","5246","6836","7612","DualSpot on"
"MA200-0416","53607","114","1","1.10","1.6","2023-07-31T04:35:00","120","2023/07/31","04:35:00","0","0","0.0","11","300","64","98","408","7624","-25092","3","150","150.05","117.59","32.47","27.15","31.0","8.54","89500","28.13","DUALSPOT-UV-BLUE-GREEN-RED-IR","573781","622937","906829","32.688888","13.217010","0.017353","592222","810839","765461","24.935462","9.518767","0.020212","691083","830567","818147","21.142280","7.848961","0.022137","709048","862310","864731","17.105708","6.133685","0.024570","636302","805702","951180","11.202312","3.692001","0.030575","4396","7829","10159","4662","7592","9401","4638","7204","8719","4782","7006","8249","4894","6604","7444","DualSpot on"
"MA200-0416","53608","114","1","1.10","1.6","2023-07-31T04:40:00","120","2023/07/31","04:40:00","0","0","0.0","11","300","64","99","330","7734","-25180","3","150","149.61","117.12","32.48","27.12","31.0","8.55","89504","28.13","DUALSPOT-UV-BLUE-GREEN-RED-IR","570246","620987","906834","33.306720","13.531902","0.017570","589069","808743","765267","25.445286","9.755469","0.020523","687512","828334","817554","21.590430","8.045621","0.022294","704908","859140","862866","17.482386","6.289496","0.024838","638007","809220","956291","11.466000","3.789220","0.028755","3098","5693","7469","3226","5401","6754","3176","5026","6124","3226","4812","5703","3145","4180","4692","DualSpot on"
