"Serial number","Datum ID","Session ID","Data format version","Firmware version","App version","Date / time local","Timezone offset (mins)","Date local (yyyy/MM/dd)","Time local (hh:mm:ss)","GPS lat (ddmm.mmmmm)","GPS long (dddmm.mmmmm)","GPS speed (km/h)","GPS sat count","Timebase (s)","Status","Battery remaining (%)","Accel X","Accel Y","Accel Z","Tape position","Flow setpoint (mL/min)","Flow total (mL/min)","Flow1 (mL/min)","Flow2 (mL/min)","Sample temp (C)","Sample RH (%)","Sample dewpoint (C)","Internal pressure (Pa)","Internal temp (C)","Optical config","UV Sen1","UV Sen2","UV Ref","UV ATN1","UV ATN2","UV K","Blue Sen1","Blue Sen2","Blue Ref","Blue ATN1","Blue ATN2","Blue K","Green Sen1","Green Sen2","Green Ref","Green ATN1","Green ATN2","Green K","Red Sen1","Red Sen2","Red Ref","Red ATN1","Red ATN2","Red K","IR Sen1","IR Sen2","IR Ref","IR ATN1","IR ATN2","IR K","UV BC1","UV BC2","UV BCc","Blue BC1","Blue BC2","Blue BCc","Green BC1","Green BC2","Green BCc","Red BC1","Red BC2","Red BCc","IR BC1","IR BC2","IR BCc","Readable status"
"MA200-0420","24079","56","1","1.10","1.4","2023-05-07T14:06:00","120","2023/05/07","14:06:00","-15.7872913479805","35.035118494182825","0.0","18","30","66","51","-6058","22841","-2925","5","150","149.34","112.36","36.98","33.97","38.1","17.71","89444","33.19","DUALSPOT-UV-BLUE-GREEN-RED-IR","804790","715238","908255","0.000000","0.000000","0.000000","901666","908544","837442","0.000000","0.000000","0.000000","882203","885084","833191","0.000000","0.000000","0.000000","895572","884248","890129","0.000000","0.000000","0.000000","772366","899603","964428","0.000000","0.000000","0.000000","","","","","","","","","","","","","","","","Start up"
"MA200-0420","24080","56","1","1.10","1.4","2023-05-07T14:06:30","120","2023/05/07","14:06:30","-15.787296652793884","35.03510665893555","0.0","18","30","66","51","-6145","22666","-2970","5","150","148.10","111.57","36.53","34.00","37.7","17.53","89440","33.25","DUALSPOT-UV-BLUE-GREEN-RED-IR","803952","714786","907882","0.000000","0.000000","0.000000","900816","907837","836990","0.000000","0.000000","0.000000","881385","884395","832690","0.000000","0.000000","0.000000","894412","883235","889228","0.000000","0.000000","0.000000","771303","898537","963321","0.000000","0.000000","0.000000","","","","","","","","","","","","","","","","Start up"
"MA200-0420","24081","56","1","1.10","1.4","2023-05-07T14:07:00","120","2023/05/07","14:07:00","-15.787298321723938","35.035108491778374","0.1","18","30","66","51","-6004","22791","-2808","5","150","149.65","113.16","36.49","34.02","37.2","17.35","89444","33.31","DUALSPOT-UV-BLUE-GREEN-RED-IR","804546","715498","908934","0.000000","0.000000","0.000000","901814","908992","838128","0.000000","0.000000","0.000000","878077","881186","829739","0.000000","0.000000","0.000000","897291","886148","892259","0.000000","0.000000","0.000000","773144","900754","965767","0.000000","0.000000","0.000000","","","","","","","","","","","","","","","","Start up"
"MA200-0420","24082","56","1","1.10","1.4","2023-05-07T14:07:30","120","2023/05/07","14:07:30","-15.787289023399353","35.03512166440487","0.1","18","30","66","50","-5941","22800","-2783","5","150","149.59","113.16","36.43","34.03","36.8","17.18","89444","33.31","DUALSPOT-UV-BLUE-GREEN-RED-IR","803017","714381","907644","0.000000","0.000000","0.000000","899926","907253","836629","0.000000","0.000000","0.000000","881770","884990","833418","0.000000","0.000000","0.000000","895748","884705","890904","0.000000","0.000000","0.000000","772072","899600","964523","0.000000","0.000000","0.000000","","","","","","","","","","","","","","","","Start up"
"MA200-0420","24083","56","1","1.10","1.4","2023-05-07T14:08:00","120","2023/05/07","14:08:00","-15.78728985786438","35.035112991929054","0.0","18","30","64","51","-6020","22820","-3004","5","150","150.15","113.39","36.75","34.05","36.5","17.07","89444","33.31","DUALSPOT-UV-BLUE-GREEN-RED-IR","799719","711671","904309","0.000000","0.000000","0.000000","903092","910567","839738","0.000000","0.000000","0.000000","878512","881827","830481","0.000000","0.000000","0.000000","897373","886370","892610","0.000000","0.000000","0.000000","773172","900966","966035","0.000000","0.000000","0.000000","","","","","","","","","","","","","","","",""
"MA200-0420","24084","56","1","1.10","1.4","2023-05-07T14:08:30","120","2023/05/07","14:08:30","-15.787256002426147","35.035100158303976","0.3","18","30","64","51","-2637","23345","-2491","5","150","149.41","113.52","35.89","34.06","36.1","16.93","89444","33.31","DUALSPOT-UV-BLUE-GREEN-RED-IR","804442","716049","910016","0.042884","0.014102","0.000000","902078","909672","838997","0.023394","0.010699","0.000000","878061","881465","830216","0.018530","0.007766","0.000000","890537","879664","885934","0.014871","0.007347","0.000000","773097","900961","966029","0.010202","0.001533","0.000000","2218","2308","2218","1527","2210","1527","1355","1796","1355","1314","2053","1314","1255","596","1255",""
"MA200-0420","24085","56","1","1.10","1.4","2023-05-07T14:09:00","120","2023/05/07","14:09:00","-15.787226140499115","35.035160321742296","0.0","18","30","64","51","-3420","23245","-2533","5","150","149.89","113.86","36.02","34.07","35.8","16.80","89440","33.38","DUALSPOT-UV-BLUE-GREEN-RED-IR","799499","711960","904923","0.093926","0.027662","0.000000","903466","911279","840544","0.052857","0.018090","0.000000","877950","881509","830327","0.043439","0.014871","0.000000","891152","880400","886702","0.032228","0.011632","0.000000","773373","901399","966511","0.022850","0.004806","0.000000","2632","2210","2632","1918","1520","1918","1816","1637","1816","1529","1193","1529","1551","1269","1551",""
"MA200-0420","24086","56","1","1.10","1.4","2023-05-07T14:09:30","120","2023/05/07","14:09:30","-15.787225008010864","35.03516299277544","0.0","18","30","64","51","-3612","23200","-2412","5","150","149.50","113.43","36.07","34.09","35.5","16.68","89444","33.44","DUALSPOT-UV-BLUE-GREEN-RED-IR","800644","713161","906593","0.137175","0.041118","0.000000","904809","912750","841965","0.076406","0.026792","0.000000","878952","882602","831418","0.060909","0.022548","0.000000","892415","881746","888090","0.047272","0.018056","0.000000","774582","902831","968092","0.032278","0.006671","0.000000","2239","2191","2239","1539","1788","1539","1278","1767","1278","1330","1786","1330","1161","722","1161",""
"MA200-0420","24087","56","1","1.10","1.4","2023-05-07T14:10:00","120","2023/05/07","14:10:00","-15.787229001522064","35.035156823694706","0.0","18","30","64","50","-3471","23240","-2552","5","150","150.15","113.44","36.71","34.11","35.3","16.61","89440","33.50","DUALSPOT-UV-BLUE-GREEN-RED-IR","801173","713903","907641","0.184549","0.056713","0.000000","898408","906471","836279","0.102358","0.034981","0.000000","880250","884059","832815","0.082838","0.027918","0.000000","894101","883474","889894","0.062197","0.022594","0.000000","770763","898419","963386","0.042737","0.008767","0.000000","2452","2495","2452","1695","1653","1695","1604","1214","1604","1319","1240","1319","1288","797","1288",""
"MA200-0420","24088","56","1","1.10","1.4","2023-05-07T14:10:30","120","2023/05/07","14:10:30","-15.787224471569061","35.03515798971057","0.0","18","30","64","50","-3444","23344","-2472","5","150","149.87","113.68","36.19","34.14","35.1","16.54","89436","33.56","DUALSPOT-UV-BLUE-GREEN-RED-IR","802960","715739","910104","0.233959","0.069854","0.000000","900110","908350","838053","0.129771","0.041449","0.000000","876378","880295","829327","0.104242","0.033986","0.000000","895241","884726","891181","0.078958","0.026689","0.000000","771931","899872","964953","0.053869","0.011107","0.000000","2552","2132","2552","1787","1324","1787","1563","1391","1563","1479","1135","1479","1367","903","1367",""
"MA200-0420","24089","56","1","1.10","1.4","2023-05-07T14:11:00","120","2023/05/07","14:11:00","-15.787223994731903","35.035156324505806","0.0","18","30","64","50","-3483","23279","-2500","5","150","149.95","113.23","36.72","34.18","35.0","16.53","89436","33.63","DUALSPOT-UV-BLUE-GREEN-RED-IR","801179","714346","908509","0.280863","0.083284","0.000000","899093","907512","837319","0.154644","0.047344","0.000000","875328","879362","828496","0.123536","0.038576","0.000000","895093","884687","891177","0.093358","0.031552","0.000000","771563","899522","964592","0.063405","0.012602","0.000000","2433","2148","2433","1628","1190","1628","1414","1037","1414","1275","1328","1275","1176","568","1176",""
"MA200-0420","24090","56","1","1.10","1.4","2023-05-07T14:11:30","120","2023/05/07","14:11:30","-15.787240445613861","35.03517099097371","1.0","18","30","64","50","-1360","23436","-2648","5","150","150.67","113.78","36.88","34.20","34.8","16.45","89432","33.69","DUALSPOT-UV-BLUE-GREEN-RED-IR","799209","712861","906721","0.326861","0.097141","0.000000","904093","912689","842178","0.178080","0.055742","0.000000","878260","882436","831440","0.141447","0.043976","0.000000","891055","880755","887287","0.106638","0.035551","0.000000","773720","902115","967412","0.074167","0.015812","0.000000","2374","2206","2374","1526","1687","1526","1306","1215","1306","1170","1087","1170","1321","1215","1321",""
"MA200-0420","24091","56","1","1.10","1.4","2023-05-07T14:12:00","120","2023/05/07","14:12:00","-15.787564635276794","35.03594582527876","2.0","18","30","64","50","-4550","23120","-2341","5","150","150.21","113.51","36.71","34.22","34.6","16.37","89388","33.75","DUALSPOT-UV-BLUE-GREEN-RED-IR","798768","712708","906655","0.376544","0.113794","0.000000","897362","906073","836151","0.204670","0.065785","0.000000","878308","882614","831702","0.162940","0.052196","0.000000","891434","881256","887845","0.124675","0.043501","0.000000","773405","901833","967160","0.084495","0.018610","0.000000","2570","2664","2570","1736","2028","1736","1572","1859","1572","1594","2173","1594","1271","1065","1271",""
"MA200-0420","24092","56","1","1.10","1.4","2023-05-07T14:12:30","120","2023/05/07","14:12:30","-15.787578642368317","35.035860657691956","1.8","18","30","64","50","-4232","23420","-2120","5","150","149.89","113.59","36.30","34.25","34.2","16.25","89392","33.81","DUALSPOT-UV-BLUE-GREEN-RED-IR","799658","713711","908090","0.425126","0.130125","0.000000","897596","906434","836583","0.232708","0.076216","0.000000","879185","883603","832677","0.186794","0.061875","0.000000","893208","883045","889727","0.141489","0.050059","0.000000","770111","898045","963104","0.097377","0.023187","0.000000","2512","2642","2512","1829","2130","1829","1743","2213","1743","1485","1812","1485","1584","1761","1584",""
"MA200-0420","24093","56","1","1.10","1.4","2023-05-07T14:13:00","120","2023/05/07","14:13:00","-15.787299156188965","35.035238329321146","3.5","18","30","64","49","-5929","22816","-2379","5","150","149.85","113.49","36.35","34.29","33.9","16.11","89428","33.81","DUALSPOT-UV-BLUE-GREEN-RED-IR","800944","715080","909988","0.470931","0.145866","0.000000","899343","908363","838437","0.258505","0.085586","0.000000","880207","884748","833829","0.207239","0.069922","0.000000","893358","883295","890027","0.157290","0.056436","0.000000","769985","897957","963053","0.108112","0.026653","0.000000","2370","2543","2370","1685","1910","1685","1495","1837","1495","1396","1760","1396","1321","1331","1321",""
"MA200-0420","24094","56","1","1.10","1.4","2023-05-07T14:13:30","120","2023/05/07","14:13:30","-15.78685837984085","35.03422882407904","4.6","18","30","64","50","-6308","22573","-2744","5","150","149.56","113.31","36.25","34.32","33.7","16.05","89508","33.88","DUALSPOT-UV-BLUE-GREEN-RED-IR","801105","715539","910766","0.537896","0.165437","0.000000","899767","909041","839162","0.299584","0.099117","0.000000","875216","879921","829342","0.239861","0.079590","0.000000","893718","883833","890627","0.183427","0.063980","0.000000","769982","898070","963194","0.124811","0.030910","0.000000","3471","3171","3471","2687","2766","2687","2390","2214","2390","2314","2087","2314","2058","1640","2058",""
"MA200-0420","24095","56","1","1.10","1.4","2023-05-07T14:14:00","120","2023/05/07","14:14:00","-15.786655187606812","35.033225160092115","3.5","18","30","64","49","-6779","22604","-3207","5","150","150.47","113.39","37.08","34.34","33.5","15.97","89588","33.88","DUALSPOT-UV-BLUE-GREEN-RED-IR","801216","715954","911444","0.597025","0.181703","0.000000","900115","909640","839808","0.335288","0.109261","0.000000","875178","880089","829582","0.270736","0.088531","0.000000","895370","885592","892491","0.206136","0.071175","0.000000","770789","899148","964408","0.141662","0.034617","0.000000","3062","2576","3062","2334","2027","2334","2260","2001","2260","2009","1946","2009","2076","1396","2076",""
"MA200-0420","24096","56","1","1.10","1.4","2023-05-07T14:14:30","120","2023/05/07","14:14:30","-15.786546349525452","35.03232949972153","3.3","18","30","64","50","-6080","22684","-3332","5","150","149.77","113.31","36.46","34.36","33.2","15.86","89664","33.88","DUALSPOT-UV-BLUE-GREEN-RED-IR","795814","711550","906042","0.673449","0.206733","0.000000","900972","910849","841078","0.385945","0.126302","0.000000","875372","880555","830161","0.312548","0.102198","0.000000","895056","885504","892484","0.239896","0.082156","0.000000","771080","899654","965041","0.165798","0.041266","0.000000","3961","4031","3961","3314","3464","3314","3063","3111","3063","2989","3021","2989","2975","2547","2975",""
"MA200-0420","24097","56","1","1.10","1.4","2023-05-07T14:15:00","120","2023/05/07","14:15:00","-15.786051392555237","35.03220933303237","2.3","18","30","64","49","-2241","23370","-3104","5","150","150.41","113.55","36.86","34.38","33.0","15.77","89648","33.88","DUALSPOT-UV-BLUE-GREEN-RED-IR","795122","711527","906326","0.787462","0.239782","0.000000","900422","910808","841233","0.468164","0.149810","0.000000","875536","881188","830910","0.383561","0.122559","0.000000","888122","879023","886101","0.298476","0.100095","0.000000","771441","900343","965870","0.204280","0.051882","0.000000","5897","5266","5897","5367","4727","5367","5192","4585","5192","5175","4882","5175","4734","4023","4734",""
"MA200-0420","24098","56","1","1.10","1.4","2023-05-07T14:15:30","120","2023/05/07","14:15:30","-15.785965740680695","35.03269199281931","2.9","18","30","64","49","-2800","23324","-4908","5","150","149.69","113.43","36.26","34.40","32.8","15.71","89592","33.94","DUALSPOT-UV-BLUE-GREEN-RED-IR","795009","711786","906821","0.866658","0.262210","0.000000","900262","910980","841499","0.522035","0.164169","0.000000","876136","882051","831815","0.430750","0.135719","0.000000","889355","880437","887603","0.335562","0.109865","0.000000","771764","900857","966460","0.230817","0.058888","0.000000","4100","3632","4100","3520","2935","3520","3454","3013","3454","3280","2702","3280","3268","2698","3268",""
"MA200-0420","24099","56","1","1.10","1.4","2023-05-07T14:16:00","120","2023/05/07","14:16:00","-15.786044478416443","35.033268328756094","1.8","18","30","64","49","-2970","22650","-3945","5","150","150.27","113.46","36.81","34.44","32.7","15.68","89544","34.00","DUALSPOT-UV-BLUE-GREEN-RED-IR","795975","712991","908538","0.931518","0.280254","0.000000","894893","905839","836850","0.563961","0.174707","0.000000","876204","882341","832175","0.464761","0.144893","0.000000","889313","880589","887833","0.362402","0.116535","0.000000","771587","900804","966454","0.248374","0.062802","0.000000","3357","2879","3357","2739","2122","2739","2488","2068","2488","2373","1817","2373","2161","1485","2161",""
"MA200-0420","24100","56","1","1.10","1.4","2023-05-07T14:16:30","120","2023/05/07","14:16:30","-15.786119401454926","35.03382482379675","1.7","18","30","64","49","-2172","23484","-3460","5","150","149.65","113.35","36.30","34.46","32.6","15.66","89484","34.00","DUALSPOT-UV-BLUE-GREEN-RED-IR","795741","713086","908805","0.993661","0.297193","0.000000","894888","906043","837136","0.601750","0.184983","0.000000","876707","883068","832918","0.496304","0.151455","0.000000","891002","882412","889703","0.387513","0.123361","0.000000","772709","902215","967977","0.265575","0.065372","0.000000","3220","2740","3220","2471","2098","2471","2310","1500","2310","2222","1886","2222","2119","989","2119",""
"MA200-0420","24101","56","1","1.10","1.4","2023-05-07T14:17:00","120","2023/05/07","14:17:00","-15.786255300045013","35.03434166684747","2.3","18","30","64","49","-3732","22936","-3507","5","150","149.76","113.11","36.64","34.48","32.6","15.68","89440","34.06","DUALSPOT-UV-BLUE-GREEN-RED-IR","796357","713889","909953","1.040748","0.309730","0.000000","895749","907152","838172","0.630390","0.190771","0.000000","871650","878108","828265","0.518107","0.154960","0.000000","891890","883426","890787","0.404220","0.125609","0.000000","768580","897469","962924","0.276407","0.066550","0.000000","2445","2009","2445","1877","1170","1877","1600","794","1600","1481","615","1481","1337","448","1337",""
"MA200-0420","24102","56","1","1.10","1.4","2023-05-07T14:17:30","120","2023/05/07","14:17:30","-15.786521017551422","35.03493982553482","2.2","18","30","64","49","-3668","23132","-3816","5","150","149.59","113.20","36.39","34.51","32.5","15.67","89416","34.06","DUALSPOT-UV-BLUE-GREEN-RED-IR","790804","709118","903996","1.086491","0.324588","0.000000","896394","907942","838998","0.655674","0.199282","0.000000","872965","879578","829724","0.539457","0.162929","0.000000","892541","884169","891576","0.420773","0.131294","0.000000","768970","897985","963505","0.289249","0.070989","0.000000","2373","2398","2373","1655","1733","1655","1565","1818","1565","1467","1567","1467","1584","1704","1584",""
"MA200-0420","24103","56","1","1.10","1.4","2023-05-07T14:18:00","120","2023/05/07","14:18:00","-15.786764025688171","35.0355108268559","2.1","18","30","64","49","-3441","23266","-4333","5","150","150.15","113.74","36.40","34.53","32.4","15.61","89384","34.13","DUALSPOT-UV-BLUE-GREEN-RED-IR","788873","707561","902158","1.128526","0.337083","0.000000","894936","906608","837834","0.680208","0.207036","0.000000","875892","882638","832649","0.558107","0.168055","0.000000","890427","882178","889559","0.435823","0.136151","0.000000","767449","896300","961731","0.299467","0.073251","0.000000","2170","2016","2170","1598","1579","1598","1361","1169","1361","1327","1338","1327","1254","868","1254",""
"MA200-0420","24104","56","1","1.10","1.4","2023-05-07T14:18:30","120","2023/05/07","14:18:30","-15.78675401210785","35.03583549335599","2.0","18","30","64","49","-3607","23208","-2392","5","150","149.56","113.19","36.37","34.55","32.3","15.60","89376","34.13","DUALSPOT-UV-BLUE-GREEN-RED-IR","791835","710440","905876","1.165393","0.348056","0.000000","897625","909478","840521","0.699490","0.212353","0.000000","873120","879957","830143","0.574785","0.173425","0.000000","887307","879137","886542","0.446772","0.138242","0.000000","769260","898474","964044","0.307174","0.075184","0.000000","1913","1772","1913","1262","1083","1262","1223","1225","1223","970","576","970","951","742","951",""
"MA200-0420","24105","56","1","1.10","1.4","2023-05-07T14:19:00","120","2023/05/07","14:19:00","-15.78663569688797","35.03589365631342","0.0","18","30","64","49","-3639","23220","-2772","5","150","150.15","113.07","37.07","34.59","32.2","15.59","89368","34.19","DUALSPOT-UV-BLUE-GREEN-RED-IR","791928","710734","906352","1.205576","0.359125","0.000000","897535","909534","840612","0.722819","0.217646","0.000000","873936","880902","831077","0.591486","0.176262","0.000000","887611","879537","886986","0.460308","0.141596","0.000000","769958","899339","965030","0.316020","0.076475","0.000000","2087","1753","2087","1529","1058","1529","1226","635","1226","1201","907","1201","1092","486","1092",""
"MA200-0420","24106","56","1","1.10","1.4","2023-05-07T14:19:30","120","2023/05/07","14:19:30","-15.786520302295685","35.03592815622687","2.8","18","30","64","48","-3271","23376","-3052","5","150","149.67","113.23","36.44","34.61","32.2","15.61","89368","34.19","DUALSPOT-UV-BLUE-GREEN-RED-IR","790324","709496","904879","1.244560","0.367635","0.000000","889499","901527","833246","0.742971","0.220894","0.000000","872489","879569","829833","0.609332","0.179433","0.000000","886525","878522","885979","0.471532","0.143207","0.000000","769115","898381","964050","0.323789","0.078010","0.000000","2022","1371","2022","1319","660","1319","1308","722","1308","994","443","994","958","588","958",""
"MA200-0420","24107","56","1","1.10","1.4","2023-05-07T14:20:00","120","2023/05/07","14:20:00","-15.785821974277496","35.03608848899603","3.5","17","30","64","49","-5508","23212","-2050","5","150","150.08","113.82","36.26","34.63","32.2","15.61","89376","34.25","DUALSPOT-UV-BLUE-GREEN-RED-IR","793496","712627","909005","1.300819","0.384359","0.000000","893290","905605","837049","0.770592","0.227940","0.000000","874863","882091","832248","0.629025","0.184184","0.000000","888513","880636","888118","0.487113","0.147319","0.000000","770820","900519","966310","0.335144","0.080058","0.000000","2903","2709","2903","1798","1440","1798","1436","1087","1436","1373","1137","1373","1393","788","1393",""
"MA200-0420","24108","56","1","1.10","1.4","2023-05-07T14:20:30","120","2023/05/07","14:20:30","-15.785123229026794","35.03541215881705","3.2","17","30","64","49","-6643","22428","-3036","5","150","149.76","113.55","36.21","34.66","32.1","15.58","89428","34.25","DUALSPOT-UV-BLUE-GREEN-RED-IR","793862","713140","909782","1.339622","0.396223","0.000000","893914","906313","837787","0.790124","0.235140","0.000000","875228","882551","832731","0.644641","0.188565","0.000000","889225","881382","888901","0.498253","0.150685","0.000000","771430","901271","967144","0.342496","0.080697","0.000000","2007","1924","2007","1275","1474","1275","1141","1004","1141","984","932","984","904","246","904",""
"MA200-0420","24109","56","1","1.10","1.4","2023-05-07T14:21:00","120","2023/05/07","14:21:00","-15.784396171569824","35.035141158849","5.0","17","30","64","49","-4400","23487","-1462","5","150","149.82","113.07","36.75","34.68","31.9","15.51","89476","34.25","DUALSPOT-UV-BLUE-GREEN-RED-IR","793669","713180","909959","1.382784","0.409358","0.000000","893728","906287","837808","0.814145","0.241745","0.000000","875705","883125","833321","0.664299","0.195157","0.000000","890633","882872","890464","0.512886","0.155975","0.000000","771741","901708","967612","0.351615","0.083306","0.000000","2242","2099","2242","1574","1332","1574","1443","1489","1443","1298","1444","1298","1126","991","1126",""
"MA200-0420","24110","56","1","1.10","1.4","2023-05-07T14:21:30","120","2023/05/07","14:21:30","-15.783898890018463","35.034890823066235","2.3","17","30","64","48","-3995","22525","-6391","5","150","149.32","113.39","35.93","34.70","31.8","15.48","89528","34.31","DUALSPOT-UV-BLUE-GREEN-RED-IR","794637","714216","911399","1.421141","0.421758","0.000000","895157","907869","839346","0.834828","0.248026","0.000000","875532","883084","833308","0.679814","0.198555","0.000000","890297","882590","890192","0.523322","0.157899","0.000000","771401","901354","967255","0.359849","0.084944","0.000000","1986","2027","1986","1352","1296","1352","1136","785","1136","923","537","923","1014","636","1014",""
"MA200-0420","24111","56","1","1.10","1.4","2023-05-07T14:22:00","120","2023/05/07","14:22:00","-15.784842848777771","35.033844999969006","5.7","17","30","64","48","-4391","23100","-4100","5","150","149.67","113.64","36.03","34.73","31.6","15.42","89492","34.31","DUALSPOT-UV-BLUE-GREEN-RED-IR","792756","712763","909658","1.463298","0.433700","0.000000","892734","905552","837245","0.855654","0.254553","0.000000","874567","882195","832504","0.695633","0.203341","0.000000","889536","881930","889564","0.535827","0.161975","0.000000","770595","900487","966330","0.368968","0.086479","0.000000","2178","1946","2178","1358","1342","1358","1155","1102","1155","1104","1135","1104","1120","595","1120",""
"MA200-0420","24112","56","1","1.10","1.4","2023-05-07T14:22:30","120","2023/05/07","14:22:30","-15.785413980484009","35.03395766019821","2.1","17","30","64","49","-1856","23216","-3444","5","150","150.08","113.57","36.51","34.76","31.4","15.33","89460","34.31","DUALSPOT-UV-BLUE-GREEN-RED-IR","793026","713226","910387","1.509242","0.448350","0.000000","894405","907413","839031","0.881302","0.262159","0.000000","875338","883115","833443","0.717097","0.209898","0.000000","891723","884188","891898","0.552208","0.166869","0.000000","771787","901971","967931","0.381273","0.088385","0.000000","2376","2356","2376","1674","1544","1674","1568","1490","1568","1447","1344","1447","1513","729","1513",""
"MA200-0420","24113","56","1","1.10","1.4","2023-05-07T14:23:00","120","2023/05/07","14:23:00","-15.785750806331635","35.035125993192196","5.4","17","30","64","48","-3758","23337","-3433","5","150","150.01","113.47","36.54","34.77","31.2","15.26","89392","34.31","DUALSPOT-UV-BLUE-GREEN-RED-IR","787075","708073","903886","1.549560","0.459552","0.000000","893790","906895","838593","0.902539","0.269425","0.000000","876363","884248","834543","0.734877","0.215470","0.000000","891728","884263","892001","0.564799","0.171210","0.000000","766998","896424","962038","0.391527","0.090841","0.000000","2086","1800","2086","1387","1474","1387","1300","1266","1300","1113","1192","1113","1262","939","1262",""
"MA200-0420","24114","56","1","1.10","1.4","2023-05-07T14:23:30","120","2023/05/07","14:23:30","-15.785804152488708","35.036060489714146","4.4","17","30","64","48","-5666","22650","-4833","5","150","149.76","113.59","36.17","34.79","31.1","15.20","89372","34.31","DUALSPOT-UV-BLUE-GREEN-RED-IR","787648","708841","904936","1.587336","0.469322","0.000000","894123","907441","839142","0.924390","0.274151","0.000000","876191","884178","834565","0.751805","0.220507","0.000000","891430","884066","891854","0.578084","0.174204","0.000000","771119","901351","967355","0.400636","0.092722","0.000000","1953","1586","1953","1426","968","1426","1237","1156","1237","1173","830","1173","1120","726","1120",""
"MA200-0420","24115","56","1","1.10","1.4","2023-05-07T14:24:00","120","2023/05/07","14:24:00","-15.78559285402298","35.03673915937543","2.7","17","30","64","48","-4512","23072","-2192","5","150","149.82","113.62","36.20","34.81","30.9","15.16","89380","34.31","DUALSPOT-UV-BLUE-GREEN-RED-IR","786967","708602","904849","1.661658","0.488328","0.000000","894266","907839","839647","0.966286","0.285172","0.000000","870145","878333","829094","0.785577","0.228822","0.000000","891289","884108","891928","0.603525","0.180000","0.000000","766574","896151","961796","0.421197","0.097494","0.000000","3841","3084","3841","2733","2257","2733","2467","1907","2467","2246","1606","2246","2527","1841","2527",""
"MA200-0420","24116","56","1","1.10","1.4","2023-05-07T14:24:30","120","2023/05/07","14:24:30","-15.784833252429962","35.03677165880799","3.8","17","30","64","48","-6611","22488","-5684","5","150","149.56","113.35","36.21","34.83","30.8","15.11","89424","34.38","DUALSPOT-UV-BLUE-GREEN-RED-IR","786043","708001","904212","1.712461","0.503828","0.000000","893867","907617","839466","0.993633","0.292456","0.000000","870316","878621","829373","0.805759","0.231701","0.000000","891611","884515","892379","0.618617","0.184390","0.000000","766940","896665","962374","0.432371","0.099183","0.000000","2632","2513","2632","1788","1491","1788","1478","660","1478","1335","1216","1335","1377","651","1377",""
"MA200-0420","24117","56","1","1.10","1.4","2023-05-07T14:25:00","120","2023/05/07","14:25:00","-15.784182846546173","35.036130990833044","3.6","17","30","64","48","-5695","22750","-4000","5","150","149.44","112.84","36.60","34.85","30.7","15.05","89480","34.38","DUALSPOT-UV-BLUE-GREEN-RED-IR","786364","708468","904881","1.746389","0.514514","0.000000","892859","906688","838636","1.011734","0.298560","0.000000","869521","877902","828755","0.821566","0.238293","0.000000","890171","883117","891030","0.629892","0.187938","0.000000","766061","895645","961300","0.440597","0.101140","0.000000","1766","1714","1766","1189","1236","1189","1163","1495","1163","1002","972","1002","1018","746","1018",""
"MA200-0420","24118","56","1","1.10","1.4","2023-05-07T14:25:30","120","2023/05/07","14:25:30","-15.783710837364197","35.035613656044006","1.4","17","30","64","48","-6866","21437","-6933","5","150","149.69","113.19","36.50","34.86","30.5","14.98","89520","34.38","DUALSPOT-UV-BLUE-GREEN-RED-IR","787615","709850","906766","1.796566","0.529529","0.000000","895349","909393","841235","1.037561","0.305712","0.000000","870440","878982","829815","0.841307","0.243443","0.000000","891254","884345","892282","0.645333","0.192568","0.000000","766850","896717","962443","0.451356","0.104416","0.000000","2603","2416","2603","1691","1452","1691","1447","1171","1447","1368","1272","1368","1327","1253","1327",""
"MA200-0420","24119","56","1","1.10","1.4","2023-05-07T14:26:00","120","2023/05/07","14:26:00","-15.783420264720917","35.03538332879543","2.6","17","30","64","48","-4544","23064","-1588","5","150","149.65","113.53","36.12","34.88","30.4","14.94","89548","34.31","DUALSPOT-UV-BLUE-GREEN-RED-IR","787398","709883","906937","1.842850","0.540905","0.000000","895239","909492","841359","1.065784","0.311732","0.000000","870390","879073","829938","0.862813","0.246960","0.000000","890903","884086","892053","0.661100","0.195010","0.000000","766686","896548","962302","0.461917","0.106129","0.000000","2394","1849","2394","1842","1235","1842","1572","808","1572","1393","678","1393","1299","662","1299",""
"MA200-0420","24120","56","1","1.10","1.4","2023-05-07T14:26:30","120","2023/05/07","14:26:30","-15.782730460166931","35.036081824451685","4.0","17","30","64","48","-4672","23044","-2808","5","150","149.76","113.78","35.97","34.88","30.3","14.86","89588","34.38","DUALSPOT-UV-BLUE-GREEN-RED-IR","786087","709219","906320","1.923475","0.562749","0.000000","893664","908188","840265","1.105964","0.322556","0.000000","870498","879409","830357","0.896275","0.257503","0.000000","890983","884328","892370","0.686980","0.201926","0.000000","771359","902185","968373","0.479185","0.109048","0.000000","4161","3566","4161","2617","2230","2617","2441","2433","2441","2281","1928","2281","2119","1133","2119",""
"MA200-0420","24121","56","1","1.10","1.4","2023-05-07T14:27:00","120","2023/05/07","14:27:00","-15.782056510448456","35.03680966049433","4.1","17","30","64","48","-5736","23196","-2444","5","150","149.87","113.47","36.40","34.90","30.1","14.81","89528","34.31","DUALSPOT-UV-BLUE-GREEN-RED-IR","786088","709415","906730","1.984929","0.581804","0.000000","894187","908896","840989","1.136725","0.332331","0.000000","869979","879031","830054","0.920844","0.264298","0.000000","890330","883824","891872","0.704114","0.206798","0.000000","771156","902061","968270","0.492372","0.111696","0.000000","3180","3074","3180","2009","1990","2009","1797","1549","1797","1514","1342","1514","1623","1016","1623",""
"MA200-0420","24122","56","1","1.10","1.4","2023-05-07T14:27:30","120","2023/05/07","14:27:30","-15.782444655895233","35.03741132467985","4.0","17","30","64","48","-3941","22700","-3525","5","150","149.51","113.45","36.06","34.90","30.0","14.74","89460","34.31","DUALSPOT-UV-BLUE-GREEN-RED-IR","783142","706984","903678","2.025597","0.592000","0.000000","891288","906099","838441","1.160675","0.336784","0.000000","873690","882910","833717","0.938421","0.267088","0.000000","888529","882082","890175","0.717990","0.209781","0.000000","769596","900285","966360","0.501144","0.112950","0.000000","2105","1660","2105","1564","915","1564","1286","642","1286","1227","830","1227","1080","485","1080",""
"MA200-0420","24123","56","1","1.10","1.4","2023-05-07T14:28:00","120","2023/05/07","14:28:00","-15.78274941444397","35.03823598846793","4.5","17","30","64","48","-3907","23008","-2048","5","150","149.60","113.81","35.80","34.92","29.9","14.72","89368","34.31","DUALSPOT-UV-BLUE-GREEN-RED-IR","783909","708100","905320","2.090235","0.607725","0.000000","892812","908018","840336","1.203149","0.347888","0.000000","868989","878431","829583","0.973468","0.275308","0.000000","884423","878305","886402","0.744948","0.216229","0.000000","766447","896776","962661","0.518074","0.115471","0.000000","3336","2580","3336","2766","2299","2766","2556","1906","2556","2376","1807","2376","2078","983","2078",""
"MA200-0420","24124","56","1","1.10","1.4","2023-05-07T14:28:30","120","2023/05/07","14:28:30","-15.782645761966705","35.038864992558956","0.0","17","30","64","48","-4166","23175","-1845","5","150","149.85","113.20","36.65","34.92","29.9","14.70","89332","34.31","DUALSPOT-UV-BLUE-GREEN-RED-IR","784292","708947","906663","2.201468","0.640665","0.000000","892762","908444","840895","1.282405","0.369638","0.000000","868842","878702","829990","1.042216","0.294012","0.000000","883888","878046","886263","0.798433","0.230162","0.000000","765985","896407","962336","0.552045","0.124774","0.000000","5771","5279","5771","5190","4399","5190","5042","4237","5042","4740","3814","4740","4192","3546","4192",""
"MA200-0420","24125","56","1","1.10","1.4","2023-05-07T14:29:00","120","2023/05/07","14:29:00","-15.78145945072174","35.03887065500021","5.0","17","30","64","48","-4225","23350","-3825","5","150","149.50","113.43","36.07","34.93","29.9","14.71","89368","34.38","DUALSPOT-UV-BLUE-GREEN-RED-IR","783809","709067","907082","2.307305","0.668792","0.000000","892599","908754","841305","1.350837","0.386488","0.000000","869170","879406","830735","1.096522","0.306600","0.000000","883627","878083","886394","0.841673","0.239848","0.000000","766579","897301","963364","0.580701","0.130418","0.000000","5480","4580","5480","4472","3463","4472","3974","2897","3974","3824","2694","3824","3529","2185","3529",""
"MA200-0420","24126","56","1","1.10","1.4","2023-05-07T14:29:30","120","2023/05/07","14:29:30","-15.780098855495453","35.039172161370516","5.9","17","30","64","48","-4479","22937","-2095","5","150","150.08","113.94","36.14","34.94","29.8","14.68","89356","34.38","DUALSPOT-UV-BLUE-GREEN-RED-IR","782269","708522","906766","2.463324","0.709043","0.000000","891633","908351","841151","1.436799","0.409323","0.000000","868410","879080","830605","1.166164","0.325912","0.000000","882722","877490","885931","0.889574","0.253699","0.000000","765867","896736","962805","0.614999","0.138174","0.000000","8042","6541","8042","5592","4683","5592","5074","4436","5074","4217","3845","4217","4205","2997","4205",""
"MA200-0420","24127","56","1","1.10","1.4","2023-05-07T14:30:00","120","2023/05/07","14:30:00","-15.77885890007019","35.038824658840895","6.3","17","30","64","48","-6570","23125","-2654","5","150","149.50","113.55","35.95","34.94","29.7","14.63","89428","34.38","DUALSPOT-UV-BLUE-GREEN-RED-IR","779566","707171","905557","2.677326","0.768590","0.000000","889773","907475","840680","1.586282","0.450689","0.000000","867076","878525","830396","1.290410","0.360042","0.000000","882380","877777","886466","0.986559","0.280541","0.000000","765496","896720","962980","0.677417","0.154494","0.000000","11070","9728","11070","9759","8529","9759","9084","7881","9084","8569","7490","8569","7679","6341","7679",""
"MA200-0420","24128","56","1","1.10","1.4","2023-05-07T14:30:30","120","2023/05/07","14:30:30","-15.778236150741577","35.03808082267642","3.2","17","30","64","47","-4888","22994","-2751","5","150","149.56","113.27","36.29","34.95","29.6","14.60","89480","34.38","DUALSPOT-UV-BLUE-GREEN-RED-IR","780651","708535","907446","2.760915","0.788906","0.000000","890882","908863","842054","1.635623","0.462347","0.000000","871804","883536","835185","1.329410","0.369209","0.000000","888188","883730","892531","1.017016","0.287692","0.000000","765247","896533","962810","0.697450","0.159091","0.000000","4334","3287","4334","3229","2381","3229","2858","2097","2858","2697","1976","2697","2470","1769","2470",""
"MA200-0420","24129","56","1","1.10","1.4","2023-05-07T14:31:00","120","2023/05/07","14:31:00","-15.777749121189117","35.03734166175127","0.1","17","30","64","47","-5787","22858","-3458","5","150","149.95","113.11","36.84","34.95","29.5","14.56","89500","34.38","DUALSPOT-UV-BLUE-GREEN-RED-IR","779249","707591","906442","2.820125","0.805959","0.000000","888238","906454","839888","1.670151","0.471323","0.000000","865900","877770","829801","1.357793","0.376838","0.000000","880435","876177","884927","1.037058","0.291701","0.000000","764308","895555","961772","0.711235","0.161011","0.000000","3074","2718","3074","2263","1806","2263","2083","1719","2083","1777","1091","1777","1702","728","1702",""
"MA200-0420","24130","56","1","1.10","1.4","2023-05-07T14:31:30","120","2023/05/07","14:31:30","-15.778182804584503","35.03670632466674","4.8","17","30","64","47","-5752","23336","-3004","5","150","150.34","113.51","36.84","34.95","29.5","14.51","89508","34.38","DUALSPOT-UV-BLUE-GREEN-RED-IR","779409","708785","908502","3.008291","0.859653","-0.067598","883546","902351","836359","1.766329","0.498563","0.000000","866433","878864","831025","1.432150","0.397211","0.000000","881144","877261","886156","1.088804","0.306390","0.000000","764669","896205","962544","0.740221","0.168398","0.000000","9736","8561","8091","6281","5482","6281","5438","4591","5438","4573","4000","4573","3567","2801","3567",""
"MA200-0420","24131","56","1","1.10","1.4","2023-05-07T14:32:00","120","2023/05/07","14:32:00","-15.778348565101624","35.035962495952845","4.5","17","30","64","47","-4895","22866","-2366","5","150","149.95","113.62","36.33","34.97","29.4","14.49","89520","34.38","DUALSPOT-UV-BLUE-GREEN-RED-IR","776995","707254","906881","3.157949","0.903186","-0.045754","888692","908112","841902","1.860135","0.524890","0.000000","865245","878068","830400","1.508534","0.417363","0.000000","881797","878243","887276","1.146622","0.321864","0.000000","769534","902097","968983","0.777814","0.178578","0.000000","7736","7038","6759","6120","5372","6120","5581","4605","5581","5105","4273","5105","4621","3914","4621",""
"MA200-0420","24132","56","1","1.10","1.4","2023-05-07T14:32:30","120","2023/05/07","14:32:30","-15.778671979904175","35.03459332883358","6.0","17","30","64","47","-3732","23104","-3044","5","150","150.49","113.68","36.81","34.97","29.3","14.43","89484","34.38","DUALSPOT-UV-BLUE-GREEN-RED-IR","776592","707566","907659","3.298195","0.944175","-0.047856","887702","907603","841609","1.940411","0.549072","0.000000","865445","878653","831100","1.572054","0.436234","0.000000","881723","878437","887573","1.193290","0.335751","0.000000","764785","896723","963236","0.804338","0.185492","0.000000","7246","6541","6258","5234","4870","5234","4638","4256","4638","4118","3785","4118","3259","2624","3259",""
"MA200-0420","24133","56","1","1.10","1.4","2023-05-07T14:33:00","120","2023/05/07","14:33:00","-15.779018640518188","35.03303116187453","6.4","17","30","64","47","-5016","23041","-2754","5","150","150.15","113.49","36.65","34.98","29.1","14.37","89488","34.38","DUALSPOT-UV-BLUE-GREEN-RED-IR","777285","708789","909523","3.389205","0.970645","-0.047784","881386","901644","836285","1.997917","0.565427","0.000000","865552","879161","831754","1.619499","0.451344","0.000000","881681","878715","888008","1.229595","0.347279","0.000000","765201","897456","964120","0.828441","0.190922","0.000000","4710","4241","4053","3756","3307","3756","3470","3422","3470","3209","3155","3209","2966","2069","2966",""
"MA200-0420","24134","56","1","1.10","1.4","2023-05-07T14:33:30","120","2023/05/07","14:33:30","-15.77935415506363","35.03151999786496","6.1","17","30","64","47","-7216","22462","-3570","5","150","150.02","113.59","36.43","34.98","29.1","14.33","89640","34.44","DUALSPOT-UV-BLUE-GREEN-RED-IR","775966","708196","909046","3.539114","1.011461","-0.075829","881270","901999","836732","2.089893","0.589401","0.000000","864782","878757","831481","1.693839","0.467979","0.000000","881721","879007","888410","1.286870","0.360217","0.000000","765215","897632","964363","0.866485","0.199039","0.000000","7751","6580","6111","6002","4878","6002","5433","3791","5433","5058","3563","5058","4678","3112","4678",""
"MA200-0420","24135","56","1","1.10","1.4","2023-05-07T14:34:00","120","2023/05/07","14:34:00","-15.779877781867981","35.02997866086662","5.4","17","30","64","47","-5462","23191","-1316","5","150","149.63","113.35","36.28","34.99","28.9","14.28","89748","34.44","DUALSPOT-UV-BLUE-GREEN-RED-IR","775801","708283","909288","3.580498","1.025388","0.018804","881143","902006","836833","2.111333","0.597126","0.000000","864583","878642","831448","1.711952","0.474852","0.000000","881522","878902","888295","1.297272","0.363723","0.000000","765090","897561","964303","0.874162","0.201500","0.000000","2144","2254","2299","1402","1578","1402","1326","1572","1326","920","969","920","946","947","946",""
"MA200-0420","24136","56","1","1.10","1.4","2023-05-07T14:34:30","120","2023/05/07","14:34:30","-15.78064739704132","35.02889116294682","4.5","17","30","64","47","-5100","22937","-4758","5","150","149.87","113.39","36.48","35.00","28.9","14.24","89812","34.38","DUALSPOT-UV-BLUE-GREEN-RED-IR","776042","708758","910057","3.637136","1.040021","-0.104726","881483","902564","837430","2.142322","0.604904","0.000000","864577","878806","831626","1.736063","0.480765","0.000000","880852","878305","887757","1.315184","0.369615","0.000000","764571","897009","963755","0.884769","0.203651","0.000000","2933","2355","2124","2025","1580","2025","1765","1345","1765","1584","1620","1584","1306","823","1306",""
"MA200-0420","24137","56","1","1.10","1.4","2023-05-07T14:35:00","120","2023/05/07","14:35:00","-15.78135859966278","35.028092328459024","4.2","17","30","64","47","-5308","22841","-3004","5","150","149.63","113.59","36.04","35.00","28.8","14.20","89860","34.44","DUALSPOT-UV-BLUE-GREEN-RED-IR","773177","706797","907876","3.769739","1.081045","-0.009628","878438","899847","835024","2.204209","0.621230","0.000000","863373","877892","830851","1.782447","0.492519","0.000000","878963","876678","886156","1.348349","0.377555","0.000000","763558","895923","962594","0.901075","0.207033","0.000000","6856","6685","6616","4039","3358","4039","3390","2707","3390","2929","2210","2929","2005","1310","2005",""
"MA200-0420","24138","56","1","1.10","1.4","2023-05-07T14:35:30","120","2023/05/07","14:35:30","-15.782231867313385","35.02714332938194","5.3","17","30","64","47","-5208","23116","-1862","5","150","149.94","113.68","36.26","35.00","28.7","14.13","89896","34.44","DUALSPOT-UV-BLUE-GREEN-RED-IR","774736","708452","910123","3.816934","1.095243","-0.022687","880946","902563","837601","2.230489","0.627953","0.000000","864422","879075","832037","1.803440","0.498408","0.000000","880461","878259","887794","1.362243","0.379833","0.000000","764728","897362","964169","0.909956","0.208801","0.000000","2438","2299","2244","1713","1374","1713","1533","1348","1533","1226","630","1226","1091","681","1091",""
"MA200-0420","24139","56","1","1.10","1.4","2023-05-07T14:36:00","120","2023/05/07","14:36:00","-15.783219873905182","35.026152996346354","5.7","17","30","64","47","-6095","22950","-2408","5","150","150.47","113.51","36.97","35.01","28.7","14.14","89944","34.44","DUALSPOT-UV-BLUE-GREEN-RED-IR","773745","708154","909980","3.927692","1.121234","-0.163509","880129","902293","837523","2.312177","0.647872","0.000000","863960","879087","832176","1.875019","0.514996","0.000000","881122","879311","888949","1.418896","0.392354","0.000000","764947","897914","964832","0.949493","0.216281","0.000000","5731","4129","3490","5335","3994","5335","5235","3725","5235","5007","3398","5007","4865","2826","4865",""
"MA200-0420","24140","56","1","1.10","1.4","2023-05-07T14:36:30","120","2023/05/07","14:36:30","-15.784303307533264","35.025253497064114","2.7","17","30","64","47","-4732","22156","-4372","5","150","150.15","113.60","36.55","35.03","28.7","14.19","90024","34.50","DUALSPOT-UV-BLUE-GREEN-RED-IR","770209","706139","907968","4.138607","1.176029","-0.088882","876518","899599","835311","2.441012","0.678944","0.000000","863146","879015","832300","1.973420","0.538474","0.000000","879270","877994","887813","1.490745","0.409517","0.000000","763345","896372","963294","0.994701","0.227246","0.000000","10905","8805","7972","8407","6302","8407","7191","5333","7191","6345","4711","6345","5559","4191","5559",""
"MA200-0420","24141","56","1","1.10","1.4","2023-05-07T14:37:00","120","2023/05/07","14:37:00","-15.78486704826355","35.024887995794415","0.0","17","30","64","47","-3250","23316","-4025","5","150","149.56","113.19","36.37","35.03","28.7","14.15","0","0.00","DUALSPOT-UV-BLUE-GREEN-RED-IR","772573","708468","911090","4.203153","1.195922","-0.014388","879501","902779","838332","2.480602","0.692868","0.000000","863286","879279","832624","2.005344","0.547844","0.000000","880782","879583","889454","1.514711","0.417195","0.000000","764510","897847","964860","1.010662","0.229141","0.000000","3349","3212","3158","2592","2838","2592","2341","2138","2341","2124","2118","2124","1969","728","1969",""
"MA200-0420","24142","56","1","1.10","1.4","2023-05-07T14:37:30","120","2023/05/07","14:37:30","-15.785364151000977","35.02594399638474","5.3","17","30","64","47","-3420","23233","-3012","5","150","150.15","113.47","36.68","35.04","28.7","14.16","0","0.00","DUALSPOT-UV-BLUE-GREEN-RED-IR","771466","708365","911392","4.358467","1.240715","-0.040733","878667","902787","838627","2.595687","0.724166","0.000000","862456","879126","832748","2.104354","0.576400","0.000000","880186","879571","889664","1.592664","0.437883","0.000000","764124","897772","964966","1.063243","0.244709","0.000000","8039","7172","6827","7518","6325","7518","7244","6463","7244","6892","5658","6892","6473","5928","6473",""
"MA200-0420","24143","56","1","1.10","1.4","2023-05-07T14:38:00","120","2023/05/07","14:38:00","-15.785993039608002","35.027479661628604","6.2","17","30","64","46","-3841","23266","-3083","5","150","150.28","113.23","37.05","35.05","28.7","14.19","89880","34.50","DUALSPOT-UV-BLUE-GREEN-RED-IR","762836","704903","909376","5.238083","1.499282","-0.031667","870662","899080","836953","3.288394","0.924986","-0.057287","855753","876170","831436","2.709597","0.751012","0.000000","874301","876872","888254","2.089547","0.581998","0.000000","760837","896163","964125","1.397663","0.338967","0.000000","45628","40994","39136","45352","40185","38163","44377","39131","44377","44026","39028","44026","41258","35542","41258",""
"MA200-0420","24144","56","1","1.10","1.4","2023-05-07T14:38:30","120","2023/05/07","14:38:30","-15.786539316177368","35.028895327821374","5.3","17","30","64","47","-3587","23212","-3541","5","150","149.77","113.20","36.58","35.05","28.7","14.19","89828","34.50","DUALSPOT-UV-BLUE-GREEN-RED-IR","763541","706095","911198","5.386297","1.543285","-0.023852","871734","900724","838671","3.401792","0.957465","-0.055227","856627","877499","832872","2.808785","0.779211","0.000000","875847","878804","890347","2.171937","0.604616","0.000000","761303","896918","965112","1.453346","0.354255","0.000000","7690","7065","6815","7426","6582","6251","7274","6400","7274","7302","6203","7302","6871","5838","6871",""
"MA200-0420","24145","56","1","1.10","1.4","2023-05-07T14:39:00","120","2023/05/07","14:39:00","-15.786344408988953","35.03002899698913","4.6","17","30","64","46","-3616","23404","-3968","5","150","149.59","113.08","36.50","35.06","28.7","14.20","89764","34.50","DUALSPOT-UV-BLUE-GREEN-RED-IR","757981","701259","905125","5.449859","1.562145","-0.023447","872067","901327","839328","3.445548","0.969738","-0.064770","856597","877720","833145","2.845412","0.788283","0.000000","874685","877816","889431","2.202077","0.612901","0.000000","761029","896759","964946","1.473342","0.358872","0.000000","3301","3034","2927","2868","2492","2345","2689","2063","2689","2674","2277","2674","2470","1766","2470",""
"MA200-0420","24146","56","1","1.10","1.4","2023-05-07T14:39:30","120","2023/05/07","14:39:30","-15.786395847797394","35.03109032846987","4.7","17","30","64","46","-5736","22804","-2564","5","150","149.50","113.31","36.19","35.06","28.7","14.20","89704","34.44","DUALSPOT-UV-BLUE-GREEN-RED-IR","762770","705915","911292","5.499347","1.576473","-0.027425","871203","900653","838747","3.477520","0.977182","-0.173910","856303","877567","833078","2.872938","0.795787","0.000000","874172","877408","889052","2.220431","0.618070","0.000000","760677","896392","964619","1.486583","0.362042","0.000000","2565","2325","2229","2091","1524","1303","2016","1721","2016","1625","1433","1625","1632","1223","1632",""
"MA200-0420","24147","56","1","1.10","1.4","2023-05-07T14:40:00","120","2023/05/07","14:40:00","-15.786427676677704","35.03214332833886","1.4","17","30","64","46","-841","23512","-3083","5","150","149.95","112.87","37.08","35.06","28.6","14.16","89656","34.44","DUALSPOT-UV-BLUE-GREEN-RED-IR","761165","704624","909702","5.538164","1.588508","-0.015407","869557","899088","837356","3.500080","0.985467","0.040309","854735","876094","831728","2.890056","0.801527","0.000000","873809","877122","888823","2.234616","0.622407","0.000000","759958","895625","963820","1.493776","0.364171","0.000000","2019","1906","1861","1481","1656","1725","1259","1285","1259","1260","1173","1260","890","802","890",""
"MA200-0420","24148","56","1","1.10","1.4","2023-05-07T14:40:30","120","2023/05/07","14:40:30","-15.786443531513214","35.0310561619699","4.7","17","30","64","46","-2962","23850","-2695","5","150","150.60","113.22","37.38","35.06","28.6","14.13","89720","34.44","DUALSPOT-UV-BLUE-GREEN-RED-IR","759812","703557","908426","5.574014","1.598720","-0.042765","874685","904555","842489","3.521758","0.989884","-0.323560","853653","875070","830821","2.908837","0.807065","0.000000","872508","875903","887603","2.246815","0.624400","0.000000","759490","895108","963247","1.501974","0.365159","0.000000","1859","1604","1501","1419","875","663","1377","1229","1377","1080","534","1080","1011","369","1011",""
"MA200-0420","24149","56","1","1.10","1.4","2023-05-07T14:41:00","120","2023/05/07","14:41:00","-15.78661572933197","35.02937516197562","2.7","17","30","64","46","-6041","22854","-4020","5","150","150.54","113.55","36.99","35.05","28.5","14.11","89820","34.38","DUALSPOT-UV-BLUE-GREEN-RED-IR","758634","702726","907435","5.620540","1.609918","-0.102741","873706","903752","841786","3.552002","0.997335","-0.144381","853764","875354","831085","2.932471","0.810116","0.000000","871196","874730","886438","2.267165","0.628701","0.000000","758546","894098","962189","1.512857","0.367699","0.000000","2406","1778","1525","1974","1493","1305","1728","684","1728","1798","1166","1798","1338","959","1338",""
"MA200-0420","24150","56","1","1.10","1.4","2023-05-07T14:41:30","120","2023/05/07","14:41:30","-15.785600364208221","35.02657166309655","18.6","17","30","64","46","-5456","22592","-3076","5","150","150.34","113.74","36.60","35.05","28.5","14.11","89872","34.38","DUALSPOT-UV-BLUE-GREEN-RED-IR","758849","703468","908719","5.715690","1.639228","-0.011127","867190","897506","836206","3.620022","1.017916","-0.024996","853462","875487","831400","2.991819","0.829404","0.000000","871090","874958","886825","2.311738","0.642485","0.000000","758631","894421","962629","1.543710","0.376050","0.000000","4913","4703","4619","4433","4168","4065","4331","4375","4331","3931","3778","3931","3789","3187","3789",""
"MA200-0420","24151","56","1","1.10","1.4","2023-05-07T14:42:00","120","2023/05/07","14:42:00","-15.784168303012848","35.02294166199863","3.3","17","30","64","46","-788","23736","-2884","5","150","149.87","113.43","36.44","35.04","28.5","14.08","89948","34.38","DUALSPOT-UV-BLUE-GREEN-RED-IR","754069","700908","906396","6.038383","1.735185","-0.019294","869808","902056","841155","3.870302","1.090843","-0.038431","849440","872950","829583","3.204805","0.889128","-0.066617","868246","873382","885763","2.485850","0.692238","0.000000","761239","898421","967327","1.662422","0.409259","0.000000","16709","15466","14965","16356","14835","14238","15588","13606","12846","15399","13697","15399","14619","12730","14619",""
"MA200-0420","24152","56","1","1.10","1.4","2023-05-07T14:42:30","120","2023/05/07","14:42:30","-15.782136678695679","35.02347382903099","11.2","17","30","64","46","-1670","23316","-3512","5","150","149.90","113.16","36.74","35.04","28.5","14.08","89828","34.31","DUALSPOT-UV-BLUE-GREEN-RED-IR","749937","700279","907458","6.456671","1.862859","-0.014235","865552","901106","841645","4.201740","1.189691","-0.030493","850981","877302","834899","3.490626","0.974917","-0.033545","864286","871698","885001","2.718147","0.760534","0.000000","759269","897699","967282","1.820415","0.454305","0.000000","21711","20411","19884","21713","19945","19247","20970","19386","18772","20595","18649","20595","19504","17127","19504",""
"MA200-0420","24153","56","1","1.10","1.4","2023-05-07T14:43:00","120","2023/05/07","14:43:00","-15.779361546039581","35.02396649494767","10.8","17","30","64","46","-2816","23250","-3437","5","150","149.65","113.01","36.64","35.03","28.5","14.07","89724","34.31","DUALSPOT-UV-BLUE-GREEN-RED-IR","739978","696308","905480","7.496034","2.191871","-0.004626","855911","896675","839893","5.051327","1.455266","-0.010521","838657","869439","829428","4.242069","1.207494","-0.015989","865486","876907","892092","3.347328","0.953956","-0.023372","755608","896330","967116","2.258768","0.585793","0.000000","54021","52740","52210","55733","53731","52920","55206","52697","51699","55858","52960","51805","54187","50129","54187",""
"MA200-0420","24154","56","1","1.10","1.4","2023-05-07T14:43:30","120","2023/05/07","14:43:30","-15.777691721916199","35.02342349663377","2.9","17","30","64","46","-3583","23462","-2108","5","150","150.23","113.41","36.82","35.01","28.5","14.06","89660","34.31","DUALSPOT-UV-BLUE-GREEN-RED-IR","730520","693605","905829","9.173950","2.724763","-0.003494","847289","894177","840339","6.415570","1.879794","-0.009739","835456","871954","834385","5.458426","1.582682","-0.013874","857818","874211","891660","4.371555","1.267239","-0.020319","750790","894193","966533","2.973175","0.800114","0.000000","86904","85006","84204","89180","85472","83935","89048","84597","82779","90611","85362","83219","88002","81311","88002",""
"MA200-0420","24155","56","1","1.10","1.4","2023-05-07T14:44:00","120","2023/05/07","14:44:00","-15.7772216796875","35.02225783094764","5.9","17","30","64","46","-4750","23291","-1241","5","150","149.65","113.20","36.45","35.01","28.5","14.06","89668","34.31","DUALSPOT-UV-BLUE-GREEN-RED-IR","729539","693038","905308","9.289667","2.761289","-0.003125","846790","893987","840284","6.498742","1.903462","-0.030295","834504","871221","833796","5.532855","1.604378","-0.027850","857463","874041","891588","4.432047","1.284224","-0.049636","750831","894421","966834","3.014509","0.811852","-0.064005","6004","5885","5835","5447","4813","4551","5458","4941","4730","5361","4674","4394","5101","4498","4276",""
"MA200-0420","24156","56","1","1.10","1.4","2023-05-07T14:44:30","120","2023/05/07","14:44:30","-15.776571154594421","35.020918330177665","5.9","17","30","64","46","-3948","23104","-1244","5","150","150.02","113.23","36.79","35.00","28.5","14.05","89680","34.38","DUALSPOT-UV-BLUE-GREEN-RED-IR","730528","694372","907266","9.373850","2.785003","-0.024884","847388","894963","841376","6.557572","1.921255","-0.016523","830405","867234","830076","5.582649","1.619142","-0.025133","851944","868667","886187","4.470924","1.295959","-0.024815","747175","890219","962315","3.039867","0.817611","-0.230111","4366","3786","3540","3851","3585","3475","3650","3331","3201","3444","3200","3100","3128","2187","1840",""
"MA200-0420","24157","56","1","1.10","1.4","2023-05-07T14:45:00","120","2023/05/07","14:45:00","-15.77565860748291","35.01964582875371","6.4","17","30","64","46","-2416","23008","-1425","5","150","149.82","113.11","36.71","35.00","28.4","14.00","89596","34.38","DUALSPOT-UV-BLUE-GREEN-RED-IR","729927","693967","906844","9.415489","2.801078","0.022567","847332","895039","841533","6.584829","1.931047","0.019972","830552","867500","830400","5.605847","1.627063","0.012205","858681","875619","893322","4.489462","1.301128","-0.055119","747265","890392","962567","3.052011","0.821929","0.037926","2162","2572","2745","1786","1977","2056","1702","1791","1827","1644","1412","1318","1499","1643","1696",""
"MA200-0420","24158","56","1","1.10","1.4","2023-05-07T14:45:30","120","2023/05/07","14:45:30","-15.77460515499115","35.01852199435234","5.3","17","30","64","46","-5591","22904","-3195","5","150","149.69","113.23","36.46","35.01","28.3","13.97","89608","34.38","DUALSPOT-UV-BLUE-GREEN-RED-IR","731087","695250","908667","9.452948","2.813060","-0.001007","841973","889522","836413","6.609082","1.937580","-0.045536","830906","868033","830922","5.624306","1.631462","-0.102724","851340","868257","885854","4.504879","1.305676","-0.029687","747359","890569","962774","3.060154","0.824211","-0.070574","1943","1930","1924","1587","1328","1220","1353","1001","857","1365","1251","1204","1004","874","826",""
"MA200-0420","24159","56","1","1.10","1.4","2023-05-07T14:46:00","120","2023/05/07","14:46:00","-15.77336037158966","35.018197160214186","5.2","17","30","64","45","-4570","23104","-2616","5","150","147.44","113.74","33.69","35.01","28.3","13.92","89544","34.38","DUALSPOT-UV-BLUE-GREEN-RED-IR","729363","693793","906852","9.491566","2.824699","0.002553","846307","894290","840944","6.635874","1.946425","0.021021","828972","866131","829164","5.647530","1.639139","0.024865","849746","866740","884370","4.522345","1.309970","-0.069641","745650","888610","960705","3.072372","0.826142","-0.573520","1994","2028","2043","1746","1946","2029","1695","1891","1972","1540","1278","1171","1500","800","543",""
"MA200-0420","24160","56","1","1.10","1.4","2023-05-07T14:46:30","120","2023/05/07","14:46:30","-15.773849487304688","35.01681866310537","5.6","17","30","64","46","-6688","22892","-1811","5","150","150.49","113.56","36.93","35.01","28.2","13.88","89640","34.38","DUALSPOT-UV-BLUE-GREEN-RED-IR","729465","694176","907508","9.553446","2.845298","0.003405","847060","895326","842025","6.677580","1.958197","-0.034410","830303","867743","830800","5.683165","1.650404","-0.007206","852408","869614","887369","4.549505","1.318813","0.000344","747426","890810","963092","3.089208","0.831697","0.006255","3200","3276","3308","2722","2363","2213","2605","2532","2502","2399","2402","2403","2071","2100","2111",""
"MA200-0420","24161","56","1","1.10","1.4","2023-05-07T14:47:00","120","2023/05/07","14:47:00","-15.774407744407654","35.015245164744556","6.4","17","30","64","46","-5158","22988","-3138","5","150","149.71","113.38","36.33","35.01","28.1","13.86","89736","34.44","DUALSPOT-UV-BLUE-GREEN-RED-IR","730995","695786","909764","9.586908","2.856182","0.002207","841761","889841","836918","6.697821","1.964814","0.004153","831287","868865","831927","5.700104","1.653701","-0.217066","852175","869477","887227","4.562386","1.321939","-0.113688","747407","890824","963142","3.095901","0.833437","-0.112130","1733","1759","1770","1323","1350","1361","1240","753","554","1139","863","750","824","669","612",""
"MA200-0420","24162","56","1","1.10","1.4","2023-05-07T14:47:30","120","2023/05/07","14:47:30","-15.774052679538727","35.013979331590235","5.8","17","30","64","45","-6179","22500","-2704","5","150","150.02","113.11","36.90","35.03","28.5","14.04","89856","34.44","DUALSPOT-UV-BLUE-GREEN-RED-IR","730774","695724","909603","9.602293","2.851890","0.167695","841981","890287","837239","6.707376","1.955998","0.182944","830827","868527","831511","5.705878","1.645529","0.202217","851845","869248","886901","4.566060","1.315030","0.244771","747380","890836","963124","3.095523","0.829777","0.315015","798","-683","-1309","626","-1770","-2757","423","-1838","-2755","325","-1878","-2769","-46","-1385","-1875",""
"MA200-0420","24163","56","1","1.10","1.4","2023-05-07T14:48:00","120","2023/05/07","14:48:00","-15.772602379322052","35.01358366571367","5.6","17","30","64","45","-2836","23484","-2484","5","150","150.15","113.51","36.64","35.03","28.9","14.26","89872","34.38","DUALSPOT-UV-BLUE-GREEN-RED-IR","723295","691585","906053","10.192368","3.042842","0.000348","834673","885835","834317","7.191163","2.093494","-0.028212","824791","865184","829391","6.139421","1.764315","-0.043872","846487","866322","884837","4.932513","1.409121","-0.081367","743633","888205","960889","3.341781","0.888176","-0.169344","30534","30610","30643","31596","27819","26267","31711","26915","24982","32390","25764","23113","30307","22265","19354",""
"MA200-0420","24164","56","1","1.10","1.4","2023-05-07T14:48:30","120","2023/05/07","14:48:30","-15.77114188671112","35.01372449751943","5.9","17","30","64","45","-1804","23437","-1800","5","150","150.28","113.35","36.93","35.03","29.3","14.51","89692","34.44","DUALSPOT-UV-BLUE-GREEN-RED-IR","724912","693384","908565","10.290642","3.069284","-0.032075","835840","887351","835808","7.267195","2.111107","-0.094540","826610","867303","831459","6.207289","1.778215","-0.174847","848654","868706","887353","4.990117","1.421004","-0.210971","745458","890506","963394","3.380060","0.893980","-0.787594","5092","4205","3828","4972","3535","2947","4971","3124","2383","5098","3228","2483","4717","2195","1288",""
"MA200-0420","24165","56","1","1.10","1.4","2023-05-07T14:49:00","120","2023/05/07","14:49:00","-15.771370530128479","35.015142664313316","6.4","17","30","64","45","-2791","23245","-3095","5","150","150.07","113.49","36.58","35.03","29.5","14.62","89512","34.38","DUALSPOT-UV-BLUE-GREEN-RED-IR","723411","692125","907041","10.328892","3.083324","0.015997","840845","892791","840985","7.289803","2.119524","0.024596","825362","866096","830365","6.226860","1.785564","0.030183","846820","866937","885561","5.005898","1.427166","0.045587","743930","888736","961516","3.391632","0.897823","0.011775","1979","2254","2371","1476","1705","1799","1431","1667","1763","1395","1689","1807","1424","1467","1483",""
"MA200-0420","24166","56","1","1.10","1.4","2023-05-07T14:49:30","120","2023/05/07","14:49:30","-15.77156525850296","35.01643749885261","4.6","17","30","64","45","-2228","23444","-3216","5","150","150.41","113.47","36.94","35.03","29.5","14.58","89420","34.38","DUALSPOT-UV-BLUE-GREEN-RED-IR","722032","691034","905791","10.385416","3.108169","0.032083","840255","892278","840657","7.324683","2.139527","0.070756","824379","865170","829625","6.256751","1.803273","0.085549","845863","866010","884759","5.028526","1.439721","0.098778","747815","893461","966704","3.407255","0.903834","0.058197","2925","3950","4388","2278","4014","4730","2187","3980","4706","2000","3409","3975","1923","2272","2399",""
"MA200-0420","24167","56","1","1.10","1.4","2023-05-07T14:50:00","120","2023/05/07","14:50:00","-15.771609008312225","35.01752366311848","3.6","17","30","64","45","-3723","22480","-3616","5","150","149.52","113.27","36.25","35.03","29.5","14.58","89348","34.38","DUALSPOT-UV-BLUE-GREEN-RED-IR","721472","690640","905348","10.414854","3.115591","-0.041725","833020","884755","833603","7.341859","2.140838","1.954876","823996","864890","829341","6.269180","1.803910","1.050738","845904","866131","884883","5.038414","1.439611","0.640964","743515","888380","961178","3.411615","0.904621","-0.428132","1526","1202","1064","1124","268","-84","911","146","-163","875","-30","-392","537","303","218",""
"MA200-0420","24168","56","1","1.10","1.4","2023-05-07T14:50:30","120","2023/05/07","14:50:30","-15.771584451198578","35.01867566257715","4.8","17","30","64","45","-5170","23808","-3995","5","150","149.32","113.11","36.20","35.01","29.4","14.53","89336","34.31","DUALSPOT-UV-BLUE-GREEN-RED-IR","722957","692234","907637","10.459784","3.135343","0.033257","840531","892840","841327","7.368213","2.154320","0.062181","825321","866351","830870","6.291799","1.814425","0.061762","853621","874129","893126","5.055399","1.446748","0.060260","744305","889377","962316","3.422327","0.907793","-0.033075","2333","3204","3577","1727","2760","3187","1660","2411","2715","1506","1977","2166","1322","1224","1188",""
"MA200-0420","24169","56","1","1.10","1.4","2023-05-07T14:51:00","120","2023/05/07","14:51:00","-15.771773517131805","35.019715160131454","4.2","17","30","64","45","-4791","23104","-4100","5","150","149.87","113.18","36.69","35.00","29.0","14.33","89388","34.31","DUALSPOT-UV-BLUE-GREEN-RED-IR","722509","691940","907418","10.497221","3.153246","0.038535","840460","892857","841451","7.390636","2.167642","0.073195","824295","865325","829990","6.309598","1.825398","0.088645","852264","872806","891837","5.069744","1.456602","0.120509","748240","894123","967459","3.432533","0.913572","0.146933","1942","2866","3262","1468","2691","3199","1305","2483","2962","1271","2694","3268","1259","2200","2541",""
"MA200-0420","24170","56","1","1.10","1.4","2023-05-07T14:51:30","120","2023/05/07","14:51:30","-15.772863566875458","35.01980799436569","2.6","17","30","64","45","-2700","23258","-5525","5","150","150.02","113.66","36.35","35.00","28.8","14.22","89400","34.31","DUALSPOT-UV-BLUE-GREEN-RED-IR","720310","690004","904938","10.525774","3.160843","-0.030035","837555","889907","838674","7.406629","2.172303","-0.019391","827699","869008","833526","6.324182","1.830107","0.002088","850692","871210","890250","5.079635","1.459562","-0.019544","746614","892207","965449","3.438123","0.915519","0.031527","1475","1227","1121","1043","950","912","1065","1075","1079","873","816","794","687","748","770",""
"MA200-0420","24171","56","1","1.10","1.4","2023-05-07T14:52:00","120","2023/05/07","14:52:00","-15.773175358772278","35.021044827997684","5.6","17","30","64","45","-5695","23408","-1629","5","150","149.63","113.59","36.04","34.99","28.7","14.13","89412","34.31","DUALSPOT-UV-BLUE-GREEN-RED-IR","717636","688792","904172","10.812943","3.249132","-0.004294","836627","889968","839161","7.574788","2.219445","-0.026039","826939","869094","833914","6.457907","1.864713","-0.054195","850691","871889","891148","5.177501","1.482757","-0.106104","747031","893119","966511","3.490520","0.926201","-0.271529","14849","14388","14190","10975","9696","9167","9774","7972","7240","8644","6457","5579","6444","4140","3308",""
"MA200-0420","24172","56","1","1.10","1.4","2023-05-07T14:52:30","120","2023/05/07","14:52:30","-15.774015486240387","35.0221926625818","5.0","17","30","64","45","-4912","23308","-1916","5","150","149.95","114.30","35.65","34.98","28.5","14.05","89476","34.25","DUALSPOT-UV-BLUE-GREEN-RED-IR","718297","689552","905239","10.844215","3.260368","0.016443","836645","890122","839352","7.595702","2.225035","-0.033392","821952","863922","828986","6.476132","1.870960","0.018824","850598","871877","891169","5.192212","1.488484","0.049666","746925","893038","966427","3.499326","0.929118","0.022112","1607","1850","1955","1356","1162","1082","1323","1454","1507","1291","1611","1740","1076","1142","1166",""
"MA200-0420","24173","56","1","1.10","1.4","2023-05-07T14:53:00","120","2023/05/07","14:53:00","-15.775346875190735","35.02231649309397","6.0","17","30","64","45","-5880","22604","-3512","5","150","149.69","113.35","36.34","34.97","28.4","13.97","89524","34.25","DUALSPOT-UV-BLUE-GREEN-RED-IR","722487","693772","910931","10.879288","3.271835","0.002523","836487","890118","839448","7.619037","2.231944","-0.015968","825909","868235","833192","6.495154","1.876342","-0.030488","849569","870957","890268","5.205876","1.491347","-0.181294","746170","892212","965611","3.507993","0.930845","-0.302637","1817","1853","1868","1526","1409","1360","1393","1229","1162","1209","790","622","1068","664","518",""
"MA200-0420","24174","56","1","1.10","1.4","2023-05-07T14:53:30","120","2023/05/07","14:53:30","-15.776691973209381","35.02164516039193","4.3","17","30","64","45","-7360","21756","-4732","5","150","149.59","113.12","36.47","34.95","28.3","13.91","89644","34.25","DUALSPOT-UV-BLUE-GREEN-RED-IR","718116","689735","905735","10.922892","3.286445","0.004886","836535","890293","839647","7.647570","2.243113","0.030435","826362","868818","833786","6.518570","1.884138","0.006774","849424","870867","890217","5.225101","1.498622","0.037508","746192","892262","965660","3.517849","0.934639","0.059400","2264","2353","2391","1869","2270","2437","1718","1775","1797","1705","2001","2120","1217","1453","1538",""
"MA200-0420","24175","56","1","1.10","1.4","2023-05-07T14:54:00","120","2023/05/07","14:54:00","-15.77727997303009","35.0224923286587","5.8","17","30","64","44","-4491","23370","-3058","5","150","149.69","113.45","36.25","34.95","28.2","13.84","89668","34.25","DUALSPOT-UV-BLUE-GREEN-RED-IR","720967","692709","909759","10.967764","3.300678","-0.000963","834508","888318","837850","7.673587","2.251369","-0.001277","824735","867231","832331","6.539020","1.891416","0.021116","849275","870791","890187","5.240257","1.503167","-0.017967","745565","891577","964934","3.527862","0.936046","-0.910133","2323","2306","2298","1700","1688","1683","1496","1666","1736","1340","1258","1224","1233","542","292",""
"MA200-0420","24176","56","1","1.10","1.4","2023-05-07T14:54:30","120","2023/05/07","14:54:30","-15.777645349502563","35.02338699437678","0.0","17","30","64","44","-4491","23129","-3837","5","150","149.52","113.23","36.29","34.93","28.2","13.81","89656","34.19","DUALSPOT-UV-BLUE-GREEN-RED-IR","721074","692999","910248","11.007334","3.311571","-0.022965","834110","888061","837685","7.699477","2.258295","-0.039663","824642","867275","832413","6.559979","1.895624","-0.168726","848482","870099","889524","5.255777","1.507359","-0.053812","745682","891778","965207","3.539220","0.940160","0.042545","2052","1762","1638","1695","1414","1298","1536","962","729","1375","1158","1071","1401","1583","1649",""
"MA200-0420","24177","56","1","1.10","1.4","2023-05-07T14:55:00","120","2023/05/07","14:55:00","-15.776927530765533","35.023402996361256","5.6","17","30","64","44","-2908","23128","-4087","5","150","150.08","113.27","36.81","34.92","28.1","13.75","89612","34.19","DUALSPOT-UV-BLUE-GREEN-RED-IR","718955","691494","908596","11.117676","3.347292","-0.000504","832608","887000","836907","7.783792","2.284592","-0.007771","823225","866261","831648","6.634515","1.919031","-0.007511","847460","869390","888983","5.316543","1.525677","-0.021268","744526","890682","964132","3.578205","0.950134","-0.113948","5721","5699","5689","5518","5295","5203","5463","5278","5203","5382","4992","4835","4807","3785","3415",""
"MA200-0420","24178","56","1","1.10","1.4","2023-05-07T14:55:30","120","2023/05/07","14:55:30","-15.775375545024872","35.02353649586439","6.3","16","30","64","44","-3266","23250","-3708","5","150","150.15","113.35","36.80","34.91","28.0","13.70","89512","34.19","DUALSPOT-UV-BLUE-GREEN-RED-IR","718095","691594","909308","11.233568","3.384761","-0.000533","831927","887178","837458","7.869090","2.310628","-0.011767","822475","866212","831916","6.706431","1.940769","-0.016032","846574","869156","888967","5.373093","1.542268","-0.029078","744481","891068","964727","3.617359","0.961103","-0.063484","6005","5980","5969","5578","5244","5105","5267","4904","4756","5005","4523","4329","4825","4163","3924",""
"MA200-0420","24179","56","1","1.10","1.4","2023-05-07T14:56:00","120","2023/05/07","14:56:00","-15.773544907569885","35.024223159998655","7.5","16","30","64","44","-5995","22633","-3566","5","150","149.44","113.27","36.17","34.89","28.0","13.65","89536","34.13","DUALSPOT-UV-BLUE-GREEN-RED-IR","716468","691300","909824","11.576992","3.500312","0.006179","830111","886522","837489","8.137274","2.399361","0.006001","820697","865471","831768","6.943482","2.019030","0.006578","843620","867060","887330","5.569370","1.606853","0.007382","743248","890224","964169","3.748050","1.004654","0.015010","17808","18765","19180","17552","18187","18453","17375","17964","18206","17385","17915","18130","16118","16821","17079",""
"MA200-0420","24180","56","1","1.10","1.4","2023-05-07T14:56:30","120","2023/05/07","14:56:30","-15.772050023078918","35.02500516362488","6.6","16","30","64","44","-5170","23116","-3220","5","150","149.69","113.51","36.18","34.88","27.9","13.62","89612","34.13","DUALSPOT-UV-BLUE-GREEN-RED-IR","714287","689575","907747","11.677650","3.532791","0.001466","833913","890966","841810","8.213151","2.422411","-0.008712","819733","864770","831216","7.009892","2.039802","-0.003887","842870","866503","886895","5.622526","1.623298","-0.007690","742536","889546","963493","3.782789","1.013370","-0.108483","5208","5272","5299","4955","4722","4624","4857","4766","4728","4698","4559","4503","4275","3364","3031",""
"MA200-0420","24181","56","1","1.10","1.4","2023-05-07T14:57:00","120","2023/05/07","14:57:00","-15.77050006389618","35.02581116370857","7.1","16","30","64","44","-6183","22779","-3437","5","150","150.39","112.92","37.46","34.86","28.0","13.65","89700","34.13","DUALSPOT-UV-BLUE-GREEN-RED-IR","711463","687220","904853","11.750254","3.556707","-0.000871","831162","888358","839486","8.265147","2.438462","-0.013231","817538","862722","829376","7.054455","2.053982","-0.008672","846787","870811","891362","5.659572","1.633865","-0.043397","740728","887530","961396","3.807973","1.022770","0.038358","3776","3749","3738","3413","3176","3077","3276","3142","3087","3291","2829","2642","3115","3505","3648",""
"MA200-0420","24182","56","1","1.10","1.4","2023-05-07T14:57:30","120","2023/05/07","14:57:30","-15.769069850444794","35.02663482911885","5.6","16","30","64","44","-4968","23136","-3016","5","150","150.08","113.55","36.54","34.84","28.0","13.66","89756","34.06","DUALSPOT-UV-BLUE-GREEN-RED-IR","712399","688389","906630","11.814625","3.578868","0.007719","832173","889675","840883","8.308258","2.455043","0.026135","818378","863828","830519","7.091514","2.066410","0.007926","848123","872335","893030","5.688788","1.644384","0.025201","741498","888587","962626","3.827327","1.027896","-0.083285","3329","3562","3663","2814","3364","3595","2709","2824","2871","2581","2888","3013","2381","1960","1805",""
"MA200-0420","24183","56","1","1.10","1.4","2023-05-07T14:58:00","120","2023/05/07","14:58:00","-15.767745196819305","35.027435660362244","5.2","16","30","64","44","-5612","22724","-2948","5","150","149.90","113.23","36.66","34.83","28.0","13.63","89808","34.13","DUALSPOT-UV-BLUE-GREEN-RED-IR","710944","687520","905842","11.919291","3.613826","0.003630","831419","889389","840807","8.386385","2.479118","-0.008783","821654","867703","834456","7.159353","2.086955","-0.014025","841456","865846","886554","5.743701","1.660237","-0.031316","741407","888725","962858","3.864908","1.039466","-0.018655","5429","5600","5674","5114","4867","4764","4973","4652","4520","4865","4338","4123","4636","4408","4324",""
"MA200-0420","24184","56","1","1.10","1.4","2023-05-07T14:58:30","120","2023/05/07","14:58:30","-15.766142427921295","35.028011329472065","6.8","17","30","64","43","-5856","22848","-2592","5","150","150.86","113.74","37.12","34.82","28.0","13.64","89900","34.13","DUALSPOT-UV-BLUE-GREEN-RED-IR","710045","687001","905338","12.005991","3.640163","-0.009182","829889","888094","839761","8.450798","2.497393","-0.026939","816437","862504","829579","7.214011","2.104324","-0.005339","845652","870404","891330","5.788206","1.673407","-0.026070","740132","887378","961442","3.893507","1.046015","-0.176934","4477","4167","4032","4198","3649","3419","3989","3884","3841","3925","3559","3410","3512","2464","2079",""
"MA200-0420","24185","56","1","1.10","1.4","2023-05-07T14:59:00","120","2023/05/07","14:59:00","-15.764507234096527","35.02793666161597","6.5","16","30","64","44","-7000","22825","-2350","5","150","149.63","113.66","35.96","34.81","28.0","13.63","90004","34.13","DUALSPOT-UV-BLUE-GREEN-RED-IR","709185","687631","907152","12.302206","3.740957","0.007957","823013","882278","834956","8.688589","2.577049","0.008878","815086","862411","830095","7.425407","2.172554","0.003731","839220","864918","886258","5.965487","1.730943","0.005882","740660","888789","963411","4.014675","1.084668","0.002792","15306","16462","16967","15508","16420","16805","15440","15752","15880","15647","16051","16217","14891","15014","15060",""
"MA200-0420","24186","56","1","1.10","1.4","2023-05-07T14:59:30","120","2023/05/07","14:59:30","-15.763046860694885","35.02732849493623","5.9","16","30","64","44","-6020","22900","-2684","5","150","150.21","113.51","36.71","34.81","28.1","13.65","90084","34.13","DUALSPOT-UV-BLUE-GREEN-RED-IR","708757","687432","907041","12.376759","3.765052","-0.000062","823125","882576","835318","8.742915","2.593977","-0.006246","819446","867177","834740","7.472195","2.187073","-0.008100","838842","864626","886012","6.003580","1.743134","-0.002473","740049","888160","962737","4.038755","1.091271","-0.065144","3857","3855","3854","3548","3418","3364","3422","3284","3227","3366","3332","3317","2963","2513","2346",""
"MA200-0420","24187","56","1","1.10","1.4","2023-05-07T15:00:00","120","2023/05/07","15:00:00","-15.76283472776413","35.02652766369283","4.9","16","30","64","44","-7866","21920","-3975","5","150","150.15","113.23","36.92","34.80","28.2","13.71","90192","34.19","DUALSPOT-UV-BLUE-GREEN-RED-IR","709704","688548","908623","12.420135","3.777240","-0.019950","823084","882735","835487","8.771819","2.599310","-0.183395","820176","868118","835685","7.495987","2.191079","-0.287930","839873","865807","887271","6.023135","1.746836","-0.239592","740892","889213","963927","4.050914","1.093235","-0.552607","2250","1939","1803","1892","1071","725","1744","900","552","1732","1006","709","1500","743","463",""
"MA200-0420","24188","56","1","1.10","1.4","2023-05-07T15:00:30","120","2023/05/07","15:00:30","-15.763208210468292","35.02523899637163","4.0","16","30","64","44","-3220","23195","-3833","5","150","150.22","113.27","36.95","34.80","28.3","13.77","90252","34.19","DUALSPOT-UV-BLUE-GREEN-RED-IR","709563","688573","908753","12.456150","3.788679","-0.003178","823388","883200","836048","8.796071","2.607173","-0.001036","815794","863612","831396","7.515520","2.196610","-0.030510","840179","866222","887736","6.037505","1.750085","-0.126057","741066","889479","964227","4.059055","1.095562","-0.050321","1867","1818","1796","1587","1577","1573","1431","1242","1164","1272","882","722","1004","879","833",""
"MA200-0420","24189","56","1","1.10","1.4","2023-05-07T15:01:00","120","2023/05/07","15:01:00","-15.763319969177246","35.024207497015595","3.8","16","30","64","44","-4776","22996","-4136","5","150","149.63","113.39","36.24","34.80","28.3","13.77","90240","34.19","DUALSPOT-UV-BLUE-GREEN-RED-IR","708780","688053","908201","12.501879","3.803798","0.003786","823721","883700","836567","8.823332","2.616071","0.003348","814918","862801","830700","7.538775","2.205437","0.027822","839716","865836","887346","6.052759","1.755643","0.027238","740481","888889","963598","4.071743","1.098959","-0.070037","2368","2450","2486","1782","1820","1836","1702","2022","2154","1349","1538","1616","1563","1309","1216",""
"MA200-0420","24190","56","1","1.10","1.4","2023-05-07T15:01:30","120","2023/05/07","15:01:30","-15.76349002122879","35.02311449497938","3.9","16","30","64","43","-5241","22800","-3983","5","150","150.02","113.23","36.79","34.80","28.3","13.77","90364","34.19","DUALSPOT-UV-BLUE-GREEN-RED-IR","710149","689497","910248","12.533579","3.815515","0.013184","823940","884092","837001","8.844086","2.623891","0.020938","815967","863990","831911","7.556250","2.211654","0.015672","840876","867112","888741","6.067009","1.759663","-0.037551","741567","890215","965060","4.078117","1.101738","0.078158","1644","1870","1969","1358","1575","1667","1281","1403","1453","1262","1096","1028","786","1054","1154",""
"MA200-0420","24191","56","1","1.10","1.4","2023-05-07T15:02:00","120","2023/05/07","15:02:00","-15.763743340969086","35.02246166393161","0.7","17","30","64","43","-4320","23016","-5158","5","150","149.60","113.06","36.54","34.80","28.3","13.75","90320","34.25","DUALSPOT-UV-BLUE-GREEN-RED-IR","709673","689185","909895","12.563166","3.825338","0.003003","824393","884640","837606","8.861487","2.630836","0.028239","816359","864482","832405","7.570033","2.217167","0.033234","841211","867525","889172","6.078360","1.764892","0.061662","742073","890839","965758","4.083347","1.102527","-0.661822","1537","1578","1597","1141","1408","1521","1012","1252","1352","1007","1435","1611","646","301","174",""
"MA200-0420","24192","56","1","1.10","1.4","2023-05-07T15:02:30","120","2023/05/07","15:02:30","-15.763596177101135","35.0227429959923","3.3","17","30","64","43","-5188","22544","-2892","5","150","149.50","113.15","36.35","34.80","28.2","13.73","90344","34.25","DUALSPOT-UV-BLUE-GREEN-RED-IR","710338","689986","911069","12.597723","3.839033","0.019969","825390","885843","838763","8.880977","2.637195","0.002483","816362","864585","832550","7.586857","2.222711","0.004628","840830","867208","888879","6.090356","1.767849","-0.080068","741563","890296","965181","4.090913","1.105964","0.088504","1793","2213","2396","1276","1297","1305","1234","1266","1279","1063","816","714","934","1320","1464",""
"MA200-0420","24193","56","1","1.10","1.4","2023-05-07T15:03:00","120","2023/05/07","15:03:00","-15.76327496767044","35.02368616312742","2.9","17","30","64","43","-2204","23675","-3958","5","150","149.47","113.18","36.28","34.81","28.2","13.74","90308","34.25","DUALSPOT-UV-BLUE-GREEN-RED-IR","709407","689208","910118","12.627651","3.847238","-0.020820","824908","885435","838431","8.901221","2.643329","-0.009511","816880","865263","833250","7.602650","2.227151","-0.027680","840976","867452","889153","6.102228","1.770721","-0.086671","741695","890490","965438","4.097339","1.107270","-0.245847","1553","1328","1229","1325","1253","1222","1158","1016","957","1052","793","688","793","502","395",""
"MA200-0420","24194","56","1","1.10","1.4","2023-05-07T15:03:30","120","2023/05/07","15:03:30","-15.763243615627289","35.0248684938997","3.6","17","30","64","43","-4733","22908","-3045","5","150","149.65","113.04","36.60","34.81","28.2","13.72","90252","34.25","DUALSPOT-UV-BLUE-GREEN-RED-IR","703848","683966","903309","12.660610","3.859892","0.016649","823194","883711","836864","8.920839","2.649712","0.000774","816702","865143","833164","7.616975","2.232343","0.018954","840317","866800","888522","6.113320","1.775547","0.053398","741494","890301","965218","4.104602","1.109091","-0.108929","1712","2030","2169","1286","1292","1295","1052","1177","1229","984","1322","1461","897","695","620",""
"MA200-0420","24195","56","1","1.10","1.4","2023-05-07T15:04:00","120","2023/05/07","15:04:00","-15.762973010540009","35.02592283114791","4.8","17","30","64","43","-4641","23508","-1945","5","150","149.95","113.35","36.60","34.82","28.2","13.71","90256","34.25","DUALSPOT-UV-BLUE-GREEN-RED-IR","709029","689149","910243","12.691292","3.870901","0.010866","824741","885494","838581","8.939213","2.655482","-0.004563","817415","865989","834031","7.633746","2.237052","-0.029667","841191","867757","889570","6.126693","1.779225","-0.043138","742300","891323","966356","4.111288","1.111198","-0.008327","1589","1766","1844","1201","1168","1154","1228","1068","1001","1183","1008","936","823","804","796",""
"MA200-0420","24196","56","1","1.10","1.4","2023-05-07T15:04:30","120","2023/05/07","15:04:30","-15.76266235113144","35.02695032954216","3.3","16","30","64","43","-1279","23425","-5045","5","150","149.74","112.81","36.92","34.82","28.1","13.66","90124","34.25","DUALSPOT-UV-BLUE-GREEN-RED-IR","704756","685076","904955","12.718348","3.880645","0.009926","825249","886126","839280","8.957710","2.662933","0.027580","816472","865048","833178","7.649060","2.243698","0.041259","841439","868122","889940","6.136667","1.783894","0.061518","741961","890975","966009","4.118713","1.113925","0.034752","1408","1550","1612","1215","1495","1614","1127","1494","1646","886","1268","1424","919","1031","1073",""
"MA200-0420","24197","56","1","1.10","1.4","2023-05-07T15:05:00","120","2023/05/07","15:05:00","-15.76258796453476","35.027041329070926","1.0","16","30","64","43","-5250","22933","-2487","5","150","149.82","113.23","36.59","34.82","28.1","13.66","90116","34.25","DUALSPOT-UV-BLUE-GREEN-RED-IR","703822","684514","904413","12.782843","3.900392","-0.006400","824437","885571","838790","8.998113","2.672410","-0.071036","816499","865341","833525","7.682495","2.251237","-0.097151","841910","868795","890703","6.164181","1.790004","-0.127854","742414","891632","966741","4.135147","1.117234","-0.258211","3345","3169","3092","2645","1920","1613","2451","1710","1403","2437","1675","1363","2027","1263","980",""
"MA200-0420","24198","56","1","1.10","1.4","2023-05-07T15:05:30","120","2023/05/07","15:05:30","-15.763838708400726","35.02782749570906","6.4","16","30","64","43","-3092","23396","-4236","5","150","149.95","113.03","36.92","34.83","28.1","13.67","90040","34.31","DUALSPOT-UV-BLUE-GREEN-RED-IR","702522","684267","904682","12.990896","3.965854","-0.004290","823124","885227","838952","9.167283","2.723926","-0.011617","815470","865176","833752","7.833660","2.296269","-0.018139","840819","868496","890746","6.292012","1.826809","-0.031858","741696","891400","966782","4.228542","1.143153","-0.061365","10811","10414","10240","11095","10344","10027","11103","10126","9721","11346","10001","9451","11542","9807","9164",""
"MA200-0420","24199","56","1","1.10","1.4","2023-05-07T15:06:00","120","2023/05/07","15:06:00","-15.765286207199097","35.02819832786918","5.6","16","30","64","42","-3004","23568","-4068","5","150","149.44","112.95","36.48","34.83","28.1","13.67","89944","34.25","DUALSPOT-UV-BLUE-GREEN-RED-IR","699616","681952","902009","13.098118","4.001999","0.004516","820572","882968","836996","9.237466","2.746445","-0.001029","813044","863019","831852","7.893030","2.315038","-0.003918","838385","866307","888630","6.338756","1.840710","-0.019831","740245","889819","965161","4.258978","1.153082","0.003201","5575","5818","5926","4606","4575","4562","4363","4271","4232","4151","3822","3688","3764","3802","3816",""
"MA200-0420","24200","56","1","1.10","1.4","2023-05-07T15:06:30","120","2023/05/07","15:06:30","-15.766867876052856","35.027962662279606","6.2","16","30","64","43","-3158","23154","-4033","5","150","149.69","113.39","36.30","34.83","28.0","13.65","89856","34.25","DUALSPOT-UV-BLUE-GREEN-RED-IR","701063","683808","904764","13.208765","4.041549","0.010878","821880","884763","838940","9.319267","2.775580","0.014811","814855","865299","834221","7.964820","2.340573","0.017048","839916","868139","890718","6.397645","1.862710","0.029783","736940","886079","961200","4.298078","1.165701","0.002533","5731","6399","6693","5348","5949","6204","5256","5839","6082","5210","6079","6437","4817","4855","4870",""
"MA200-0420","24201","56","1","1.10","1.4","2023-05-07T15:07:00","120","2023/05/07","15:07:00","-15.768346428871155","35.02722566202283","6.0","16","30","64","43","-4195","23283","-2979","5","150","149.76","113.47","36.29","34.83","28.0","13.63","89784","34.25","DUALSPOT-UV-BLUE-GREEN-RED-IR","701094","684230","905591","13.301317","4.071947","0.002810","821509","884757","839081","9.386427","2.796382","-0.005007","809825","860265","829514","8.022339","2.357584","-0.014868","839265","867761","890437","6.446196","1.876409","-0.030910","741201","891400","967048","4.330766","1.174743","-0.052555","4790","4920","4976","4387","4249","4190","4208","3891","3760","4292","3787","3579","4024","3480","3278",""
"MA200-0420","24202","56","1","1.10","1.4","2023-05-07T15:07:30","120","2023/05/07","15:07:30","-15.769802510738373","35.02630832977593","6.5","16","30","64","42","-4329","23150","-3225","5","150","150.40","113.54","36.86","34.84","27.9","13.59","89720","34.25","DUALSPOT-UV-BLUE-GREEN-RED-IR","699561","682984","904125","13.360533","4.093786","0.012270","820564","883939","838426","9.427125","2.811557","0.018530","812618","863443","832672","8.056960","2.370298","0.019442","837402","865987","888686","6.473163","1.885375","0.005083","739547","889492","965062","4.348934","1.181532","0.039501","3063","3480","3664","2657","3052","3219","2531","2863","3001","2382","2440","2464","2235","2573","2698",""
"MA200-0420","24203","56","1","1.10","1.4","2023-05-07T15:08:00","120","2023/05/07","15:08:00","-15.77124685049057","35.025555996224284","6.8","15","30","64","43","-3768","23132","-3316","5","150","149.71","113.65","36.06","34.84","27.9","13.59","89636","34.31","DUALSPOT-UV-BLUE-GREEN-RED-IR","700928","684610","906438","13.416840","4.108762","-0.022662","821762","885556","840040","9.467899","2.819991","-0.103869","809712","860603","830029","8.093207","2.378648","-0.078328","840298","869213","892044","6.502250","1.891933","-0.106132","737306","886929","962314","4.368133","1.184546","-0.517606","2910","2439","2231","2659","1733","1340","2647","1922","1620","2567","1824","1519","2359","1167","723",""
"MA200-0420","24204","56","1","1.10","1.4","2023-05-07T15:08:30","120","2023/05/07","15:08:30","-15.772625088691711","35.02481399290264","5.9","15","30","64","42","-3950","23133","-3650","5","150","150.21","113.31","36.90","34.85","28.3","13.82","89592","34.31","DUALSPOT-UV-BLUE-GREEN-RED-IR","692201","681537","905855","13.768492","4.215103","-0.008332","813462","882837","840213","9.774850","2.907264","-0.022556","802982","858708","830480","8.350281","2.449232","-0.034172","828363","861254","885847","6.711447","1.947599","-0.051716","733631","885841","962654","4.518583","1.225374","-0.065628","18228","16926","16352","20082","17533","16454","18836","15881","14654","18523","15135","13750","18548","15456","14306",""
"MA200-0420","24205","56","1","1.10","1.4","2023-05-07T15:09:00","120","2023/05/07","15:09:00","-15.773179709911346","35.024176163598895","3.9","15","30","64","42","-5044","23156","-3612","5","150","149.82","113.82","36.00","34.85","28.8","14.08","89584","34.38","DUALSPOT-UV-BLUE-GREEN-RED-IR","686258","679030","904793","15.316126","4.736974","0.005710","806995","879363","838493","11.076390","3.332448","0.004059","802420","861450","834616","9.534163","2.829766","0.002378","829325","865167","891326","7.725789","2.271113","0.001530","734623","889166","967254","5.230642","1.443650","-0.008482","79862","85149","87516","84769","87559","88760","86353","87762","88356","89408","90163","90477","87391","84703","83679",""
"MA200-0420","24206","56","1","1.10","1.4","2023-05-07T15:09:30","120","2023/05/07","15:09:30","-15.772334396839142","35.02316499501467","5.1","15","30","64","42","-3192","23044","-3036","5","150","150.54","113.39","37.15","34.86","29.3","14.35","89560","34.31","DUALSPOT-UV-BLUE-GREEN-RED-IR","687263","680217","906483","15.396235","4.758718","-0.021452","809274","882052","841107","11.129167","3.342980","-0.113760","802058","861207","834424","9.580500","2.841431","-0.051245","830048","866087","892284","7.760472","2.277315","-0.231970","730759","884541","962226","5.251238","1.447593","-0.256331","4149","3437","3119","3450","2101","1522","3392","2606","2275","3068","1674","1095","2537","1482","1081",""
"MA200-0420","24207","56","1","1.10","1.4","2023-05-07T15:10:00","120","2023/05/07","15:10:00","-15.771469354629517","35.02240399457514","3.6","15","30","64","42","-6487","22558","-3520","5","150","149.47","113.50","35.97","34.86","29.7","14.58","89608","34.31","DUALSPOT-UV-BLUE-GREEN-RED-IR","687662","680795","907371","15.433971","4.772436","0.011372","809547","882483","841561","11.154121","3.351521","0.009202","797692","856683","830096","9.601336","2.845597","-0.114885","829823","865945","892176","7.776246","2.280815","-0.094771","730723","884559","962284","5.261940","1.449901","-0.149960","1952","2240","2368","1629","1760","1816","1524","961","724","1394","976","802","1317","896","736",""
"MA200-0420","24208","56","1","1.10","1.4","2023-05-07T15:10:30","120","2023/05/07","15:10:30","-15.770579159259796","35.02298749424517","4.5","15","30","64","42","-4976","22824","-5172","5","150","149.85","113.63","36.22","34.86","30.1","14.75","89660","34.31","DUALSPOT-UV-BLUE-GREEN-RED-IR","687147","680429","906984","15.468988","4.783901","0.002456","808416","881389","840600","11.178290","3.357965","-0.027284","797991","857072","830553","9.621968","2.852267","0.002071","829294","865499","891744","7.793061","2.286219","0.001498","730391","884240","961943","5.271312","1.452597","-0.029500","1810","1859","1881","1576","1318","1208","1507","1529","1538","1484","1497","1502","1152","1039","997",""
"MA200-0420","24209","56","1","1.10","1.4","2023-05-07T15:11:00","120","2023/05/07","15:11:00","-15.769838869571686","35.02341982908547","2.5","15","30","64","42","-6662","23029","-2875","5","150","149.44","113.31","36.13","34.86","30.3","14.89","89688","34.31","DUALSPOT-UV-BLUE-GREEN-RED-IR","686687","680157","906725","15.507195","4.797174","0.007405","808367","881520","840786","11.202414","3.364676","-0.019880","796876","856039","829559","9.640605","2.857030","-0.040775","829006","865268","891531","7.806510","2.288540","-0.236838","734766","889579","967782","5.280153","1.454530","-0.145026","1980","2157","2237","1578","1377","1290","1365","1094","980","1190","644","417","1089","747","617",""
"MA200-0420","24210","56","1","1.10","1.4","2023-05-07T15:11:30","120","2023/05/07","15:11:30","-15.769292771816254","35.02322949655354","2.7","15","30","64","42","-5625","24050","-1891","5","150","149.77","113.69","36.09","34.86","30.6","15.02","89764","34.31","DUALSPOT-UV-BLUE-GREEN-RED-IR","685952","679590","906075","15.540133","4.806896","-0.007273","807698","880905","840253","11.223717","3.371227","-0.004173","796729","855973","829548","9.659135","2.861559","-0.050205","829261","865657","891951","7.819855","2.292065","-0.039800","730198","884125","961874","5.288320","1.456191","-0.186216","1701","1582","1528","1389","1345","1326","1353","1042","911","1177","980","898","1003","642","505",""
"MA200-0420","24211","56","1","1.10","1.4","2023-05-07T15:12:00","120","2023/05/07","15:12:00","-15.768654704093933","35.023183995857835","3.0","15","30","64","42","-6737","22537","-3866","5","150","149.65","113.04","36.60","34.86","30.8","15.14","89816","34.31","DUALSPOT-UV-BLUE-GREEN-RED-IR","685394","679199","905638","15.577908","4.820013","0.006090","807833","881210","840587","11.248162","3.378057","-0.021652","800937","860650","834087","9.679330","2.866685","-0.045775","828870","865335","891673","7.835679","2.296144","-0.051778","734238","889075","967295","5.298242","1.459017","-0.037520","1962","2104","2168","1603","1383","1289","1483","1162","1027","1404","1117","999","1226","1078","1022",""
"MA200-0420","24212","56","1","1.10","1.4","2023-05-07T15:12:30","120","2023/05/07","15:12:30","-15.767937004566193","35.02323416247964","1.1","15","30","64","42","-3083","23016","-1970","5","150","149.41","113.42","35.99","34.88","31.1","15.29","89888","34.31","DUALSPOT-UV-BLUE-GREEN-RED-IR","686008","680001","906860","15.615187","4.831358","-0.004022","807935","881484","840887","11.271099","3.382724","-0.093254","797025","856576","830178","9.696748","2.869826","-0.163378","829472","866078","892472","7.848452","2.297937","-0.474395","730722","884850","962680","5.304634","1.459653","-3.359151","1930","1851","1816","1499","961","730","1274","724","493","1129","499","239","787","246","41",""
"MA200-0420","24213","56","1","1.10","1.4","2023-05-07T15:13:00","120","2023/05/07","15:13:00","-15.76799887418747","35.023191161453724","1.7","15","30","64","42","-2072","22872","-3392","5","150","149.71","113.42","36.29","34.88","31.4","15.43","89876","34.31","DUALSPOT-UV-BLUE-GREEN-RED-IR","684989","679366","906170","15.694839","4.851681","-0.026424","807003","880795","840316","11.319423","3.392500","-0.097686","796396","856125","829819","9.734030","2.878517","-0.064417","823254","859753","885978","7.873582","2.302850","-0.155027","730452","884661","962491","5.319240","1.460704","2.930886","4124","3289","2915","3158","1996","1499","2728","1988","1677","2222","1358","1000","1798","404","-123",""
"MA200-0420","24214","56","1","1.10","1.4","2023-05-07T15:13:30","120","2023/05/07","15:13:30","-15.76858365535736","35.02318832837045","2.1","15","30","64","42","-3050","23162","-5058","5","150","149.89","113.23","36.66","34.88","31.7","15.57","89824","34.38","DUALSPOT-UV-BLUE-GREEN-RED-IR","686160","680711","908082","15.735435","4.865530","0.004592","807927","881971","841488","11.343855","3.399372","-0.020311","801540","861811","835342","9.754563","2.883297","-0.067990","823709","860328","886587","7.889643","2.306167","-0.132802","730996","885372","963286","5.329832","1.463558","-0.056468","2105","2219","2269","1599","1389","1300","1505","1082","905","1423","907","694","1306","1087","1004",""
"MA200-0420","24215","56","1","1.10","1.4","2023-05-07T15:14:00","120","2023/05/07","15:14:00","-15.769190847873688","35.02321249619126","2.7","15","30","64","42","-3575","22054","-6450","5","150","149.95","113.27","36.68","34.89","31.9","15.70","89760","34.38","DUALSPOT-UV-BLUE-GREEN-RED-IR","685195","679912","907149","15.771824","4.878509","0.008119","808139","882360","841923","11.367497","3.405970","-0.021623","796101","856058","829856","9.774382","2.889520","-0.004616","829456","866418","892920","7.904836","2.311302","0.007360","730268","884558","962433","5.338503","1.465542","-0.127076","1886","2078","2164","1547","1333","1242","1452","1408","1389","1345","1404","1428","1069","755","637",""
"MA200-0420","24216","56","1","1.10","1.4","2023-05-07T15:14:30","120","2023/05/07","15:14:30","-15.769502758979797","35.023337330669165","0.0","15","30","64","41","-2512","23333","-3891","5","150","149.88","113.96","35.92","34.89","32.0","15.76","89724","34.38","DUALSPOT-UV-BLUE-GREEN-RED-IR","683122","678008","904726","15.806658","4.890436","0.007031","805276","879341","839116","11.389953","3.415090","0.025624","799663","860002","833736","9.793358","2.896738","0.023186","828813","865827","892330","7.917862","2.315209","-0.009258","729781","884031","961850","5.346214","1.467189","-0.149531","1795","1950","2019","1460","1882","2062","1382","1668","1788","1146","1091","1068","945","640","525",""
"MA200-0420","24217","56","1","1.10","1.4","2023-05-07T15:15:00","120","2023/05/07","15:15:00","-15.769494354724884","35.02334749698639","0.0","15","30","64","42","-2650","23370","-3829","5","150","149.63","113.55","36.08","34.90","32.2","15.87","89728","34.38","DUALSPOT-UV-BLUE-GREEN-RED-IR","685207","680267","907877","15.845501","4.904344","0.009795","801640","875564","835561","11.415905","3.421277","-0.048554","796765","857021","830920","9.815072","2.900702","-0.155442","824238","861149","887544","7.934214","2.318219","-0.184672","731092","885673","963718","5.358297","1.470457","-0.048236","2009","2264","2378","1694","1271","1090","1587","912","628","1444","837","586","1486","1265","1181",""
"MA200-0420","24218","56","1","1.10","1.4","2023-05-07T15:15:30","120","2023/05/07","15:15:30","-15.76950490474701","35.0233444981277","0.0","15","30","64","41","-2700","23333","-3666","5","150","150.22","113.58","36.64","34.90","32.5","15.99","89724","34.38","DUALSPOT-UV-BLUE-GREEN-RED-IR","685745","681527","909896","15.909040","4.921873","-0.016672","802266","876829","836937","11.456244","3.430384","-0.065401","796865","857592","831551","9.844701","2.906686","-0.114758","823313","860569","887015","7.958170","2.322802","-0.169773","731176","886026","964131","5.371988","1.472703","-0.390280","3285","2810","2596","2632","1842","1505","2165","1356","1016","2116","1254","900","1683","856","543",""
"MA200-0420","24219","56","1","1.10","1.4","2023-05-07T15:16:00","120","2023/05/07","15:16:00","-15.769493222236633","35.023329827934504","0.0","15","30","64","41","-2650","23391","-3733","5","150","150.02","113.55","36.47","34.91","32.8","16.16","89724","34.38","DUALSPOT-UV-BLUE-GREEN-RED-IR","685457","681510","910020","16.051455","4.960497","-0.018111","802331","877122","837287","11.537231","3.449285","-0.055421","796898","857819","831829","9.911572","2.920681","-0.098491","823671","861058","887587","8.006162","2.332902","-0.118378","731225","886157","964307","5.405683","1.478888","-0.266026","7366","6220","5707","5287","3841","3225","4889","3185","2474","4240","2778","2177","4145","2369","1700",""
"MA200-0420","24220","56","1","1.10","1.4","2023-05-07T15:16:30","120","2023/05/07","15:16:30","-15.769492387771606","35.023350497707725","0.1","15","30","64","41","-2600","23360","-3696","5","150","149.76","113.59","36.17","34.92","33.0","16.24","89724","34.44","DUALSPOT-UV-BLUE-GREEN-RED-IR","685632","681895","910673","16.093403","4.974874","0.006181","802793","877800","838025","11.564915","3.460580","0.024768","796720","857747","831853","9.933437","2.929467","0.027258","824061","861572","888173","8.022992","2.338923","0.018506","731285","886330","964506","5.415323","1.481782","-0.015757","2169","2334","2408","1806","2315","2532","1598","2016","2191","1486","1670","1745","1185","1117","1092",""
"MA200-0420","24221","56","1","1.10","1.4","2023-05-07T15:17:00","120","2023/05/07","15:17:00","-15.769496321678162","35.0233444981277","0.0","15","30","64","41","-2533","23412","-3883","5","150","149.95","113.62","36.33","34.93","33.1","16.31","89720","34.44","DUALSPOT-UV-BLUE-GREEN-RED-IR","685845","682264","911302","16.131330","4.989746","0.015307","802697","877797","838107","11.589194","3.467911","-0.007423","797122","858293","832389","9.951945","2.934551","-0.025063","825286","862949","889624","8.038681","2.344318","0.011999","731965","887216","965493","5.426311","1.484259","-0.125990","1960","2404","2603","1584","1496","1458","1352","1162","1082","1385","1489","1533","1350","952","802",""
"MA200-0420","24222","56","1","1.10","1.4","2023-05-07T15:17:30","120","2023/05/07","15:17:30","-15.769495010375977","35.023324662819505","0.1","15","30","64","41","-2592","23424","-3748","5","150","149.89","113.23","36.66","34.94","33.2","16.38","89720","34.44","DUALSPOT-UV-BLUE-GREEN-RED-IR","680988","677527","905110","16.166210","5.002975","0.012313","802833","878112","838436","11.610965","3.473824","-0.025700","797482","858793","832933","9.972064","2.941948","0.016191","825438","863184","889914","8.053279","2.347906","-0.063895","731946","887244","965582","5.435022","1.487023","-0.005193","1809","2119","2258","1425","1195","1097","1475","1675","1759","1293","982","854","1074","1053","1045",""
"MA200-0420","24223","56","1","1.10","1.4","2023-05-07T15:18:00","120","2023/05/07","15:18:00","-15.769490003585815","35.023334331810474","0.1","15","30","64","41","-2612","23325","-3775","5","150","149.44","113.19","36.25","34.95","33.3","16.44","89720","34.50","DUALSPOT-UV-BLUE-GREEN-RED-IR","679705","676447","903764","16.202486","5.015306","0.005048","801325","876584","837024","11.633239","3.481406","0.007085","796516","857893","832064","9.991314","2.945650","-0.130835","824060","861822","888564","8.067172","2.350819","-0.117800","730392","885413","963603","5.444711","1.490512","0.026903","1882","1998","2050","1458","1550","1589","1411","847","611","1231","806","631","1195","1344","1401",""
"MA200-0420","24224","56","1","1.10","1.4","2023-05-07T15:18:30","120","2023/05/07","15:18:30","-15.769489347934723","35.02332582883537","0.2","15","30","64","41","-2588","23448","-3720","5","150","149.76","113.43","36.33","34.95","33.4","16.46","89720","34.50","DUALSPOT-UV-BLUE-GREEN-RED-IR","681199","678115","906105","16.242052","5.030258","0.012728","803819","879500","839881","11.659129","3.489792","0.001366","797742","859319","833545","10.011726","2.952510","0.006534","825420","863367","890168","8.082969","2.356411","0.015994","730927","886142","964436","5.454382","1.493640","0.002407","2048","2417","2582","1692","1711","1719","1494","1567","1598","1397","1544","1604","1190","1202","1206",""
"MA200-0420","24225","56","1","1.10","1.4","2023-05-07T15:19:00","120","2023/05/07","15:19:00","-15.7694953083992","35.023324662819505","0.0","15","30","64","41","-2625","23350","-3779","5","150","149.56","113.43","36.13","34.96","33.5","16.55","89724","34.50","DUALSPOT-UV-BLUE-GREEN-RED-IR","681022","678098","906206","16.278753","5.041363","-0.004817","803143","878898","839353","11.681401","3.494710","-0.066680","797850","859532","833785","10.029676","2.957237","-0.032510","825930","863992","890850","8.097664","2.359165","-0.171288","731487","886899","965271","5.464056","1.494509","-15.078950","1900","1805","1762","1455","1008","818","1313","1086","990","1299","764","544","1191","336","14",""
"MA200-0420","24226","56","1","1.10","1.4","2023-05-07T15:19:30","120","2023/05/07","15:19:30","-15.769488632678986","35.02331066131592","0.0","15","30","64","41","-2776","23232","-3332","5","150","149.59","113.46","36.13","34.98","33.7","16.62","89724","34.50","DUALSPOT-UV-BLUE-GREEN-RED-IR","680276","677518","905561","16.315952","5.055816","0.014832","802943","878773","839321","11.705523","3.502900","0.007385","797181","858961","833286","10.049312","2.962947","-0.013941","826031","864174","891074","8.113056","2.364363","0.009735","731883","887437","965852","5.472645","1.496299","-0.165597","1925","2350","2540","1576","1680","1725","1436","1312","1260","1361","1443","1477","1057","692","554",""
"MA200-0420","24227","56","1","1.10","1.4","2023-05-07T15:20:00","120","2023/05/07","15:20:00","-15.76950192451477","35.02332182787359","0.1","15","30","64","41","-2570","23466","-3637","5","150","150.28","113.66","36.61","34.98","33.7","16.64","89720","34.50","DUALSPOT-UV-BLUE-GREEN-RED-IR","679896","677284","905373","16.350958","5.067970","0.006202","802667","878574","839210","11.727581","3.511715","0.021803","797001","858866","833252","10.068054","2.970374","0.024450","825637","863874","890803","8.128012","2.369108","-0.002674","730958","886380","964758","5.482433","1.499698","0.017685","1808","1949","2013","1438","1784","1932","1368","1684","1815","1320","1300","1292","1203","1296","1332",""
"MA200-0420","24228","56","1","1.10","1.4","2023-05-07T15:20:30","120","2023/05/07","15:20:30","-15.769500613212585","35.02333349734545","0.0","15","30","64","41","-2629","23320","-3750","5","150","150.58","113.57","37.01","34.98","33.6","16.60","89720","34.44","DUALSPOT-UV-BLUE-GREEN-RED-IR","684068","681591","911278","16.389051","5.083759","0.017253","802246","878278","838975","11.750329","3.519410","0.004391","796267","858156","832606","10.088208","2.976984","0.000907","824701","862962","889912","8.143075","2.374812","0.022875","730357","885711","964010","5.492502","1.502903","-0.006056","1970","2505","2746","1484","1541","1565","1473","1482","1486","1330","1546","1635","1238","1209","1198",""
"MA200-0420","24229","56","1","1.10","1.4","2023-05-07T15:21:00","120","2023/05/07","15:21:00","-15.769496858119965","35.02332799695432","0.0","15","30","64","41","-2640","23348","-3776","5","150","149.50","113.19","36.31","34.98","33.5","16.55","89720","34.44","DUALSPOT-UV-BLUE-GREEN-RED-IR","679371","677052","905336","16.425631","5.098694","0.017259","802194","878331","839108","11.773333","3.530407","0.034986","796400","858380","832922","10.106459","2.985924","0.042351","824205","862516","889496","8.156042","2.379766","0.026044","730658","886099","964506","5.501596","1.505873","0.004485","1898","2416","2649","1506","2245","2561","1338","2044","2340","1149","1368","1459","1122","1142","1150",""
"MA200-0420","24230","56","1","1.10","1.4","2023-05-07T15:21:30","120","2023/05/07","15:21:30","-15.76950192451477","35.0233303271234","0.4","15","30","64","40","-1640","23664","-3404","5","150","149.67","113.60","36.07","34.98","33.5","16.53","89720","34.44","DUALSPOT-UV-BLUE-GREEN-RED-IR","682163","679989","909353","16.457737","5.110651","0.012182","799650","875691","836637","11.793285","3.535354","-0.038628","795049","857066","831645","10.122806","2.990895","-0.006305","822676","861008","887977","8.170039","2.383995","-0.009007","729962","885348","963690","5.510805","1.507367","-0.374230","1660","1947","2076","1302","1016","894","1194","1144","1123","1236","1176","1151","1132","578","369",""
"MA200-0420","24231","56","1","1.10","1.4","2023-05-07T15:22:00","120","2023/05/07","15:22:00","-15.769676208496094","35.02340999804437","1.8","15","30","64","41","-1760","23468","-3755","5","150","149.89","113.74","36.14","34.99","33.5","16.56","89696","34.44","DUALSPOT-UV-BLUE-GREEN-RED-IR","683804","681754","911851","16.490141","5.121429","0.003855","802044","878408","839265","11.812232","3.540701","-0.016096","795797","857937","832545","10.138406","2.993393","-0.234662","823851","862297","889317","8.181748","2.386885","-0.056298","730808","886398","964856","5.516922","1.509365","0.006710","1673","1751","1786","1234","1096","1037","1138","573","336","1032","802","707","751","772","780",""
"MA200-0420","24232","56","1","1.10","1.4","2023-05-07T15:22:30","120","2023/05/07","15:22:30","-15.770204663276672","35.02321432903409","3.6","15","30","64","41","-3308","22962","-3637","5","150","149.69","113.70","35.99","34.99","33.5","16.56","89648","34.50","DUALSPOT-UV-BLUE-GREEN-RED-IR","679120","677237","905922","16.525707","5.135458","0.015929","802146","878663","839596","11.835011","3.548300","0.006054","796273","858572","833225","10.156566","3.000379","0.023052","824243","862792","889908","8.195287","2.391151","-0.000761","731295","887083","965596","5.525390","1.511532","-0.064671","1837","2289","2493","1485","1565","1599","1326","1611","1731","1194","1189","1187","1040","841","766",""
"MA200-0420","24233","56","1","1.10","1.4","2023-05-07T15:23:00","120","2023/05/07","15:23:00","-15.771534144878387","35.02241466194391","4.9","15","30","64","40","-3179","22858","-7362","5","150","149.32","113.35","35.97","35.00","33.4","16.53","89588","34.50","DUALSPOT-UV-BLUE-GREEN-RED-IR","676299","674730","902751","16.588188","5.156751","0.005847","799329","875802","836964","11.871289","3.560775","0.009000","794864","857232","831990","10.186108","3.009516","-0.003648","823554","862222","889347","8.216781","2.397237","-0.021824","730153","885774","964228","5.539667","1.515710","-0.021631","3237","3477","3585","2372","2571","2656","2163","2109","2086","1902","1697","1613","1759","1622","1571",""
"MA200-0420","24234","56","1","1.10","1.4","2023-05-07T15:23:30","120","2023/05/07","15:23:30","-15.773127555847168","35.02411833032966","8.0","15","30","64","40","-6354","22537","-3629","5","150","150.21","114.06","36.15","35.00","33.3","16.49","89576","34.56","DUALSPOT-UV-BLUE-GREEN-RED-IR","677579","676276","904982","16.644005","5.175300","0.003947","801309","878224","839347","11.906618","3.571189","-0.009349","796345","859005","833799","10.215246","3.019839","0.014023","825693","864583","891852","8.239761","2.404713","0.004370","731766","887812","966497","5.553159","1.518748","-0.119469","2874","3013","3076","2296","2135","2066","2120","2370","2475","2021","2074","2096","1652","1173","993",""
"MA200-0420","24235","56","1","1.10","1.4","2023-05-07T15:24:00","120","2023/05/07","15:24:00","-15.774232506752014","35.02396799810231","12.3","16","30","64","41","-2084","23348","-3568","5","150","149.63","113.70","35.92","35.03","33.3","16.49","89468","34.56","DUALSPOT-UV-BLUE-GREEN-RED-IR","678564","677787","907389","16.760015","5.214136","0.004752","802183","879665","841022","11.991145","3.600437","0.009994","791853","854597","829713","10.285913","3.040874","-0.008695","824853","864064","891523","8.294795","2.422225","0.001220","731923","888223","967061","5.591318","1.530363","-0.009471","5992","6350","6511","5511","6036","6261","5159","4861","4736","4855","4891","4905","4688","4516","4452",""
"MA200-0420","24236","56","1","1.10","1.4","2023-05-07T15:24:30","120","2023/05/07","15:24:30","-15.778760135173798","35.02387333102524","19.8","16","30","64","40","-5596","23036","-3407","5","150","149.44","113.66","35.77","35.03","33.3","16.47","89628","34.56","DUALSPOT-UV-BLUE-GREEN-RED-IR","675494","676177","906200","17.062744","5.314871","0.004503","799808","878573","840653","12.230264","3.676676","0.001501","794034","858301","833892","10.497664","3.107822","0.000616","823487","863735","891660","8.472258","2.477056","-0.003129","730518","887368","966491","5.713505","1.567021","-0.012042","15643","16539","16945","15595","15799","15887","15466","15537","15567","15664","15377","15259","15016","14315","14050",""
"MA200-0420","24237","56","1","1.10","1.4","2023-05-07T15:25:00","120","2023/05/07","15:25:00","-15.78330248594284","35.02306882664561","16.6","16","30","64","40","-8400","23012","-3745","5","150","149.82","113.86","35.96","35.04","33.1","16.39","89868","34.56","DUALSPOT-UV-BLUE-GREEN-RED-IR","674683","676598","907628","17.347286","5.414116","0.007597","798560","878514","841231","12.458089","3.752882","0.006263","793161","858484","834610","10.698276","3.173989","0.005548","822156","863322","891708","8.637624","2.530229","0.002899","729733","887115","966558","5.829126","1.602017","-0.010438","14678","16210","16906","14833","15710","16088","14627","15276","15550","14571","14835","14945","14185","13595","13371",""
"MA200-0420","24238","56","1","1.10","1.4","2023-05-07T15:25:30","120","2023/05/07","15:25:30","-15.785629689693451","35.02106616087258","17.6","16","30","64","40","-4183","23554","-2333","5","150","149.89","113.74","36.14","35.04","33.0","16.35","89884","34.50","DUALSPOT-UV-BLUE-GREEN-RED-IR","671080","674258","905371","17.639112","5.511930","0.004188","794665","875586","839038","12.691519","3.828532","0.002184","789607","855777","832526","10.904090","3.239792","0.000800","818574","860533","889296","8.812134","2.585822","0.000407","727591","885220","964837","5.949089","1.639313","-0.005161","15069","15895","16271","15213","15516","15647","15022","15115","15154","15392","15431","15448","14733","14415","14294",""
"MA200-0420","24239","56","1","1.10","1.4","2023-05-07T15:26:00","120","2023/05/07","15:26:00","-15.785706162452698","35.01708666421473","11.7","16","30","64","40","-5388","22920","-2796","5","150","149.82","113.82","36.00","35.04","32.8","16.25","90032","34.50","DUALSPOT-UV-BLUE-GREEN-RED-IR","666362","673036","906332","18.143384","5.687937","0.007226","790055","874500","839985","13.114211","3.971827","0.007128","785810","855223","833727","11.275589","3.363371","0.006095","815125","859956","890243","9.120081","2.685371","0.003334","726006","885540","966282","6.163151","1.706912","-0.000341","26021","28717","29948","27530","29509","30369","27097","28500","29097","27143","27744","27994","26271","26232","26216",""
"MA200-0420","24240","56","1","1.10","1.4","2023-05-07T15:26:30","120","2023/05/07","15:26:30","-15.786957502365112","35.01467649824917","13.5","16","30","64","40","-7104","22500","-3391","5","150","149.97","113.63","36.33","35.04","32.9","16.29","90132","34.50","DUALSPOT-UV-BLUE-GREEN-RED-IR","661579","669986","903431","18.839130","5.930616","0.006219","785542","871421","837889","13.699497","4.166013","0.003750","782457","853268","832580","11.809067","3.537541","0.002478","813096","859298","890246","9.576650","2.831344","-0.000007","723638","883716","964791","6.482641","1.802821","-0.014265","35962","39231","40734","38182","39621","40250","38976","39799","40151","40310","40308","40307","39276","36876","35951",""
"MA200-0420","24241","56","1","1.10","1.4","2023-05-07T15:27:00","120","2023/05/07","15:27:00","-15.787946105003357","35.01367299910635","1.4","16","30","64","40","925","24304","-3933","5","150","150.08","113.47","36.61","35.04","32.9","16.31","90228","34.44","DUALSPOT-UV-BLUE-GREEN-RED-IR","661944","671103","905465","19.030884","5.994707","0.002609","785616","872301","839098","13.850120","4.213685","-0.002046","781888","853346","832960","11.942490","3.579939","-0.001866","811468","858149","889319","9.687654","2.866767","-0.001646","723473","883947","965243","6.559002","1.824854","-0.026187","9926","10281","10444","9840","9652","9569","9762","9613","9549","9814","9706","9660","9401","8406","8023",""
"MA200-0420","24242","56","1","1.10","1.4","2023-05-07T15:27:30","120","2023/05/07","15:27:30","-15.787387788295746","35.01152616459876","12.5","16","30","64","40","-3270","23820","-4629","5","150","149.32","113.39","35.93","35.03","33.0","16.34","90128","34.50","DUALSPOT-UV-BLUE-GREEN-RED-IR","665614","675296","911506","19.126832","6.028631","0.007565","784550","871566","838636","13.922878","4.237158","0.001825","780951","852740","832552","12.004565","3.599685","0.000469","810766","857750","889078","9.737947","2.880468","-0.025535","723006","883602","964978","6.591188","1.832964","-0.060081","4970","5546","5811","4756","4843","4880","4545","4563","4570","4450","3825","3563","3965","3153","2840",""
"MA200-0420","24243","56","1","1.10","1.4","2023-05-07T15:28:00","120","2023/05/07","15:28:00","-15.787298858165741","35.00829999987036","12.3","16","30","64","40","-5995","22820","-3287","5","150","150.28","113.35","36.93","35.03","33.1","16.38","90228","34.50","DUALSPOT-UV-BLUE-GREEN-RED-IR","660744","670767","905677","19.228988","6.064077","0.004511","784820","872308","839523","13.998569","4.262483","0.002671","780937","853054","833042","12.070189","3.620916","-0.000830","810624","857877","889358","9.792174","2.898929","0.006122","723215","884056","965524","6.627018","1.844109","-0.010098","5293","5637","5796","4950","5084","5142","4806","4773","4758","4799","5015","5105","4415","4215","4138",""
"MA200-0420","24244","56","1","1.10","1.4","2023-05-07T15:28:30","120","2023/05/07","15:28:30","-15.78775429725647","35.00635566562414","1.1","16","30","64","40","-3704","23229","-3162","5","150","149.56","113.15","36.41","35.03","33.1","16.39","90220","34.44","DUALSPOT-UV-BLUE-GREEN-RED-IR","658785","669203","903886","19.333792","6.101637","0.007372","783191","870927","838415","14.078594","4.289716","0.005434","779813","852219","832397","12.140399","3.643000","-0.002737","810630","858223","889870","9.850189","2.916935","-0.005380","721623","882373","963803","6.665849","1.856087","-0.009126","5440","6059","6344","5242","5544","5677","5151","5035","4985","5144","4961","4885","4794","4595","4519",""
"MA200-0420","24245","56","1","1.10","1.4","2023-05-07T15:29:00","120","2023/05/07","15:29:00","-15.788671851158142","35.0050496654585","0.0","16","30","64","40","-6424","22728","-3460","5","150","150.02","113.27","36.75","35.01","33.1","16.38","90176","34.44","DUALSPOT-UV-BLUE-GREEN-RED-IR","658545","669549","904730","19.470260","6.149482","0.005419","782472","870712","838492","14.186386","4.326236","0.004226","779146","851987","832454","12.233897","3.673738","0.001532","808891","856810","888608","9.927077","2.940929","-0.005764","720959","881815","963357","6.716812","1.871909","-0.009450","7076","7647","7911","7054","7367","7504","6853","6944","6984","6810","6550","6441","6285","6014","5910",""
"MA200-0420","24246","56","1","1.10","1.4","2023-05-07T15:29:30","120","2023/05/07","15:29:30","-15.788686990737915","35.00503433262929","0.0","16","30","64","40","-4016","23250","-3320","5","150","150.21","113.07","37.14","35.03","33.1","16.41","90184","34.44","DUALSPOT-UV-BLUE-GREEN-RED-IR","662142","673612","910574","19.561522","6.181028","0.003636","781336","869852","837875","14.253636","4.348428","0.000462","778120","851185","831828","12.293135","3.693795","0.003434","808269","856416","888358","9.974375","2.956556","0.000837","720529","881480","963044","6.747511","1.880271","-0.045953","4740","4988","5103","4409","4429","4438","4349","4483","4541","4196","4221","4231","3792","3145","2895",""
"MA200-0420","24247","56","1","1.10","1.4","2023-05-07T15:30:00","120","2023/05/07","15:30:00","-15.788230121135712","35.00269266613759","9.7","16","30","64","40","-7658","22287","-3341","5","150","150.15","114.18","35.97","35.01","33.3","16.46","90340","34.44","DUALSPOT-UV-BLUE-GREEN-RED-IR","660741","672685","909655","19.680558","6.223638","0.008445","779689","868523","836809","14.344855","4.379362","0.006916","777779","851290","832072","12.372619","3.719359","0.002353","808579","857108","889227","10.038549","2.976799","0.000183","720767","882021","963789","6.790861","1.893855","-0.001088","6123","6958","7344","5922","6375","6574","5779","5900","5952","5639","5646","5649","5303","5275","5264",""
