"Serial number","Datum ID","Session ID","Data format version","Firmware version","App version","Date / time local","Timezone offset (mins)","Date local (yyyy/MM/dd)","Time local (hh:mm:ss)","GPS lat (ddmm.mmmmm)","GPS long (dddmm.mmmmm)","GPS speed (km/h)","GPS sat count","Timebase (s)","Status","Battery remaining (%)","Accel X","Accel Y","Accel Z","Tape position","Flow setpoint (mL/min)","Flow total (mL/min)","Flow1 (mL/min)","Flow2 (mL/min)","Sample temp (C)","Sample RH (%)","Sample dewpoint (C)","Internal pressure (Pa)","Internal temp (C)","Optical config","UV Sen1","UV Sen2","UV Ref","UV ATN1","UV ATN2","UV K","Blue Sen1","Blue Sen2","Blue Ref","Blue ATN1","Blue ATN2","Blue K","Green Sen1","Green Sen2","Green Ref","Green ATN1","Green ATN2","Green K","Red Sen1","Red Sen2","Red Ref","Red ATN1","Red ATN2","Red K","IR Sen1","IR Sen2","IR Ref","IR ATN1","IR ATN2","IR K","UV BC1","UV BC2","UV BCc","Blue BC1","Blue BC2","Blue BCc","Green BC1","Green BC2","Green BCc","Red BC1","Red BC2","Red BCc","IR BC1","IR BC2","IR BCc","Readable status"
"MA200-0416","54808","115","1","1.10","1.6","2023-08-04T08:45:00","120","2023/08/04","08:45:00","-15.785089194774628","35.03726448863745","1.0","11","300","66","78","18200","2716","-18284","1","150","150.69","120.34","30.35","24.29","46.3","12.01","90280","23.25","DUALSPOT-UV-BLUE-GREEN-RED-IR","788221","710412","907164","0.000000","0.000000","0.000000","750469","879077","762073","0.000000","0.000000","0.000000","846402","887464","815862","0.000000","0.000000","0.000000","835616","906100","862588","0.000000","0.000000","0.000000","712461","840176","951905","0.000000","0.000000","0.000000","","","","","","","","","","","","","","","","Start up-DualSpot on"
"MA200-0416","54809","115","1","1.10","1.6","2023-08-04T08:50:01","120","2023/08/04","08:50:01","-15.78515338897705","35.03723665699363","0.2","11","300","64","77","-508","-1727","-26460","1","150","149.76","120.42","29.35","24.12","48.6","12.60","90272","22.88","DUALSPOT-UV-BLUE-GREEN-RED-IR","784870","708127","907223","0.000000","0.000000","0.000000","748031","876516","761735","0.000000","0.000000","0.000000","846453","887715","817851","0.000000","0.000000","0.000000","835246","905765","863839","0.000000","0.000000","0.000000","712169","839562","952796","0.000000","0.000000","0.000000","","","","","","","","","","","","","","","","DualSpot on"
"MA200-0416","54810","115","1","1.10","1.6","2023-08-04T08:55:01","120","2023/08/04","08:55:01","-15.785096526145935","35.03725465387106","0.5","10","300","64","77","-516","-1627","-26391","1","150","149.73","120.56","29.17","24.02","49.0","12.63","90276","23.00","DUALSPOT-UV-BLUE-GREEN-RED-IR","783319","708602","908619","0.349071","0.087028","0.000000","747270","877070","762643","0.221429","0.058484","0.000000","841168","883292","814154","0.176775","0.048316","0.000000","833935","905249","863701","0.138350","0.040662","0.000000","712228","840209","953728","0.087993","0.021230","0.000000","1700","1752","1700","1361","1486","1361","1217","1375","1217","1151","1398","1151","1019","1016","1019","DualSpot on"
"MA200-0416","54811","115","1","1.10","1.6","2023-08-04T09:00:01","120","2023/08/04","09:00:01","-15.78503954410553","35.03705632314086","0.1","10","300","64","76","-515","-1657","-26250","1","150","150.49","120.96","29.53","24.01","49.5","12.79","90292","23.06","DUALSPOT-UV-BLUE-GREEN-RED-IR","781408","709345","910590","0.811122","0.199668","0.000000","746238","877853","763841","0.514166","0.127262","0.000000","840522","884241","815486","0.411993","0.103950","0.000000","835268","907971","866687","0.323635","0.085657","0.000000","713145","842090","956106","0.206903","0.047795","0.000000","2243","2240","2243","1794","1726","1794","1614","1564","1614","1536","1528","1536","1373","1256","1373","DualSpot on"
"MA200-0416","54812","115","1","1.10","1.6","2023-08-04T09:05:00","120","2023/08/04","09:05:00","-15.785104036331177","35.03700215741992","0.8","9","300","64","75","-557","-1492","-26446","1","150","149.61","120.48","29.12","24.09","50.0","13.02","0","0.00","DUALSPOT-UV-BLUE-GREEN-RED-IR","773512","705174","906459","1.367341","0.333671","0.000000","745499","879430","765869","0.878815","0.211572","0.000000","839220","884863","816606","0.706130","0.171357","0.000000","828861","902596","862007","0.552792","0.137167","0.000000","709460","838692","952614","0.357357","0.082517","0.000000","2711","2702","2711","2243","2146","2243","2026","1921","2026","1908","1774","1908","1744","1665","1744","DualSpot on"
"MA200-0416","54813","115","1","1.10","1.6","2023-08-04T09:10:00","120","2023/08/04","09:10:00","-15.784951090812683","35.03714465722442","0.1","9","300","64","75","-480","-1619","-26427","1","150","149.96","121.03","28.94","24.17","50.0","13.09","0","0.00","DUALSPOT-UV-BLUE-GREEN-RED-IR","771636","706661","909744","1.973617","0.485057","0.000000","739944","875593","763281","1.284726","0.309122","0.000000","833285","880847","813502","1.037025","0.248336","0.000000","829582","905228","865042","0.815970","0.197022","0.000000","709538","839930","954390","0.535205","0.123725","0.000000","2942","3072","2942","2486","2499","2486","2269","2208","2269","2181","2075","2181","2052","1989","2052","DualSpot on"
"MA200-0416","54814","115","1","1.10","1.6","2023-08-04T09:15:01","120","2023/08/04","09:15:01","-15.78493046760559","35.037049155682325","0.7","9","300","64","74","-508","-1603","-26600","1","150","149.45","121.11","28.34","24.27","49.8","13.11","90296","23.38","DUALSPOT-UV-BLUE-GREEN-RED-IR","764952","703703","907301","2.576971","0.636919","0.000000","734982","872357","761188","1.691997","0.407016","0.000000","832942","882722","815902","1.369673","0.326091","0.000000","825145","902206","862661","1.078682","0.255787","0.000000","706543","837547","952062","0.713232","0.164493","0.000000","2926","3147","2926","2493","2560","2493","2280","2277","2280","2176","2080","2176","2053","2009","2053","DualSpot on"
"MA200-0416","54815","115","1","1.10","1.6","2023-08-04T09:20:00","120","2023/08/04","09:20:00","-15.785012066364288","35.03704348951578","0.2","10","300","64","73","-456","-1584","-26616","1","150","149.86","120.60","29.26","24.34","48.8","12.88","90304","23.50","DUALSPOT-UV-BLUE-GREEN-RED-IR","761633","703499","908317","3.122699","0.777885","0.025401","732822","872093","761621","2.039240","0.492352","0.000000","831038","882542","816250","1.645618","0.391871","0.000000","824241","902724","863561","1.291805","0.305175","0.000000","705828","837577","952413","0.853862","0.197453","0.000000","2657","2829","2886","2134","2162","2134","1899","1866","1899","1772","1693","1772","1628","1573","1628","DualSpot on"
"MA200-0416","54816","115","1","1.10","1.6","2023-08-04T09:25:00","120","2023/08/04","09:25:00","-15.78492534160614","35.03709348663688","0.2","11","300","64","72","-504","-1536","-26347","1","150","149.63","121.23","28.40","24.35","47.8","12.56","90304","23.56","DUALSPOT-UV-BLUE-GREEN-RED-IR","752616","698447","903220","3.750143","0.936235","0.024871","731559","873343","763484","2.452761","0.594300","0.000000","824902","878260","812949","1.980054","0.473058","0.000000","824023","904323","865642","1.557012","0.367975","0.000000","705633","838510","953852","1.030000","0.234980","0.000000","3039","3274","3352","2528","2660","2528","2290","2373","2290","2194","2218","2194","2029","1845","2029","DualSpot on"
"MA200-0416","54817","115","1","1.10","1.6","2023-08-04T09:30:01","120","2023/08/04","09:30:01","-15.785065531730652","35.03716365620494","0.4","12","300","64","72","-552","-1680","-26475","1","150","149.63","120.95","28.69","24.31","46.6","12.13","0","0.00","DUALSPOT-UV-BLUE-GREEN-RED-IR","749305","698463","904645","4.346683","1.089368","0.022761","729720","873697","764610","2.849937","0.695920","0.000000","822867","878225","813562","2.302628","0.554680","0.000000","823213","905110","866960","1.807782","0.431525","0.000000","705352","839222","955031","1.190317","0.274410","0.000000","2897","3135","3215","2434","2626","2434","2214","2362","2214","2080","2222","2080","1851","1920","1851","DualSpot on"
"MA200-0416","54818","115","1","1.10","1.6","2023-08-04T09:35:00","120","2023/08/04","09:35:00","-15.785038232803345","35.0371721573174","0.5","12","300","64","72","-512","-1520","-26532","1","150","150.03","120.90","29.12","24.25","45.7","11.78","0","0.00","DUALSPOT-UV-BLUE-GREEN-RED-IR","750480","701998","910347","4.819442","1.211910","0.019139","726662","872075","763767","3.165743","0.776345","0.022261","824737","881843","817479","2.555805","0.621509","0.000000","820423","903356","865714","2.009660","0.485366","0.000000","703862","838209","954126","1.313585","0.303162","0.000000","2296","2471","2530","1936","2047","2083","1738","1905","1738","1675","1854","1675","1424","1379","1424","DualSpot on"
"MA200-0416","54819","115","1","1.10","1.6","2023-08-04T09:40:00","120","2023/08/04","09:40:00","-15.785066723823547","35.0371299944818","0.3","12","300","64","71","-492","-1653","-26473","1","150","149.72","120.43","29.28","24.17","45.3","11.58","90308","23.44","DUALSPOT-UV-BLUE-GREEN-RED-IR","747008","700612","909425","5.183895","1.309219","0.022372","724227","870746","763133","3.415540","0.843627","0.036635","822440","880693","816851","2.757424","0.674903","0.000000","817570","901283","864117","2.167311","0.529742","0.000000","702693","837424","953495","1.411060","0.327764","0.000000","1777","1951","2010","1537","1703","1757","1389","1513","1389","1313","1520","1313","1130","1173","1130","DualSpot on"
"MA200-0416","54820","115","1","1.10","1.6","2023-08-04T09:45:01","120","2023/08/04","09:45:01","-15.785101890563965","35.037300158292055","0.4","12","300","64","70","-472","-1611","-26528","1","150","149.67","120.99","28.68","24.18","46.5","11.98","0","0.00","DUALSPOT-UV-BLUE-GREEN-RED-IR","740526","696688","905302","5.599630","1.417718","0.021256","719595","867056","760394","3.699148","0.910329","-0.002856","818827","878384","815162","2.989220","0.729454","0.000000","813467","897966","861298","2.348042","0.571393","0.000000","700339","835389","951385","1.525466","0.354560","0.000000","2018","2221","2290","1737","1724","1719","1590","1579","1590","1498","1456","1498","1320","1305","1320","DualSpot on"
"MA200-0416","54821","115","1","1.10","1.6","2023-08-04T09:50:01","120","2023/08/04","09:50:01","-15.78493183851242","35.03745215758681","0.7","12","300","64","70","-528","-1660","-26412","1","150","149.96","121.39","28.57","24.29","47.5","12.41","0","0.00","DUALSPOT-UV-BLUE-GREEN-RED-IR","740931","699448","910037","6.068130","1.541994","0.023981","720274","869921","763494","4.007720","0.984681","0.007614","819104","880359","817425","3.236568","0.785339","-0.017251","815951","902053","865596","2.540341","0.611352","0.000000","701625","837711","954330","1.654075","0.384339","0.000000","2266","2554","2652","1884","1929","1943","1691","1623","1602","1589","1403","1589","1480","1455","1480","DualSpot on"
"MA200-0416","54822","115","1","1.10","1.6","2023-08-04T09:55:00","120","2023/08/04","09:55:00","-15.784972369670868","35.037260822951794","0.3","11","300","64","69","-472","-1643","-26412","1","150","149.45","120.38","29.07","24.38","47.4","12.48","90292","23.56","DUALSPOT-UV-BLUE-GREEN-RED-IR","732614","693949","903980","6.527969","1.665374","0.019889","718336","869491","763615","4.297172","1.054114","-0.002058","813221","875610","813452","3.466036","0.836647","-0.031210","815227","902554","866373","2.717896","0.648880","0.000000","700812","837545","954440","1.776685","0.412549","0.000000","2243","2493","2578","1782","1770","1766","1582","1465","1428","1479","1295","1479","1422","1355","1422","DualSpot on"
"MA200-0416","54823","115","1","1.10","1.6","2023-08-04T10:00:00","120","2023/08/04","10:00:00","-15.785102188587189","35.03715665638447","0.6","11","300","64","69","-492","-1635","-26475","1","150","150.41","121.45","28.96","24.47","47.4","12.54","90288","23.63","DUALSPOT-UV-BLUE-GREEN-RED-IR","729837","694874","906890","7.217281","1.848764","0.018650","713094","865867","761241","4.702698","1.152849","0.005764","811294","875717","814159","3.781736","0.909924","-0.009603","808642","897038","861551","2.961578","0.702893","0.000000","695641","832423","948936","1.937028","0.448283","0.000000","3333","3719","3852","2475","2527","2544","2158","2100","2082","2013","1871","2013","1844","1723","1844","DualSpot on"
"MA200-0416","54824","115","1","1.10","1.6","2023-08-04T10:05:01","120","2023/08/04","10:05:01","-15.78508085012436","35.037138655781746","0.4","11","300","64","69","-360","-1524","-26352","1","150","150.03","121.03","29.00","24.55","47.3","12.58","0","0.00","DUALSPOT-UV-BLUE-GREEN-RED-IR","728845","696889","910902","7.804929","2.004594","0.016070","712880","868020","763779","5.079551","1.242650","-0.001473","811266","877675","816554","4.085250","0.978452","-0.020140","810808","901072","865850","3.202381","0.755345","-0.042231","696623","834655","951812","2.099891","0.483050","0.000000","2851","3155","3260","2308","2295","2291","2082","1961","1923","1996","1814","1758","1879","1674","1879","DualSpot on"
"MA200-0416","54825","115","1","1.10","1.6","2023-08-04T10:10:00","120","2023/08/04","10:10:00","0","0","0.0","11","300","64","68","-460","-1516","-26400","1","150","150.09","121.37","28.71","24.70","48.2","13.02","0","0.00","DUALSPOT-UV-BLUE-GREEN-RED-IR","722186","693457","907842","8.389620","2.164091","0.020382","708217","864915","761798","5.474715","1.340192","0.009923","806089","874208","813910","4.404178","1.052129","-0.007238","806093","897605","862982","3.453528","0.808483","-0.046342","696793","835987","953721","2.273813","0.523079","0.000000","2829","3262","3413","2413","2518","2552","2181","2130","2114","2075","1856","1789","2001","1947","2001","DualSpot on"
"MA200-0416","54826","115","1","1.10","1.6","2023-08-04T10:15:01","120","2023/08/04","10:15:01","0","0","0.0","11","300","64","68","-473","-1603","-26546","1","150","149.89","120.66","29.23","24.90","48.8","13.39","0","0.00","DUALSPOT-UV-BLUE-GREEN-RED-IR","718346","691872","906812","8.811483","2.276577","0.013549","705417","863311","760844","5.748030","1.400751","-0.022170","807147","876915","816765","4.623451","1.094502","-0.078048","803505","895953","861671","3.622983","0.835651","-0.216591","694005","833444","950999","2.395694","0.546772","0.000000","2053","2260","2332","1679","1535","1489","1508","1203","1108","1409","932","789","1411","1132","1411","DualSpot on"
"MA200-0416","54827","115","1","1.10","1.6","2023-08-04T10:20:01","120","2023/08/04","10:20:01","0","0","0.0","11","300","64","67","-457","-1600","-26396","1","150","149.73","120.91","28.82","25.10","49.1","13.66","0","0.00","DUALSPOT-UV-BLUE-GREEN-RED-IR","714384","690234","905731","9.244898","2.397646","0.020368","707089","867288","764858","6.037247","1.467353","-0.007777","803312","874373","814798","4.857181","1.143068","-0.041523","806829","901062","866840","3.806559","0.870311","-0.096968","695030","835539","953699","2.528768","0.574430","0.000000","2105","2467","2593","1773","1713","1693","1604","1398","1335","1523","1206","1112","1537","1340","1537","DualSpot on"
"MA200-0416","54828","115","1","1.10","1.6","2023-08-04T10:25:00","120","2023/08/04","10:25:00","0","0","0.0","11","300","64","66","-500","-1700","-26352","1","150","150.49","121.07","29.42","25.29","48.9","13.78","90248","24.38","DUALSPOT-UV-BLUE-GREEN-RED-IR","708373","687309","903268","9.813618","2.547176","0.010147","702680","864576","763159","6.438252","1.560599","-0.009388","798845","871781","812939","5.189211","1.213479","-0.038437","803218","898932","865252","4.073880","0.920593","-0.101235","691473","832569","950663","2.723789","0.612984","0.000000","2759","2985","3064","2455","2349","2315","2276","1986","1898","2215","1714","1568","2250","1830","2250","DualSpot on"
"MA200-0416","54829","115","1","1.10","1.6","2023-08-04T10:30:01","120","2023/08/04","10:30:01","0","0","0.0","11","300","64","66","-408","-1568","-26403","1","150","149.42","120.80","28.61","25.49","48.7","13.90","90244","24.56","DUALSPOT-UV-BLUE-GREEN-RED-IR","705997","687535","904831","10.327051","2.687267","0.016503","701230","865049","764196","6.782618","1.642478","0.000746","800184","875154","816560","5.463758","1.271922","-0.027830","801947","899091","865728","4.287481","0.959402","-0.099983","693634","836196","955085","2.873956","0.642840","0.000000","2496","2875","3009","2113","2121","2124","1886","1695","1637","1773","1360","1241","1736","1457","1736","DualSpot on"
"MA200-0416","54830","115","1","1.10","1.6","2023-08-04T10:35:01","120","2023/08/04","10:35:01","0","0","0.0","11","300","64","66","-511","-1642","-26473","1","150","150.15","120.82","29.33","25.68","48.6","14.05","90240","24.75","DUALSPOT-UV-BLUE-GREEN-RED-IR","702988","686731","904853","10.754087","2.804712","0.014160","698742","863863","763656","7.067968","1.708716","-0.008693","797284","873544","815478","5.695086","1.319098","-0.046182","799496","897697","864663","4.468876","0.990581","-0.134377","691095","834007","952832","3.005626","0.668999","-0.101486","2076","2351","2448","1750","1674","1649","1589","1335","1258","1506","1066","941","1522","1245","1166","DualSpot on"
"MA200-0416","54831","115","1","1.10","1.6","2023-08-04T10:40:00","120","2023/08/04","10:40:00","0","0","0.0","11","300","64","65","-464","-1640","-26388","1","150","150.01","120.56","29.45","25.83","47.7","13.89","0","0.00","DUALSPOT-UV-BLUE-GREEN-RED-IR","702175","688026","907630","11.174648","2.922897","0.015151","694367","860259","760969","7.344178","1.774782","-0.003832","796594","874316","816538","5.915940","1.367003","-0.028812","794781","893652","861059","4.642246","1.025754","-0.059861","690939","834617","953799","3.127605","0.694376","-0.075288","2048","2357","2466","1698","1663","1651","1520","1350","1299","1442","1198","1129","1413","1203","1144","DualSpot on"
"MA200-0416","54832","115","1","1.10","1.6","2023-08-04T10:45:01","120","2023/08/04","10:45:01","0","0","0.0","12","300","64","64","-469","-1676","-26530","1","150","150.29","120.86","29.43","25.90","45.9","13.35","0","0.00","DUALSPOT-UV-BLUE-GREEN-RED-IR","696195","684367","903875","11.619408","3.049377","0.015962","694344","862012","763112","7.626524","1.850164","0.014819","791978","870717","813671","6.141446","1.424057","0.007883","796143","896365","864019","4.813731","1.064175","-0.023721","687130","830780","949636","3.241054","0.719718","-0.036647","2161","2524","2653","1731","1898","1952","1549","1609","1627","1423","1309","1277","1311","1202","1172","DualSpot on"
"MA200-0416","54833","115","1","1.10","1.6","2023-08-04T10:50:01","120","2023/08/04","10:50:01","0","0","0.0","12","300","64","64","-492","-1580","-26408","1","150","150.43","120.44","29.98","25.84","44.3","12.75","0","0.00","DUALSPOT-UV-BLUE-GREEN-RED-IR","695233","685379","906309","12.024313","3.164899","0.013761","693918","863211","764725","7.900118","1.923483","0.011625","791464","871568","814941","6.360810","1.481879","0.011203","796977","898448","866407","4.985874","1.107710","0.004021","687816","832270","951559","3.349189","0.744014","-0.042749","1974","2263","2366","1683","1812","1854","1512","1601","1628","1433","1456","1463","1254","1132","1097","DualSpot on"
"MA200-0416","54834","115","1","1.10","1.6","2023-08-04T10:55:00","120","2023/08/04","10:55:00","0","0","0.0","12","300","64","64","-464","-1592","-26396","1","150","149.94","120.30","29.63","25.75","43.6","12.43","0","0.00","DUALSPOT-UV-BLUE-GREEN-RED-IR","695831","688690","912142","12.578075","3.326261","0.015839","690478","861393","763959","8.292404","2.031624","0.016439","788220","870022","814205","6.681205","1.568472","0.016877","794096","896869","865486","5.240478","1.175606","0.018372","686412","831576","951179","3.513450","0.785717","0.010827","2703","3198","3376","2417","2705","2798","2211","2426","2492","2123","2298","2349","1907","1965","1982","DualSpot on"
"MA200-0416","54835","115","1","1.10","1.6","2023-08-04T11:00:00","120","2023/08/04","11:00:00","0","0","0.0","12","300","64","63","-456","-1656","-26288","1","150","149.94","121.11","28.83","25.68","43.2","12.24","90208","24.94","DUALSPOT-UV-BLUE-GREEN-RED-IR","690466","685465","908999","13.010218","3.450388","0.016882","686564","858317","761823","8.582259","2.111482","0.020139","789257","872619","817151","6.915850","1.633113","0.024710","789258","892576","861757","5.422534","1.225751","0.031142","688356","834652","954953","3.625278","0.813603","0.015987","2095","2529","2685","1774","2053","2144","1608","1861","1940","1508","1745","1814","1289","1351","1369","DualSpot on"
"MA200-0416","54836","115","1","1.10","1.6","2023-08-04T11:05:01","120","2023/08/04","11:05:01","0","0","0.0","12","300","64","63","-528","-1611","-26452","1","150","150.60","120.71","29.89","25.74","45.3","13.01","90200","24.94","DUALSPOT-UV-BLUE-GREEN-RED-IR","688304","685476","910160","13.451403","3.575037","0.011982","685255","858650","762710","8.889406","2.184981","-0.005237","784154","868682","813919","7.165128","1.688778","-0.020559","789940","894739","864206","5.620151","1.268762","-0.032953","684342","830645","950614","3.757839","0.840820","-0.075060","2146","2449","2559","1886","1823","1802","1714","1546","1494","1642","1443","1385","1534","1272","1196","DualSpot on"
"MA200-0416","54837","115","1","1.10","1.6","2023-08-04T11:10:01","120","2023/08/04","11:10:01","0","0","0.0","12","300","64","62","-431","-1611","-26508","1","150","149.57","120.58","28.99","25.92","46.3","13.53","0","0.00","DUALSPOT-UV-BLUE-GREEN-RED-IR","680771","680375","904719","13.948351","3.722471","0.017358","683763","859082","763785","9.249934","2.278334","0.010043","781843","868098","813944","7.463626","1.759958","-0.001417","788950","895274","865201","5.860548","1.320815","-0.025069","682908","830015","950319","3.931484","0.881372","-0.009694","2420","2987","3194","2216","2387","2443","2055","2038","2033","2000","1801","1743","2011","1954","1937","DualSpot on"
"MA200-0416","54838","115","1","1.10","1.6","2023-08-04T11:15:01","120","2023/08/04","11:15:01","0","0","0.0","12","300","64","62","-479","-1611","-26303","1","150","149.96","120.34","29.63","26.07","46.3","13.65","0","0.00","DUALSPOT-UV-BLUE-GREEN-RED-IR","678220","679565","904670","14.324537","3.834064","0.015265","681822","858349","763629","9.514836","2.345824","0.004650","783351","871242","817326","7.685191","1.812481","-0.006636","787067","894413","864690","6.037801","1.358616","-0.034543","684871","833249","954264","4.056751","0.908497","-0.045275","1836","2212","2350","1631","1688","1707","1528","1471","1454","1477","1280","1222","1454","1279","1228","DualSpot on"
"MA200-0416","54839","115","1","1.10","1.6","2023-08-04T11:20:00","120","2023/08/04","11:20:00","0","0","0.0","11","300","64","61","-448","-1568","-26463","1","150","149.90","120.13","29.76","26.24","46.1","13.73","90168","25.31","DUALSPOT-UV-BLUE-GREEN-RED-IR","679062","682529","909778","14.757019","3.960052","0.013134","678783","856527","762634","9.831200","2.426440","0.003720","779193","868398","815138","7.946097","1.872277","-0.013670","783490","891845","862556","6.248230","1.401400","-0.048113","681431","830015","950878","4.207889","0.942496","-0.031958","2114","2486","2622","1952","2008","2026","1803","1668","1626","1757","1442","1351","1757","1595","1549","DualSpot on"
"MA200-0416","54840","115","1","1.10","1.6","2023-08-04T11:25:00","120","2023/08/04","11:25:00","0","0","0.0","11","300","64","61","-469","-1626","-26392","1","150","149.76","119.93","29.83","26.42","46.5","14.05","90156","25.50","DUALSPOT-UV-BLUE-GREEN-RED-IR","675358","680984","908872","15.202883","4.090074","0.012551","679701","859748","766057","10.140696","2.499932","-0.006319","776119","866669","813974","8.199522","1.925248","-0.032167","781815","891397","862441","6.448736","1.437926","-0.081482","683172","833156","954747","4.356254","0.973460","-0.060035","2183","2559","2698","1913","1826","1797","1754","1474","1388","1677","1228","1099","1728","1449","1369","DualSpot on"
"MA200-0416","54841","115","1","1.10","1.6","2023-08-04T11:30:00","120","2023/08/04","11:30:00","0","0","0.0","11","300","64","60","-380","-1536","-26400","1","150","149.37","120.48","28.89","26.53","45.2","13.69","90148","25.63","DUALSPOT-UV-BLUE-GREEN-RED-IR","671084","678851","907251","15.667011","4.226820","0.015225","676390","857612","764834","10.475411","2.589291","0.012497","775995","868346","816109","8.478348","1.995515","0.007377","783237","894567","865959","6.674158","1.489621","-0.008910","679316","829448","950869","4.517521","1.008559","-0.029855","2262","2780","2971","2059","2293","2369","1921","2019","2049","1877","1795","1771","1869","1697","1647","DualSpot on"
"MA200-0416","54842","115","1","1.10","1.6","2023-08-04T11:35:01","120","2023/08/04","11:35:01","0","0","0.0","11","300","64","60","-438","-1650","-26403","1","150","150.03","120.38","29.65","26.63","45.1","13.75","90144","25.69","DUALSPOT-UV-BLUE-GREEN-RED-IR","668443","678093","907312","16.066572","4.346315","0.014126","669807","851080","759586","10.761654","2.662307","0.004197","774148","867821","816070","8.714614","2.053255","-0.001191","782029","894487","866273","6.863306","1.532626","-0.016024","678426","829201","950847","4.648174","1.038999","-0.016118","1949","2367","2521","1762","1825","1846","1629","1616","1612","1576","1455","1420","1516","1434","1410","DualSpot on"
"MA200-0416","54843","115","1","1.10","1.6","2023-08-04T11:40:00","120","2023/08/04","11:40:00","0","0","0.0","11","300","64","60","-444","-1643","-26552","1","150","149.51","120.38","29.13","26.80","46.1","14.23","90140","25.88","DUALSPOT-UV-BLUE-GREEN-RED-IR","665758","677280","907335","16.472383","4.466511","0.014274","672918","856787","765200","11.034161","2.730077","0.003225","771164","865961","814729","8.935509","2.101785","-0.015314","780397","893919","865975","7.035696","1.564890","-0.058431","680208","832227","954579","4.774914","1.064263","-0.061410","1980","2423","2588","1678","1724","1740","1523","1383","1340","1436","1111","1018","1470","1211","1137","DualSpot on"
"MA200-0416","54844","115","1","1.10","1.6","2023-08-04T11:45:00","120","2023/08/04","11:45:00","0","0","0.0","10","300","64","59","-488","-1635","-26260","1","150","149.83","120.26","29.57","26.96","45.5","14.18","90132","26.00","DUALSPOT-UV-BLUE-GREEN-RED-IR","661956","675299","905798","16.872672","4.588619","0.014713","669916","854818","764004","11.326006","2.808022","0.009060","771887","868362","817485","9.177694","2.160191","-0.002831","777761","892231","864713","7.231175","1.606518","-0.028803","677227","829487","951750","4.919128","1.097729","-0.015910","1955","2425","2600","1799","1953","2004","1672","1639","1629","1630","1412","1349","1675","1580","1553","DualSpot on"
"MA200-0416","54845","115","1","1.10","1.6","2023-08-04T11:50:01","120","2023/08/04","11:50:01","0","0","0.0","10","300","64","59","-475","-1572","-26403","1","150","150.43","119.85","30.57","27.14","45.6","14.39","90124","26.19","DUALSPOT-UV-BLUE-GREEN-RED-IR","662226","677194","909322","17.220392","4.696131","0.013107","665631","850911","761007","11.573261","2.870577","-0.000960","767511","864818","814498","9.383194","2.206081","-0.020747","772576","887480","860387","7.394709","1.639747","-0.047875","677079","830093","952700","5.039436","1.123813","-0.047519","1704","2065","2200","1529","1516","1512","1423","1246","1191","1368","1090","1011","1402","1191","1131","DualSpot on"
"MA200-0416","54846","115","1","1.10","1.6","2023-08-04T11:55:00","120","2023/08/04","11:55:00","0","0","0.0","11","300","64","58","-500","-1668","-26472","1","150","150.23","120.30","29.93","27.32","45.4","14.47","90112","26.38","DUALSPOT-UV-BLUE-GREEN-RED-IR","626598","665002","910679","22.669838","6.580780","0.015644","647071","844240","761539","14.350151","3.688162","0.013793","751408","859602","814106","11.370379","2.740246","0.008423","762748","886287","862425","8.848292","1.992952","-0.003515","670366","827959","952144","5.946777","1.318387","-0.036275","26607","36984","41229","17112","20250","21335","13714","14817","15167","12122","11839","11757","10536","9081","8666","DualSpot on"
"MA200-0416","54847","115","1","1.10","1.6","2023-08-04T12:00:00","120","2023/08/04","12:00:00","0","0","0.0","12","300","64","58","-424","-1608","-26452","1","150","149.49","119.63","29.86","27.42","43.8","14.00","0","0.00","DUALSPOT-UV-BLUE-GREEN-RED-IR","577851","644714","907309","30.507542","9.348095","0.012267","615269","833469","764468","19.819472","5.368709","0.012150","720277","850480","815844","15.838757","4.023808","0.010632","739302","881351","865734","12.374154","2.939009","0.007253","656762","825008","953881","8.184551","1.857842","-0.005624","38480","54443","61495","33891","41729","44641","31009","35694","37289","29569","31792","32484","26130","25241","24980","DualSpot on"
"MA200-0416","54848","115","1","1.10","1.6","2023-08-04T12:05:00","120","2023/08/04","12:05:00","0","0","0.0","12","300","64","58","-396","-1603","-26512","1","150","149.96","119.97","29.99","27.44","42.7","13.63","0","0.00","DUALSPOT-UV-BLUE-GREEN-RED-IR","569871","642230","909205","32.230004","9.987347","0.012800","609660","832082","765704","20.975528","5.726034","0.011701","714827","849398","816792","16.771038","4.284209","0.008120","735595","881451","867281","13.100906","3.120416","-0.000146","654584","825122","954892","8.648186","1.955025","-0.030485","8432","12519","14354","7143","8832","9467","6451","7208","7468","6077","6068","6065","5398","4526","4272","DualSpot on"
"MA200-0416","54849","115","1","1.10","1.6","2023-08-04T12:10:00","120","2023/08/04","12:10:00","0","0","0.0","12","300","64","57","-479","-1640","-26460","1","150","150.43","119.69","30.74","27.43","42.3","13.48","0","0.00","DUALSPOT-UV-BLUE-GREEN-RED-IR","566746","641420","910320","32.899128","10.234634","0.011833","603447","826299","761556","21.450876","5.874896","0.010821","712560","849035","817346","17.155972","4.395550","0.008465","728814","875282","861915","13.407455","3.201240","0.002529","653887","825557","955857","8.851440","2.001720","-0.017809","3283","4725","5376","2944","3590","3834","2670","3007","3123","2569","2638","2659","2372","2122","2049","DualSpot on"
"MA200-0416","54850","115","1","1.10","1.6","2023-08-04T12:15:01","120","2023/08/04","12:15:01","0","0","0.0","12","300","64","57","-435","-1627","-26436","1","150","149.33","119.77","29.56","27.44","41.9","13.35","0","0.00","DUALSPOT-UV-BLUE-GREEN-RED-IR","560313","638880","910468","34.057476","10.649494","0.011638","599353","824724","761735","22.153470","6.088549","0.010950","704890","843141","812917","17.698306","4.548437","0.009084","725902","874436","861991","13.814831","3.306895","0.004545","652323","825187","955985","9.104046","2.057663","-0.016781","5680","8244","9410","4348","5358","5741","3759","4294","4479","3412","3586","3641","2946","2644","2555","DualSpot on"
"MA200-0416","54851","115","1","1.10","1.6","2023-08-04T12:20:01","120","2023/08/04","12:20:01","0","0","0.0","13","300","64","57","-468","-1703","-26416","1","150","149.70","119.93","29.77","27.43","41.3","13.13","0","0.00","DUALSPOT-UV-BLUE-GREEN-RED-IR","558338","638144","910741","34.428348","10.784962","0.011827","597707","824018","761763","22.431858","6.178737","0.013215","707149","847272","817477","17.928934","4.616874","0.011631","724293","873701","861720","14.000622","3.358733","0.010030","647378","819705","949903","9.230934","2.089251","0.000420","1816","2673","3063","1720","2246","2445","1596","1908","2017","1554","1747","1808","1477","1482","1483","DualSpot on"
"MA200-0416","54852","115","1","1.10","1.6","2023-08-04T12:25:01","120","2023/08/04","12:25:01","0","0","0.0","13","300","64","56","-492","-1684","-26547","1","150","149.83","119.97","29.86","27.44","41.7","13.27","0","0.00","DUALSPOT-UV-BLUE-GREEN-RED-IR","555922","637390","911117","34.920344","10.956028","0.010496","595863","823554","762187","22.800904","6.290829","0.010236","705205","846765","817699","18.235824","4.704851","0.009317","723256","873981","862563","14.246931","3.424185","0.005746","646449","819596","950147","9.402088","2.130120","-0.005884","2408","3365","3802","2280","2783","2974","2123","2446","2558","2059","2199","2243","1992","1912","1888","DualSpot on"
"MA200-0416","54853","115","1","1.10","1.6","2023-08-04T12:30:01","120","2023/08/04","12:30:01","0","0","0.0","13","300","64","55","-465","-1653","-26396","1","150","149.53","119.54","29.98","27.44","41.4","13.18","0","0.00","DUALSPOT-UV-BLUE-GREEN-RED-IR","549642","631651","904134","35.284924","11.091415","0.011680","594021","822677","762133","23.101994","6.391227","0.013548","703350","846030","817673","18.498252","4.787672","0.013972","721662","873386","862560","14.465076","3.488576","0.013070","649559","824539","956290","9.562496","2.171258","0.002963","1791","2652","3047","1867","2482","2717","1822","2293","2457","1830","2154","2257","1874","1916","1929","DualSpot on"
"MA200-0416","54854","115","1","1.10","1.6","2023-08-04T12:35:01","120","2023/08/04","12:35:01","0","0","0.0","13","300","64","55","-420","-1600","-26532","1","150","149.86","119.86","30.00","27.40","41.1","13.02","0","0.00","DUALSPOT-UV-BLUE-GREEN-RED-IR","551581","635532","911004","35.690648","11.232956","0.010229","591966","821681","762017","23.434588","6.496883","0.011587","701324","845322","817663","18.784478","4.874242","0.011700","719645","872451","862175","14.702713","3.556079","0.010286","648429","824100","956185","9.726341","2.211263","-0.003340","1988","2771","3131","2057","2611","2823","1982","2396","2541","1989","2257","2343","1909","1863","1849","DualSpot on"
"MA200-0416","54855","115","1","1.10","1.6","2023-08-04T12:40:01","120","2023/08/04","12:40:01","0","0","0.0","13","300","64","55","-411","-1646","-26450","1","150","149.61","120.17","29.43","27.35","41.3","13.05","0","0.00","DUALSPOT-UV-BLUE-GREEN-RED-IR","548638","633849","909968","36.108428","11.383362","0.011271","589448","820000","761287","23.767164","6.605262","0.013212","698893","844010","817136","19.066384","4.960883","0.013439","717221","870895","861257","14.931519","3.622949","0.013617","647153","823439","955785","9.880932","2.250703","0.005182","2041","3001","3443","2051","2729","2990","1947","2443","2618","1910","2279","2397","1797","1871","1894","DualSpot on"
"MA200-0416","54856","115","1","1.10","1.6","2023-08-04T12:45:00","120","2023/08/04","12:45:00","0","0","0.0","13","300","64","54","-408","-1611","-26424","1","150","149.73","119.79","29.93","27.34","42.1","13.33","0","0.00","DUALSPOT-UV-BLUE-GREEN-RED-IR","544027","630215","906157","36.534216","11.538883","0.011029","589494","821950","763866","24.091792","6.708724","0.011467","695457","841493","815352","19.341568","5.044025","0.011400","718595","873949","864816","15.153908","3.687590","0.011708","644647","821150","953502","10.031460","2.291444","0.009694","2087","3051","3496","2008","2562","2775","1907","2305","2446","1862","2166","2264","1755","1901","1944","DualSpot on"
"MA200-0416","54857","115","1","1.10","1.6","2023-08-04T12:50:00","120","2023/08/04","12:50:00","0","0","0.0","13","300","64","54","-411","-1666","-26305","1","150","150.14","119.96","30.18","27.38","42.3","13.45","90016","26.56","DUALSPOT-UV-BLUE-GREEN-RED-IR","543599","632026","910803","37.121088","11.760651","0.011411","585479","818652","761892","24.516450","6.849004","0.012353","694486","842460","817235","19.704222","5.157006","0.012385","713677","869836","861482","15.451933","3.773999","0.010865","640805","817516","949809","10.239944","2.347050","0.007071","2873","4315","4984","2624","3445","3764","2509","3107","3320","2492","2872","2995","2427","2573","2617","DualSpot on"
"MA200-0416","54858","115","1","1.10","1.6","2023-08-04T12:55:00","120","2023/08/04","12:55:00","0","0","0.0","13","300","64","53","-504","-1635","-26452","1","150","149.83","119.77","30.06","27.42","42.8","13.67","90000","26.56","DUALSPOT-UV-BLUE-GREEN-RED-IR","536285","626030","904242","37.760704","11.997646","0.010887","582621","817663","762310","25.061158","7.026554","0.011704","688046","837384","813462","20.185214","5.303264","0.011044","712469","870888","863501","15.857079","3.889328","0.009518","639687","817830","950900","10.529961","2.422158","0.003770","3136","4630","5326","3371","4378","4770","3334","4039","4290","3393","3849","3997","3382","3490","3522","DualSpot on"
"MA200-0416","54859","115","1","1.10","1.6","2023-08-04T13:00:01","120","2023/08/04","13:00:01","0","0","0.0","12","300","64","53","-448","-1676","-26316","1","150","149.73","120.01","29.72","27.44","42.4","13.53","0","0.00","DUALSPOT-UV-BLUE-GREEN-RED-IR","533639","625246","905151","38.341544","12.216915","0.011341","580467","817203","763064","25.526700","7.180453","0.012448","685531","836719","813896","20.594330","5.431098","0.012730","709955","869982","863516","16.202993","3.989917","0.011580","638184","817426","951079","10.783047","2.489750","0.008571","2842","4333","5029","2875","3838","4215","2830","3570","3835","2891","3395","3559","2946","3176","3246","DualSpot on"
"MA200-0416","54860","115","1","1.10","1.6","2023-08-04T13:05:00","120","2023/08/04","13:05:00","0","0","0.0","13","300","64","52","-435","-1684","-26391","1","150","150.01","120.19","29.81","27.46","42.5","13.59","0","0.00","DUALSPOT-UV-BLUE-GREEN-RED-IR","527641","622708","905507","39.513336","12.660824","0.011057","574476","814503","763293","26.593730","7.541430","0.012667","679239","834484","814231","21.559752","5.739993","0.013137","704453","868247","863938","17.032598","4.239112","0.012877","634512","816286","951296","11.386776","2.654989","0.010439","5726","8745","10169","6581","8976","9924","6668","8602","9303","6924","8386","8870","7016","7742","7963","DualSpot on"
"MA200-0416","54861","115","1","1.10","1.6","2023-08-04T13:10:00","120","2023/08/04","13:10:00","0","0","0.0","13","300","64","51","-504","-1680","-26424","1","150","149.31","119.84","29.47","27.47","42.1","13.45","0","0.00","DUALSPOT-UV-BLUE-GREEN-RED-IR","523051","620080","904234","40.247232","12.946964","0.011511","570103","811747","762399","27.242428","7.765997","0.013332","674586","832048","813377","22.141028","5.929429","0.013892","699964","865709","862747","17.532688","4.394561","0.014861","631506","814552","950292","11.750668","2.758738","0.014672","3597","5703","6701","4012","5649","6301","4027","5336","5816","4186","5292","5662","4241","4918","5125","DualSpot on"
"MA200-0416","54862","115","1","1.10","1.6","2023-08-04T13:15:00","120","2023/08/04","13:15:00","0","0","0.0","13","300","64","52","-400","-1572","-26272","1","150","150.21","119.84","30.38","27.42","41.7","13.25","0","0.00","DUALSPOT-UV-BLUE-GREEN-RED-IR","517247","617844","905546","41.497508","13.444344","0.011017","565750","810316","763498","28.149188","8.082253","0.012265","670166","830784","814170","22.894256","6.175668","0.012405","696818","865453","864092","18.138986","4.578531","0.011499","629730","814697","951492","12.161621","2.869538","0.006321","6128","9617","11289","5609","7717","8567","5218","6729","7288","5075","6076","6413","4790","5095","5189","DualSpot on"
"MA200-0416","54863","115","1","1.10","1.6","2023-08-04T13:20:00","120","2023/08/04","13:20:00","0","0","0.0","13","300","64","51","-435","-1652","-26288","1","150","149.66","119.75","29.91","27.41","42.0","13.35","0","0.00","DUALSPOT-UV-BLUE-GREEN-RED-IR","511659","614018","902576","42.263880","13.742443","0.010704","560721","806265","761229","28.750610","8.289219","0.012063","669085","832344","817060","23.411550","6.344378","0.012625","691543","861418","861171","18.565342","4.709995","0.012883","626427","812138","949267","12.454350","2.949723","0.009037","3758","5854","6863","3723","5130","5700","3586","4683","5091","3571","4410","4694","3414","3745","3847","DualSpot on"
"MA200-0416","54864","115","1","1.10","1.6","2023-08-04T13:25:01","120","2023/08/04","13:25:01","0","0","0.0","13","300","64","51","-448","-1616","-26472","1","150","150.55","119.94","30.61","27.45","42.4","13.53","0","0.00","DUALSPOT-UV-BLUE-GREEN-RED-IR","509100","613984","905423","43.082532","14.065315","0.010383","558681","806689","763291","29.381442","8.505834","0.011131","663088","827902","814053","23.946078","6.512833","0.010180","690610","862956","863824","19.008562","4.840043","0.008792","625730","813128","951193","12.766956","3.031697","0.002713","4009","6194","7254","3899","5245","5793","3700","4568","4892","3707","4261","4451","3640","3740","3771","DualSpot on"
"MA200-0416","54865","115","1","1.10","1.6","2023-08-04T13:30:00","120","2023/08/04","13:30:00","0","0","0.0","14","300","64","49","-479","-1703","-26363","1","150","149.09","119.63","29.46","27.51","42.7","13.71","89948","26.63","DUALSPOT-UV-BLUE-GREEN-RED-IR","506037","612320","904924","43.636888","14.284492","0.010856","555711","804820","762772","29.850044","8.667219","0.012047","660014","826339","813613","24.358882","6.646693","0.012457","687087","860631","862392","19.357154","4.944845","0.011817","623369","811530","949952","13.018063","3.099436","0.008550","2721","4369","5171","2903","4061","4534","2864","3772","4112","2923","3569","3790","2932","3212","3299","DualSpot on"
"MA200-0416","54866","115","1","1.10","1.6","2023-08-04T13:35:01","120","2023/08/04","13:35:01","0","0","0.0","14","300","64","49","-396","-1611","-26547","1","150","149.54","119.79","29.76","27.53","42.3","13.56","89944","26.69","DUALSPOT-UV-BLUE-GREEN-RED-IR","504593","612867","907959","44.250152","14.525528","0.010491","554373","805537","764810","30.360622","8.848036","0.012357","658776","827284","815764","24.805258","6.795275","0.012853","687987","863993","866768","19.730446","5.060544","0.012660","623753","813650","953138","13.289391","3.174361","0.009615","3007","4757","5612","3159","4504","5057","3093","4145","4541","3126","3900","4167","3164","3517","3627","DualSpot on"
"MA200-0416","54867","115","1","1.10","1.6","2023-08-04T13:40:01","120","2023/08/04","13:40:01","0","0","0.0","14","300","64","48","-452","-1735","-26368","1","150","150.62","119.77","30.85","27.46","41.4","13.17","89948","26.69","DUALSPOT-UV-BLUE-GREEN-RED-IR","501091","610969","907315","44.881236","14.769653","0.009532","551239","803735","764515","30.884204","9.033216","0.011176","655513","825645","815385","25.259198","6.947405","0.011613","685091","862583","866421","20.111764","5.182998","0.012398","621923","812820","952934","13.559715","3.249463","0.006897","3094","4647","5408","3240","4449","4948","3146","4093","4452","3194","3981","4255","3152","3400","3478","DualSpot on"
"MA200-0416","54868","115","1","1.10","1.6","2023-08-04T13:45:00","120","2023/08/04","13:45:00","0","0","0.0","13","300","64","47","-419","-1565","-26496","1","150","149.45","119.49","29.96","27.39","41.0","12.96","0","0.00","DUALSPOT-UV-BLUE-GREEN-RED-IR","495630","606733","903340","45.534548","15.023552","0.009903","546196","799225","761743","31.436844","9.226865","0.011458","650410","821882","813042","25.751122","7.113463","0.012574","678626","856905","861868","20.530784","5.315470","0.012690","618070","809578","949942","13.863434","3.335432","0.010481","3211","4978","5848","3428","4792","5359","3417","4602","5054","3518","4436","4757","3550","4009","4154","DualSpot on"
"MA200-0416","54869","115","1","1.10","1.6","2023-08-04T13:50:00","120","2023/08/04","13:50:00","0","0","0.0","13","300","64","47","-460","-1640","-26528","1","150","150.70","120.22","30.48","27.30","40.8","12.82","0","0.00","DUALSPOT-UV-BLUE-GREEN-RED-IR","496362","609963","910475","46.173392","15.276886","0.009906","543173","797633","761725","31.988250","9.424389","0.011542","647331","820698","813212","26.244090","7.281369","0.012276","676001","856042","862225","20.953254","5.453904","0.013522","616483","809298","950469","14.176254","3.427429","0.012289","3121","4881","5752","3400","4804","5390","3404","4573","5022","3525","4556","4919","3634","4216","4401","DualSpot on"
"MA200-0416","54870","115","1","1.10","1.6","2023-08-04T13:55:01","120","2023/08/04","13:55:01","0","0","0.0","13","300","64","46","-448","-1711","-26375","1","150","149.51","119.13","30.37","27.22","40.8","12.73","0","0.00","DUALSPOT-UV-BLUE-GREEN-RED-IR","487782","604625","907964","47.632004","15.878746","0.010104","539008","797635","765086","33.190110","9.862489","0.011432","642878","820927","816506","27.330648","7.654983","0.011939","672846","857516","866369","21.901218","5.761718","0.012363","615173","811615","955159","14.878841","3.630569","0.010124","7191","11638","13862","7478","10692","12051","7572","10212","11239","7983","10167","10947","8238","9343","9699","DualSpot on"
"MA200-0416","54871","115","1","1.10","1.6","2023-08-04T14:00:00","120","2023/08/04","14:00:00","0","0","0.0","13","300","64","46","-504","-1664","-26596","1","150","149.90","119.69","30.21","27.13","40.8","12.65","0","0.00","DUALSPOT-UV-BLUE-GREEN-RED-IR","482727","601054","905320","48.395844","16.186691","0.009774","534387","793934","763202","33.819424","10.086537","0.010916","638398","818145","815273","27.890530","7.845217","0.011659","667964","854005","864161","22.381718","5.916319","0.012153","612187","809693","953816","15.227211","3.727525","0.007867","3748","5987","7113","3897","5498","6178","3883","5228","5754","4027","5134","5532","4065","4483","4619","DualSpot on"
"MA200-0416","54872","115","1","1.10","1.6","2023-08-04T14:05:00","120","2023/08/04","14:05:00","0","0","0.0","13","300","64","45","-427","-1692","-26447","1","150","149.56","119.94","29.61","27.04","40.9","12.61","89948","26.31","DUALSPOT-UV-BLUE-GREEN-RED-IR","480641","600763","907132","49.023092","16.430111","0.009432","532496","793843","764506","34.345920","10.267413","0.010432","633798","814782","813144","28.355678","7.996428","0.010793","662258","849085","860222","22.782176","6.039717","0.011077","608782","806901","951241","15.516418","3.804605","0.006140","3071","4828","5713","3254","4527","5071","3219","4239","4639","3349","4180","4480","3368","3636","3723","DualSpot on"
"MA200-0416","54873","115","1","1.10","1.6","2023-08-04T14:10:00","120","2023/08/04","14:10:00","0","0","0.0","13","300","64","44","-500","-1719","-26538","1","150","149.83","119.49","30.34","26.95","40.9","12.55","0","0.00","DUALSPOT-UV-BLUE-GREEN-RED-IR","477614","599226","907178","49.668016","16.694988","0.009703","530060","792690","764710","34.832904","10.440481","0.010431","634210","817689","817222","28.789628","8.142234","0.010793","664352","853941","866143","23.153584","6.157936","0.011090","607131","806282","951196","15.786572","3.879636","0.007010","3170","5127","6119","3021","4228","4745","3015","3989","4374","3118","3909","4195","3158","3454","3551","DualSpot on"
"MA200-0416","54874","115","1","1.10","1.6","2023-08-04T14:15:01","120","2023/08/04","14:15:01","0","0","0.0","13","300","64","44","-408","-1668","-26256","1","150","150.23","119.69","30.54","26.87","40.9","12.46","0","0.00","DUALSPOT-UV-BLUE-GREEN-RED-IR","473824","596066","904017","50.112244","16.875030","0.009382","526578","789421","762584","35.205984","10.575528","0.010636","631139","815481","815983","29.121162","8.257375","0.011510","660356","850431","863362","23.438478","6.250937","0.011773","608696","809536","955634","15.990910","3.937328","0.007748","2179","3462","4114","2310","3278","3693","2299","3130","3459","2388","3055","3298","2384","2639","2722","DualSpot on"
"MA200-0416","54875","115","1","1.10","1.6","2023-08-04T14:20:00","120","2023/08/04","14:20:00","0","0","0.0","13","300","64","43","-556","-1703","-26424","1","150","150.09","120.58","29.51","26.79","40.9","12.41","89952","26.06","DUALSPOT-UV-BLUE-GREEN-RED-IR","473743","598152","909638","50.746840","17.139068","0.010125","523090","786806","761509","35.737264","10.768719","0.011474","627596","813415","815246","29.593438","8.420538","0.012338","655986","847106","861156","23.844310","6.383414","0.013127","606132","807828","954370","16.281872","4.019147","0.010135","3091","5254","6357","3266","4852","5536","3251","4589","5121","3376","4503","4915","3370","3872","4037","DualSpot on"
"MA200-0416","54876","115","1","1.10","1.6","2023-08-04T14:25:00","120","2023/08/04","14:25:00","0","0","0.0","12","300","64","42","-552","-1708","-26275","1","150","149.73","120.48","29.25","26.69","41.0","12.35","0","0.00","DUALSPOT-UV-BLUE-GREEN-RED-IR","468917","594152","905844","51.341224","17.390346","0.010295","522221","787930","764005","36.214720","10.947151","0.012040","623645","810523","813561","30.012000","8.568362","0.012960","656878","850315","865465","24.197870","6.502307","0.014258","603676","805973","952929","16.530956","4.093719","0.014315","2897","5046","6146","2937","4522","5209","2884","4196","4720","2944","4078","4494","2888","3561","3783","DualSpot on"
"MA200-0416","54877","115","1","1.10","1.6","2023-08-04T14:30:01","120","2023/08/04","14:30:01","0","0","0.0","12","300","64","42","-444","-1616","-26472","1","150","150.41","119.98","30.43","26.61","41.1","12.30","0","0.00","DUALSPOT-UV-BLUE-GREEN-RED-IR","466292","594466","910391","52.414352","17.839618","0.009474","516799","783643","762044","37.014448","11.239756","0.010499","621853","811802","816751","30.695218","8.803163","0.010828","651224","846216","862851","24.765172","6.685573","0.011012","600308","803737","951327","16.930600","4.206489","0.007696","5253","8672","10436","4941","7128","8082","4727","6406","7081","4743","6042","6522","4653","5177","5350","DualSpot on"
"MA200-0416","54878","115","1","1.10","1.6","2023-08-04T14:35:00","120","2023/08/04","14:35:00","0","0","0.0","12","300","64","41","-456","-1652","-26460","1","150","149.70","120.70","29.00","26.53","41.1","12.25","89944","25.81","DUALSPOT-UV-BLUE-GREEN-RED-IR","459342","589840","908931","53.752396","18.462704","0.010946","513956","784097","765447","38.004620","11.626107","0.012459","615976","808621","816106","31.564714","9.116047","0.013047","645263","842737","861473","25.523792","6.938161","0.013574","596559","802013","950869","17.502792","4.371357","0.011997","6511","12621","15818","6081","9877","11550","5980","8958","10168","6305","8739","9648","6622","7942","8382","DualSpot on"
"MA200-0416","54879","115","1","1.10","1.6","2023-08-04T14:40:00","120","2023/08/04","14:40:00","0","0","0.0","12","300","64","40","-332","-1652","-26691","1","150","149.62","119.54","30.07","26.45","41.1","12.16","89952","25.75","DUALSPOT-UV-BLUE-GREEN-RED-IR","453751","585382","905656","54.623832","18.865086","0.010264","509444","780377","763849","38.684032","11.892034","0.011509","610935","805052","814233","32.162124","9.332110","0.011857","644230","844295","864579","26.047028","7.113330","0.012005","596694","804492","954848","17.902912","4.483379","0.007309","4281","7858","9745","4213","6554","7594","4149","5964","6706","4391","5843","6389","4675","5203","5379","DualSpot on"
"MA200-0416","54880","115","1","1.10","1.6","2023-08-04T14:45:00","120","2023/08/04","14:45:00","0","0","0.0","13","300","64","39","-448","-1608","-26380","1","150","149.90","120.42","29.48","26.37","41.0","12.05","89956","25.69","DUALSPOT-UV-BLUE-GREEN-RED-IR","452245","585085","907491","55.152396","19.113658","0.010607","505080","775651","760549","39.113964","12.063963","0.012224","610199","806025","816391","32.544556","9.474842","0.013069","638529","838637","859776","26.380048","7.229244","0.013932","593178","801188","951637","18.150600","4.555864","0.011402","2578","4952","6212","2646","4323","5071","2636","4019","4588","2774","3945","4386","2873","3435","3623","DualSpot on"
"MA200-0416","54881","115","1","1.10","1.6","2023-08-04T14:50:00","120","2023/08/04","14:50:00","0","0","0.0","13","300","64","39","-412","-1611","-26600","1","150","149.34","119.96","29.37","26.31","41.2","12.07","89948","25.56","DUALSPOT-UV-BLUE-GREEN-RED-IR","449357","583348","907470","55.792992","19.409844","0.010336","505455","778703","765050","39.624732","12.266404","0.011927","607948","805362","817066","32.995246","9.640319","0.012540","636909","838650","860940","26.770306","7.362878","0.013250","592237","801507","952843","18.442174","4.642484","0.012029","3136","5922","7409","3156","5109","5984","3119","4677","5320","3263","4564","5057","3395","4119","4363","DualSpot on"
"MA200-0416","54882","115","1","1.10","1.6","2023-08-04T14:55:00","120","2023/08/04","14:55:00","0","0","0.0","13","300","64","39","-468","-1668","-26424","1","150","150.08","120.52","29.56","26.26","41.6","12.17","89956","25.50","DUALSPOT-UV-BLUE-GREEN-RED-IR","445912","580569","905418","56.342508","19.661872","0.010152","502421","776088","763765","40.064176","12.437631","0.011495","604338","802558","815379","33.385010","9.782111","0.012161","637531","841367","864720","27.112218","7.477538","0.012411","589255","798997","950562","18.707298","4.717832","0.009359","2678","5008","6256","2703","4294","5010","2685","3982","4520","2846","3891","4289","3073","3560","3725","DualSpot on"
"MA200-0416","54883","115","1","1.10","1.6","2023-08-04T15:00:00","120","2023/08/04","15:00:00","0","0","0.0","13","300","64","39","-437","-1637","-26550","1","150","150.29","120.66","29.63","26.24","41.7","12.20","89956","25.56","DUALSPOT-UV-BLUE-GREEN-RED-IR","442815","578180","903808","56.865004","19.899280","0.009966","499469","773511","762534","40.486132","12.603421","0.011499","601980","801355","815274","33.760804","9.918963","0.012029","635254","840202","864509","27.443764","7.590196","0.012628","587878","798593","950787","18.965828","4.792829","0.010293","2543","4705","5870","2592","4147","4850","2585","3834","4353","2756","3814","4218","2993","3535","3719","DualSpot on"
"MA200-0416","54884","115","1","1.10","1.6","2023-08-04T15:05:00","120","2023/08/04","15:05:00","0","0","0.0","13","300","64","38","-494","-1652","-26358","1","150","150.62","120.52","30.10","26.21","41.7","12.16","89952","25.44","DUALSPOT-UV-BLUE-GREEN-RED-IR","442462","579673","908592","57.463424","20.166638","0.009549","496109","770640","761158","40.986268","12.796069","0.010759","597912","798227","813405","34.215876","10.082577","0.011225","629942","835401","860714","27.845170","7.723024","0.011145","588051","800685","954177","19.288708","4.886953","0.009495","2916","5217","6462","3076","4745","5503","3134","4513","5089","3341","4427","4844","3742","4368","4581","DualSpot on"
"MA200-0416","54885","115","1","1.10","1.6","2023-08-04T15:10:00","120","2023/08/04","15:10:00","0","0","0.0","13","300","64","37","-444","-1608","-26416","1","150","149.50","120.97","28.53","26.15","41.5","12.04","89952","25.44","DUALSPOT-UV-BLUE-GREEN-RED-IR","440314","578557","909136","58.011504","20.417660","0.010213","493678","768979","760937","41.446664","12.981588","0.012253","595929","797620","814087","34.630520","10.239682","0.013363","628620","835639","862078","28.209808","7.852067","0.014520","587113","800945","955307","19.567750","4.972582","0.014703","2661","5168","6530","2821","4820","5732","2845","4572","5296","3024","4538","5122","3222","4193","4523","DualSpot on"
"MA200-0416","54886","115","1","1.10","1.6","2023-08-04T15:15:01","120","2023/08/04","15:15:01","0","0","0.0","13","300","68","37","-444","-1656","-26528","2","150","150.09","120.95","29.15","26.10","41.5","12.01","89952","25.44","DUALSPOT-UV-BLUE-GREEN-RED-IR","803143","716074","905298","0.000000","0.000000","0.000000","767183","891136","761775","0.000000","0.000000","0.000000","860580","896637","813469","0.000000","0.000000","0.000000","849851","917928","862559","0.000000","0.000000","0.000000","724960","849478","955922","0.000000","0.000000","0.000000","","","","","","","","","","","","","","","","Tape advance-DualSpot on"
"MA200-0416","54887","115","1","1.10","1.6","2023-08-04T15:20:01","120","2023/08/04","15:20:01","0","0","0.0","13","300","68","36","-444","-1664","-26324","2","150","149.96","121.27","28.69","26.01","41.6","11.95","89948","25.31","DUALSPOT-UV-BLUE-GREEN-RED-IR","792496","716107","909329","0.000000","0.000000","0.000000","760377","891326","764295","0.000000","0.000000","0.000000","855186","897692","816475","0.000000","0.000000","0.000000","846747","919912","866149","0.000000","0.000000","0.000000","719879","846844","954164","0.000000","0.000000","0.000000","","","","","","","","","","","","","","","","Tape advance-DualSpot on"
"MA200-0416","54888","115","1","1.10","1.6","2023-08-04T15:25:01","120","2023/08/04","15:25:01","0","0","0.0","13","300","64","36","-384","-1656","-26524","2","150","150.09","121.31","28.78","25.93","41.8","11.95","89948","25.25","DUALSPOT-UV-BLUE-GREEN-RED-IR","777072","710925","906598","1.685158","0.427740","0.000000","749617","886628","762589","1.213187","0.306409","0.000000","845403","894080","815198","1.011193","0.254691","0.000000","837957","915840","864038","0.807633","0.201642","0.000000","715014","844586","952778","0.543010","0.125966","0.000000","8159","8728","8159","7413","7891","7413","6920","7346","6920","6679","7028","6679","6253","6113","6253","DualSpot on"
"MA200-0416","54889","115","1","1.10","1.6","2023-08-04T15:30:01","120","2023/08/04","15:30:01","0","0","0.0","14","300","64","36","-404","-1643","-26484","2","150","150.03","121.23","28.80","25.84","41.9","11.93","89952","25.19","DUALSPOT-UV-BLUE-GREEN-RED-IR","739412","700100","904313","6.304800","1.681200","0.025753","718875","875281","761020","5.110590","1.363145","0.031620","815332","884957","814618","4.477835","1.184547","0.033345","811068","906447","862044","3.769881","0.984853","0.035180","698633","839375","952152","2.741205","0.665123","0.000000","22382","25564","26721","23833","27201","28426","23741","26805","27908","24515","27284","28263","25330","26152","25330","DualSpot on"
"MA200-0416","54890","115","1","1.10","1.6","2023-08-04T15:35:00","120","2023/08/04","15:35:00","0","0","0.0","13","300","64","35","-468","-1648","-26475","2","150","149.63","120.78","28.85","25.77","42.1","11.93","0","0.00","DUALSPOT-UV-BLUE-GREEN-RED-IR","714264","695101","908280","10.233694","2.843341","0.024254","697951","869981","763738","8.453006","2.336382","0.027495","794291","880597","817550","7.482413","2.044982","0.028729","794069","904095","866067","6.375941","1.714026","0.029792","688026","838684","956202","4.711696","1.177803","0.022583","19105","23661","25413","20514","25009","26726","20652","24762","26307","21647","25358","26723","22790","24825","25504","DualSpot on"
"MA200-0416","54891","115","1","1.10","1.6","2023-08-04T15:40:00","120","2023/08/04","15:40:00","0","0","0.0","13","300","64","35","-444","-1632","-26436","2","150","150.23","120.90","29.32","25.72","42.3","11.95","0","0.00","DUALSPOT-UV-BLUE-GREEN-RED-IR","692010","687230","906059","13.193897","3.753267","0.020622","680343","862223","762276","10.853965","3.056037","0.022774","776882","874106","816509","9.602884","2.666175","0.023275","778203","897360","863985","8.185138","2.229708","0.023718","678140","834735","954992","6.058300","1.530289","0.015836","14380","18226","19756","14721","18194","19555","14560","17588","18752","15012","17644","18629","15558","16793","17210","DualSpot on"
"MA200-0416","54892","115","1","1.10","1.6","2023-08-04T15:45:00","120","2023/08/04","15:45:00","0","0","0.0","14","300","64","34","-484","-1569","-26419","2","150","150.01","121.09","28.92","25.66","42.4","11.92","0","0.00","DUALSPOT-UV-BLUE-GREEN-RED-IR","681516","686551","911201","15.306198","4.418180","0.020181","672988","862214","765883","12.423100","3.528147","0.021425","765768","869667","815501","10.934691","3.054333","0.021407","768560","893167","862582","9.280168","2.536249","0.020628","672457","832481","954243","6.828132","1.723848","0.009643","10246","13503","14825","9606","12101","13091","9131","11142","11922","9073","10634","11221","8881","9349","9507","DualSpot on"
"MA200-0416","54893","115","1","1.10","1.6","2023-08-04T15:50:01","120","2023/08/04","15:50:01","0","0","0.0","14","300","64","34","-504","-1660","-26591","2","150","149.80","120.87","28.92","25.63","42.7","12.00","0","0.00","DUALSPOT-UV-BLUE-GREEN-RED-IR","669891","682105","909912","16.875858","4.926643","0.019738","664157","858020","765025","13.621881","3.898512","0.021264","757486","866576","815119","11.965929","3.361917","0.021330","761023","889883","861542","10.136714","2.782714","0.021522","667687","830382","953333","7.441288","1.879906","0.010537","7627","10325","11437","7352","9492","10350","7083","8828","9510","7109","8548","9093","7086","7537","7689","DualSpot on"
"MA200-0416","54894","115","1","1.10","1.6","2023-08-04T15:55:00","120","2023/08/04","15:55:00","0","0","0.0","14","300","64","33","-400","-1560","-26444","2","150","150.30","120.56","29.74","25.63","43.0","12.11","0","0.00","DUALSPOT-UV-BLUE-GREEN-RED-IR","663778","680498","910932","17.919920","5.274690","0.018549","659159","856080","765137","14.406890","4.148000","0.020006","752591","864902","815184","12.635656","3.568966","0.020644","762117","894582","867441","10.689215","2.945590","0.019844","664890","829303","953041","7.838447","1.983766","0.009498","5086","6873","7619","4827","6218","6781","4612","5779","6239","4597","5494","5835","4601","4878","4972","DualSpot on"
"MA200-0416","54895","115","1","1.10","1.6","2023-08-04T16:00:00","120","2023/08/04","16:00:00","0","0","0.0","14","300","64","33","-508","-1627","-26460","2","150","150.05","120.87","29.18","25.66","43.1","12.19","0","0.00","DUALSPOT-UV-BLUE-GREEN-RED-IR","655222","677237","910106","19.128040","5.669561","0.017499","653140","853707","765217","15.339271","4.435700","0.018341","746511","862821","815183","13.443236","3.809208","0.018214","751748","886767","861515","11.371319","3.139359","0.017263","661926","828680","953591","8.342590","2.114329","0.010658","5870","7949","8824","5718","7309","7957","5547","6835","7345","5661","6662","7044","5826","6251","6395","DualSpot on"
"MA200-0416","54896","115","1","1.10","1.6","2023-08-04T16:05:00","120","2023/08/04","16:05:00","0","0","0.0","13","300","64","33","-464","-1632","-26503","2","150","149.63","120.82","28.81","25.71","43.3","12.30","0","0.00","DUALSPOT-UV-BLUE-GREEN-RED-IR","649762","675676","910823","20.048332","5.978906","0.018388","649566","852593","765664","15.944939","4.625046","0.019112","743015","861753","815371","13.936838","3.954852","0.017869","749398","886445","862189","11.765319","3.249287","0.016179","660204","828222","953691","8.613632","2.180375","0.003320","4473","6307","7086","3716","4872","5344","3391","4197","4516","3271","3828","4040","3133","3202","3226","DualSpot on"
"MA200-0416","54897","115","1","1.10","1.6","2023-08-04T16:10:00","120","2023/08/04","16:10:00","0","0","0.0","13","300","64","33","-444","-1619","-26319","2","150","150.56","120.78","29.77","25.75","43.2","12.30","0","0.00","DUALSPOT-UV-BLUE-GREEN-RED-IR","638195","668883","905385","21.234814","6.388128","0.017114","641740","846359","761757","16.646803","4.846543","0.017018","739673","861088","816028","14.468613","4.112274","0.015146","747458","886739","863421","12.165820","3.358608","0.010610","659071","828424","954544","8.872963","2.243153","-0.002779","5769","8072","9063","4307","5514","6010","3655","4389","4681","3326","3683","3819","2999","2945","2927","DualSpot on"
"MA200-0416","54898","115","1","1.10","1.6","2023-08-04T16:15:01","120","2023/08/04","16:15:01","0","0","0.0","13","300","64","32","-384","-1504","-26263","2","150","150.28","120.77","29.51","25.77","42.8","12.18","89968","25.06","DUALSPOT-UV-BLUE-GREEN-RED-IR","631382","666857","906301","22.408764","6.790889","0.016375","637799","845480","762737","17.389568","5.079698","0.016489","735672","859979","816397","15.056988","4.286534","0.015184","744618","886283","864061","12.622349","3.484279","0.011784","657298","828087","954849","9.178654","2.316719","-0.002258","5709","8015","9018","4559","5856","6392","4044","4902","5243","3792","4272","4455","3535","3482","3464","DualSpot on"
"MA200-0416","54899","115","1","1.10","1.6","2023-08-04T16:20:00","120","2023/08/04","16:20:00","0","0","0.0","13","300","64","31","-472","-1668","-26403","2","150","149.58","121.36","28.22","25.76","42.4","12.02","0","0.00","DUALSPOT-UV-BLUE-GREEN-RED-IR","624754","664263","905929","23.432624","7.142833","0.017392","633385","843364","762391","18.043612","5.285477","0.018455","731753","858513","816260","15.576894","4.442120","0.018387","741788","885558","864329","13.033293","3.601491","0.018294","655551","827606","954952","9.456623","2.385831","0.008957","4955","7324","8363","3995","5405","5989","3556","4577","4984","3397","4166","4460","3199","3421","3495","DualSpot on"
"MA200-0416","54900","115","1","1.10","1.6","2023-08-04T16:25:01","120","2023/08/04","16:25:01","0","0","0.0","13","300","64","32","-412","-1616","-26344","2","150","149.63","120.54","29.09","25.71","42.0","11.83","0","0.00","DUALSPOT-UV-BLUE-GREEN-RED-IR","621316","662725","905403","23.937530","7.322876","0.017026","631079","842056","762001","18.359356","5.389344","0.018488","729927","857820","816240","15.825415","4.520858","0.019241","739789","884303","863597","13.225595","3.659129","0.018948","654466","827024","954551","9.581379","2.417264","0.005795","2460","3635","4152","1941","2646","2939","1711","2247","2461","1600","1987","2135","1445","1509","1530","DualSpot on"
"MA200-0416","54901","115","1","1.10","1.6","2023-08-04T16:30:00","120","2023/08/04","16:30:00","0","0","0.0","13","300","64","31","-348","-1560","-26268","2","150","149.58","120.02","29.56","25.67","41.7","11.71","0","0.00","DUALSPOT-UV-BLUE-GREEN-RED-IR","622516","665650","910652","24.317844","7.456953","0.015774","628265","839869","760713","18.641364","5.482840","0.017652","727484","856337","815444","16.061565","4.596097","0.018147","736902","882041","861904","13.416842","3.718239","0.019435","652948","825908","953631","9.711414","2.451337","0.008117","1861","2664","3019","1741","2344","2596","1633","2113","2305","1598","2006","2162","1513","1610","1643","DualSpot on"
"MA200-0416","54902","115","1","1.10","1.6","2023-08-04T16:35:01","120","2023/08/04","16:35:01","0","0","0.0","13","300","64","31","-380","-1611","-26312","2","150","149.66","120.56","29.10","25.61","41.6","11.61","0","0.00","DUALSPOT-UV-BLUE-GREEN-RED-IR","618816","663505","909084","24.742314","7.605825","0.015981","629334","843123","764479","18.962952","5.589681","0.018350","724843","854815","814728","16.336599","4.684532","0.019446","734114","880043","860572","13.641517","3.788501","0.021286","651455","824954","952911","9.867764","2.492404","0.010689","2068","3004","3420","1977","2721","3032","1894","2523","2775","1869","2422","2634","1811","1971","2025","DualSpot on"
"MA200-0416","54903","115","1","1.10","1.6","2023-08-04T16:40:00","120","2023/08/04","16:40:00","0","0","0.0","13","300","64","30","-456","-1635","-26436","2","150","149.93","120.93","29.00","25.53","41.6","11.51","89984","24.88","DUALSPOT-UV-BLUE-GREEN-RED-IR","615868","661851","907939","25.096760","7.734260","0.016929","626869","841340","763558","19.232730","5.681955","0.019601","722886","853789","814376","16.565382","4.760754","0.021329","737566","885305","866266","13.830482","3.848910","0.022834","650558","824550","952792","9.996983","2.530512","0.023539","1721","2601","2993","1653","2358","2654","1570","2182","2428","1567","2090","2291","1492","1835","1952","DualSpot on"
"MA200-0416","54904","115","1","1.10","1.6","2023-08-04T16:45:01","120","2023/08/04","16:45:01","0","0","0.0","14","300","64","30","-430","-1623","-26442","2","150","149.39","120.58","28.81","25.49","41.5","11.46","89980","24.81","DUALSPOT-UV-BLUE-GREEN-RED-IR","611352","658705","904994","25.504070","7.880438","0.016504","623574","838621","761925","19.543806","5.786883","0.018890","723692","856287","817451","16.831602","4.847825","0.020284","733830","882118","863729","14.048820","3.919083","0.023052","648182","822463","950783","10.148693","2.571227","0.013974","1984","2980","3426","1912","2700","3031","1832","2509","2783","1816","2444","2686","1757","1974","2048","DualSpot on"
"MA200-0416","54905","115","1","1.10","1.6","2023-08-04T16:50:01","120","2023/08/04","16:50:01","0","0","0.0","14","300","64","30","-472","-1672","-26463","2","150","149.59","121.03","28.56","25.39","41.2","11.26","89968","24.75","DUALSPOT-UV-BLUE-GREEN-RED-IR","612311","661885","910926","25.997520","8.054010","0.015977","624501","841914","765809","19.899872","5.905002","0.018379","720823","854644","816661","17.130236","4.944897","0.020230","730351","879430","861767","14.292370","3.994286","0.020966","650429","826363","955725","10.318005","2.615249","0.011615","2394","3569","4096","2181","3065","3438","2048","2821","3135","2018","2641","2882","1954","2152","2220","DualSpot on"
"MA200-0416","54906","115","1","1.10","1.6","2023-08-04T16:55:01","120","2023/08/04","16:55:01","0","0","0.0","14","300","64","29","-479","-1632","-26508","2","150","149.73","120.81","28.92","25.29","41.3","11.20","89976","24.69","DUALSPOT-UV-BLUE-GREEN-RED-IR","604659","657195","907332","26.858276","8.367569","0.016057","619313","837883","763508","20.433116","6.083774","0.017781","716162","851551","814840","17.557730","5.082596","0.018646","731017","882344","865520","14.634291","4.100477","0.019990","647932","824598","954222","10.545769","2.673240","0.007467","4184","6369","7357","3272","4583","5139","2937","3953","4367","2839","3684","4013","2633","2801","2858","DualSpot on"
"MA200-0416","54907","115","1","1.10","1.6","2023-08-04T17:00:00","120","2023/08/04","17:00:00","0","0","0.0","15","300","64","29","-419","-1684","-26473","2","150","149.90","120.74","29.15","25.21","41.5","11.21","89972","24.63","DUALSPOT-UV-BLUE-GREEN-RED-IR","598722","653591","904581","27.544998","8.618343","0.015508","614629","834263","761483","20.929454","6.251341","0.017304","712473","849517","814046","17.978014","5.221177","0.018914","726788","879275","863457","14.978655","4.210931","0.020935","645729","823229","953260","10.788868","2.741561","0.016702","3340","5052","5831","3047","4260","4777","2889","3946","4378","2861","3801","4168","2812","3273","3430","DualSpot on"
"MA200-0416","54908","115","1","1.10","1.6","2023-08-04T17:05:01","120","2023/08/04","17:05:01","0","0","0.0","15","300","64","29","-488","-1652","-26512","2","150","149.45","120.86","28.58","25.15","41.6","11.18","89976","24.50","DUALSPOT-UV-BLUE-GREEN-RED-IR","596456","655032","909677","28.476676","8.953197","0.015144","612838","835943","764979","21.671626","6.505834","0.018060","710654","851156","817412","18.633354","5.439479","0.019638","720653","875214","861069","15.538490","4.390895","0.021478","641912","820793","951607","11.200794","2.858686","0.019076","4527","6881","7960","4552","6600","7479","4501","6341","7099","4647","6317","6974","4761","5724","6054","DualSpot on"
"MA200-0416","54909","115","1","1.10","1.6","2023-08-04T17:10:00","120","2023/08/04","17:10:00","0","0","0.0","15","300","64","28","-461","-1588","-26380","2","150","150.09","121.15","28.95","25.07","41.6","11.13","89988","24.44","DUALSPOT-UV-BLUE-GREEN-RED-IR","586712","648711","904411","29.546784","9.345634","0.014855","604433","829214","761231","22.565822","6.822335","0.018092","703101","846494","815127","19.431038","5.712492","0.019548","717707","875642","863417","16.227547","4.619008","0.021580","640768","822381","954869","11.724533","3.008709","0.017999","5188","7962","9246","5471","8105","9247","5466","7830","8814","5706","7906","8781","6039","7240","7654","DualSpot on"
"MA200-0416","54910","115","1","1.10","1.6","2023-08-04T17:15:00","120","2023/08/04","17:15:00","0","0","0.0","14","300","64","28","-464","-1688","-26447","2","150","149.76","120.62","29.14","25.00","41.7","11.07","89988","24.38","DUALSPOT-UV-BLUE-GREEN-RED-IR","582761","647022","904215","30.205024","9.587284","0.014307","601574","828145","761620","23.092536","7.004368","0.016537","699556","844792","814754","19.892112","5.866743","0.017745","714429","873979","862864","16.618820","4.743654","0.018552","638899","821641","954754","12.005322","3.087562","0.014938","3205","4870","5644","3237","4630","5237","3173","4394","4904","3254","4291","4705","3251","3779","3962","DualSpot on"
"MA200-0416","54911","115","1","1.10","1.6","2023-08-04T17:20:00","120","2023/08/04","17:20:00","0","0","0.0","14","300","64","28","-515","-1634","-26492","2","150","150.09","120.34","29.76","24.91","41.7","11.00","89992","24.31","DUALSPOT-UV-BLUE-GREEN-RED-IR","583369","649479","909184","30.655812","9.758179","0.014315","602113","830724","764890","23.435634","7.123488","0.015671","696840","843142","813931","20.185448","5.964935","0.016558","711248","871480","861060","16.862356","4.822057","0.017623","637011","820231","953540","12.176369","3.134505","0.010581","2200","3373","3920","2113","2967","3340","2023","2739","3039","2030","2643","2888","1985","2203","2279","DualSpot on"
"MA200-0416","54912","115","1","1.10","1.6","2023-08-04T17:25:01","120","2023/08/04","17:25:01","0","0","0.0","14","300","64","28","-488","-1724","-26360","2","150","149.92","120.48","29.44","24.83","41.6","10.88","90004","24.19","DUALSPOT-UV-BLUE-GREEN-RED-IR","579232","646313","906057","31.018464","9.897625","0.014742","598839","827592","762709","23.695194","7.216650","0.016997","697603","845314","816655","20.405688","6.040878","0.018071","712960","874623","864671","17.041824","4.882884","0.020640","635045","818410","951750","12.296970","3.167229","0.010537","1767","2782","3257","1597","2346","2674","1517","2141","2404","1494","2072","2305","1398","1552","1606","DualSpot on"
"MA200-0416","54913","115","1","1.10","1.6","2023-08-04T17:30:00","120","2023/08/04","17:30:00","0","0","0.0","13","300","64","27","-504","-1660","-26388","2","150","149.83","120.58","29.25","24.73","41.5","10.78","0","0.00","DUALSPOT-UV-BLUE-GREEN-RED-IR","579085","647685","909358","31.407768","10.050331","0.015147","599308","829713","765443","23.975806","7.318341","0.017331","694729","843104","815208","20.642600","6.124449","0.019009","709630","871671","862328","17.237668","4.948455","0.020179","633233","816846","950305","12.429905","3.203878","0.012498","1896","3066","3617","1725","2577","2951","1631","2372","2684","1629","2249","2498","1540","1750","1823","DualSpot on"
"MA200-0416","54914","115","1","1.10","1.6","2023-08-04T17:35:00","120","2023/08/04","17:35:00","0","0","0.0","13","300","64","27","-440","-1632","-26428","2","150","149.90","120.62","29.28","24.63","41.6","10.74","0","0.00","DUALSPOT-UV-BLUE-GREEN-RED-IR","573170","643614","905816","32.042930","10.291958","0.014209","594358","825526","762954","24.470136","7.492590","0.016129","690416","840272","813696","21.077540","6.272979","0.017406","709652","873898","865588","17.607242","5.069667","0.018765","634265","819816","954446","12.702564","3.279875","0.013125","3092","4847","5678","3038","4412","5018","2993","4212","4728","3073","4153","4590","3157","3626","3789","DualSpot on"
"MA200-0416","54915","115","1","1.10","1.6","2023-08-04T17:40:01","120","2023/08/04","17:40:01","0","0","0.0","13","300","64","26","-561","-1680","-26369","2","150","149.51","120.42","29.09","24.55","41.8","10.70","0","0.00","DUALSPOT-UV-BLUE-GREEN-RED-IR","570100","643058","907809","32.796128","10.593273","0.015007","591858","825060","764175","25.057346","7.713330","0.017781","688475","840721","815665","21.595956","6.459398","0.019022","702717","867871","860939","18.055296","5.223429","0.020595","630204","816450","951495","13.034370","3.379337","0.018831","3673","6084","7234","3615","5625","6520","3574","5320","6066","3733","5303","5942","3849","4776","5101","DualSpot on"
"MA200-0416","54916","115","1","1.10","1.6","2023-08-04T17:45:00","120","2023/08/04","17:45:00","0","0","0.0","13","300","64","26","-456","-1668","-26500","2","150","150.39","120.97","29.43","24.45","41.8","10.62","0","0.00","DUALSPOT-UV-BLUE-GREEN-RED-IR","563010","638355","904178","33.641272","10.927727","0.014310","586049","820435","761743","25.713850","7.954073","0.016470","683072","837268","813959","22.174144","6.663681","0.017711","702124","870057","864617","18.555074","5.392975","0.019261","626554","813885","949530","13.408726","3.489159","0.016239","4103","6675","7912","4023","6064","6979","3968","5763","6534","4145","5780","6450","4323","5213","5526","DualSpot on"
"MA200-0416","54917","115","1","1.10","1.6","2023-08-04T17:50:01","120","2023/08/04","17:50:01","0","0","0.0","13","300","64","26","-508","-1637","-26459","2","150","149.45","120.46","28.99","24.36","41.9","10.58","90024","23.81","DUALSPOT-UV-BLUE-GREEN-RED-IR","556829","635559","904572","34.789352","11.409351","0.015096","580481","817604","762135","26.718706","8.349359","0.017966","676929","834601","814272","23.113880","7.019396","0.019531","695712","866849","864091","19.410380","5.703682","0.021595","622602","812660","950290","14.114788","3.716139","0.022187","5598","9759","11789","6184","10109","11893","6476","10188","11806","7123","10753","12264","8188","10938","11921","DualSpot on"
"MA200-0416","54918","115","1","1.10","1.6","2023-08-04T17:55:01","120","2023/08/04","17:55:01","0","0","0.0","13","300","64","26","-452","-1592","-26503","2","150","149.90","120.82","29.07","24.27","42.0","10.52","0","0.00","DUALSPOT-UV-BLUE-GREEN-RED-IR","552936","634901","907714","35.840868","11.860226","0.015036","576992","817025","764327","27.614110","8.708072","0.017842","673459","834534","816795","23.938958","7.337654","0.019430","688221","861530","861128","20.155146","5.977827","0.021315","621544","814568","954294","14.712204","3.907248","0.021048","5111","9109","11086","5493","9146","10829","5669","9088","10599","6184","9460","10842","6907","9182","10005","DualSpot on"
"MA200-0416","54919","115","1","1.10","1.6","2023-08-04T18:00:01","120","2023/08/04","18:00:01","0","0","0.0","13","300","64","26","-460","-1696","-26380","2","150","149.45","120.58","28.87","24.17","42.1","10.48","0","0.00","DUALSPOT-UV-BLUE-GREEN-RED-IR","546928","630545","904070","36.536752","12.149559","0.014361","572070","812751","761922","28.159416","8.917022","0.016613","668955","831473","815225","24.424634","7.514716","0.017617","688072","863677","864519","20.577142","6.122409","0.018485","618297","812104","952360","15.032684","4.000989","0.015443","3389","5887","7131","3352","5366","6299","3344","5092","5869","3511","5025","5666","3712","4536","4835","DualSpot on"
"MA200-0416","54920","115","1","1.10","1.6","2023-08-04T18:05:00","120","2023/08/04","18:05:00","0","0","0.0","13","300","64","25","-480","-1700","-26434","2","150","149.32","120.48","28.83","24.09","42.2","10.46","0","0.00","DUALSPOT-UV-BLUE-GREEN-RED-IR","543775","630683","908095","37.553240","12.568768","0.013871","569799","813599","764996","28.953804","9.216529","0.015811","663016","827798","813640","25.121772","7.764227","0.016627","681615","859030","861632","21.176526","6.324546","0.017401","614339","809526","950564","15.484550","4.132270","0.014595","4955","8539","10343","4887","7700","9014","4803","7184","8249","4991","7033","7903","5239","6360","6768","DualSpot on"
"MA200-0416","54921","115","1","1.10","1.6","2023-08-04T18:10:01","120","2023/08/04","18:10:01","0","0","0.0","13","300","64","24","-430","-1592","-26319","2","150","149.46","120.94","28.52","24.01","42.4","10.45","0","0.00","DUALSPOT-UV-BLUE-GREEN-RED-IR","536569","625838","905052","38.554136","13.005482","0.014576","564082","808976","762694","29.669240","9.488243","0.015941","661563","829265","816876","25.733770","7.982774","0.016597","681264","861539","865618","21.693460","6.494510","0.016597","614418","811867","954309","15.867012","4.236421","0.010984","4860","8993","11097","4385","7062","8320","4201","6361","7333","4288","5978","6700","4417","5101","5350","DualSpot on"
"MA200-0416","54922","115","1","1.10","1.6","2023-08-04T18:15:00","120","2023/08/04","18:15:00","0","0","0.0","13","300","64","24","-463","-1688","-26480","2","150","149.63","120.86","28.77","23.92","42.5","10.42","90032","23.38","DUALSPOT-UV-BLUE-GREEN-RED-IR","530968","622496","903928","39.475564","13.415684","0.014406","559826","806181","762134","30.355210","9.760833","0.016363","657038","826675","816114","26.326610","8.202357","0.016974","676562","858422","863978","22.199316","6.669646","0.017743","611501","810191","953337","16.239254","4.341762","0.012626","4477","8375","10381","4207","7024","8359","4072","6337","7362","4199","6107","6927","4302","5115","5412","DualSpot on"
"MA200-0416","54923","115","1","1.10","1.6","2023-08-04T18:20:01","120","2023/08/04","18:20:01","0","0","0.0","13","300","64","23","-538","-1638","-26380","2","150","149.57","121.07","28.50","23.84","42.7","10.40","0","0.00","DUALSPOT-UV-BLUE-GREEN-RED-IR","527629","621047","904669","40.197344","13.733448","0.014163","557215","804976","762540","30.875078","9.963232","0.015910","651898","822514","813363","26.775942","8.366931","0.016698","670001","852249","858831","22.579198","6.797242","0.016792","607701","806787","950029","16.521877","4.417831","0.009908","3501","6549","8130","3183","5264","6256","3081","4794","5573","3148","4491","5070","3261","3728","3899","DualSpot on"
"MA200-0416","54924","115","1","1.10","1.6","2023-08-04T18:25:00","120","2023/08/04","18:25:00","0","0","0.0","13","300","64","23","-524","-1608","-26452","2","150","150.69","121.19","29.50","23.75","42.9","10.39","0","0.00","DUALSPOT-UV-BLUE-GREEN-RED-IR","528072","623656","911039","40.813092","14.012329","0.013897","554238","802916","762050","31.343860","10.153425","0.015840","648911","820801","812930","27.185190","8.521850","0.016444","672367","857242","864987","22.934994","6.923581","0.017288","605937","806034","949860","16.792434","4.494280","0.010717","2984","5552","6895","2867","4779","5695","2803","4359","5070","2945","4296","4880","3118","3620","3803","DualSpot on"
"MA200-0416","54925","115","1","1.10","1.6","2023-08-04T18:30:01","120","2023/08/04","18:30:01","0","0","0.0","13","300","64","23","-496","-1684","-26444","2","150","149.73","120.87","28.86","23.67","43.1","10.36","90044","23.13","DUALSPOT-UV-BLUE-GREEN-RED-IR","524277","621064","909461","41.362628","14.261185","0.013968","554880","805813","766041","31.751426","10.317886","0.015919","649764","823743","816934","27.541646","8.656824","0.016729","668884","854509","863147","23.242226","7.031607","0.017377","607310","809194","954200","17.020198","4.558079","0.011234","2670","5064","6324","2499","4224","5054","2448","3882","4540","2550","3755","4277","2632","3088","3254","DualSpot on"
"MA200-0416","54926","115","1","1.10","1.6","2023-08-04T18:35:01","120","2023/08/04","18:35:01","0","0","0.0","13","300","64","22","-472","-1684","-26452","2","150","150.16","120.62","29.54","23.59","43.2","10.34","90052","23.06","DUALSPOT-UV-BLUE-GREEN-RED-IR","517597","615405","903781","42.012804","14.547852","0.013101","549233","799958","761919","32.238460","10.507828","0.014511","645053","819972","814465","27.967454","8.813543","0.015138","663358","849513","859165","23.605386","7.154144","0.014892","603865","806166","951380","17.292324","4.633394","0.008728","3166","5699","7042","2993","4766","5624","2930","4404","5082","3020","4161","4658","3151","3561","3711","DualSpot on"
"MA200-0416","54927","115","1","1.10","1.6","2023-08-04T18:40:00","120","2023/08/04","18:40:00","0","0","0.0","13","300","64","23","-468","-1668","-26544","2","150","149.70","120.54","29.16","23.52","43.3","10.31","90060","22.94","DUALSPOT-UV-BLUE-GREEN-RED-IR","514221","613726","904139","42.712708","14.860596","0.013230","546832","798948","762504","32.752656","10.711492","0.014852","642189","818632","814477","28.414936","8.978451","0.015257","665277","854111","864963","23.991456","7.287043","0.015754","601757","805082","950863","17.585372","4.716263","0.010669","3410","6299","7841","3162","5178","6157","3082","4695","5440","3213","4572","5165","3396","3970","4180","DualSpot on"
"MA200-0416","54928","115","1","1.10","1.6","2023-08-04T18:45:00","120","2023/08/04","18:45:00","0","0","0.0","13","300","64","22","-472","-1603","-26500","2","150","149.96","120.99","28.98","23.43","43.4","10.26","90072","22.88","DUALSPOT-UV-BLUE-GREEN-RED-IR","513625","615037","908581","43.316724","15.136299","0.013436","546462","800601","765499","33.207302","10.894447","0.015149","641921","820336","817394","28.808664","9.127904","0.016011","661005","850482","862332","24.331514","7.406025","0.016378","602524","807601","954548","17.844898","4.788006","0.009755","2932","5588","7015","2785","4680","5605","2701","4282","5014","2819","4119","4688","2996","3458","3628","DualSpot on"
"MA200-0416","54929","115","1","1.10","1.6","2023-08-04T18:50:00","120","2023/08/04","18:50:00","0","0","0.0","13","300","64","21","-560","-1780","-26456","2","150","149.47","120.76","28.71","23.37","43.5","10.26","90072","22.81","DUALSPOT-UV-BLUE-GREEN-RED-IR","508671","611421","906058","44.005656","15.447773","0.013214","542444","797095","763727","33.714236","11.099637","0.015174","638480","818216","816653","29.253364","9.295941","0.015845","661786","853656","866676","24.717630","7.540567","0.016233","600176","806170","953625","18.138814","4.871677","0.011719","3350","6372","8006","3111","5298","6371","3057","4859","5698","3207","4701","5357","3399","4071","4317","DualSpot on"
"MA200-0416","54930","115","1","1.10","1.6","2023-08-04T18:55:00","120","2023/08/04","18:55:00","0","0","0.0","13","300","64","21","-512","-1664","-26384","2","150","149.67","121.22","28.45","23.30","43.7","10.26","90076","22.75","DUALSPOT-UV-BLUE-GREEN-RED-IR","507646","612599","910856","44.736668","15.783348","0.013329","538005","793146","761631","34.261072","11.323148","0.015340","634417","815386","815332","29.733224","9.479160","0.016118","657781","850764","865044","25.137310","7.689253","0.016842","597454","804326","952333","18.461956","4.964281","0.012576","3542","6928","8774","3344","5824","7048","3286","5346","6311","3473","5243","6023","3723","4547","4849","DualSpot on"
"MA200-0416","54931","115","1","1.10","1.6","2023-08-04T19:00:00","120","2023/08/04","19:00:00","0","0","0.0","14","300","64","21","-548","-1596","-26296","2","150","150.03","120.95","29.08","23.24","43.8","10.25","90080","22.69","DUALSPOT-UV-BLUE-GREEN-RED-IR","502591","609184","909093","45.528184","16.141640","0.012686","537777","795776","766028","34.867740","11.566782","0.014359","630412","812984","814567","30.269026","9.681015","0.015015","652905","847087","862758","25.604608","7.852606","0.015449","597481","806531","955963","18.825558","5.067184","0.010353","3843","7235","9099","3718","6210","7447","3678","5762","6742","3876","5635","6413","4199","4942","5216","DualSpot on"
"MA200-0416","54932","115","1","1.10","1.6","2023-08-04T19:05:01","120","2023/08/04","19:05:01","0","0","0.0","14","300","64","21","-472","-1588","-26272","2","150","149.37","120.91","28.46","23.18","44.0","10.27","90088","22.63","DUALSPOT-UV-BLUE-GREEN-RED-IR","496248","604859","906724","46.552132","16.599922","0.012533","531976","790991","763962","35.688236","11.897463","0.014472","625141","809817","813665","31.003692","9.959490","0.015269","648033","844255","861782","26.248904","8.080724","0.016053","594079","804774","955301","19.332760","5.219923","0.014311","4974","9457","11941","5030","8612","10404","5044","8122","9579","5346","8040","9239","5860","7496","8101","DualSpot on"
"MA200-0416","54933","115","1","1.10","1.6","2023-08-04T19:10:00","120","2023/08/04","19:10:00","0","0","0.0","14","300","64","20","-500","-1619","-26436","2","150","149.76","121.23","28.53","23.16","44.6","10.44","90096","22.63","DUALSPOT-UV-BLUE-GREEN-RED-IR","491631","601749","905414","47.343204","16.971562","0.012847","528508","788752","763824","36.324476","12.162698","0.014780","624187","811455","817127","31.579170","10.183737","0.015572","648401","847492","866695","26.762240","8.264880","0.016115","591004","802893","954274","19.741646","5.339849","0.012776","3832","7649","9782","3890","6890","8400","3941","6524","7754","4248","6474","7469","4711","5871","6300","DualSpot on"
"MA200-0416","54934","115","1","1.10","1.6","2023-08-04T19:15:01","120","2023/08/04","19:15:01","0","0","0.0","13","300","64","20","-516","-1748","-26340","2","150","149.90","120.95","28.95","23.15","45.0","10.56","90096","22.56","DUALSPOT-UV-BLUE-GREEN-RED-IR","486376","597731","902601","48.107136","17.330242","0.012482","523812","784542","761649","36.933568","12.415058","0.014188","619981","808680","816040","32.124652","10.394653","0.014828","643216","843368","863967","27.246668","8.437652","0.015235","587664","800566","952542","20.131732","5.453848","0.011548","3709","7276","9285","3733","6462","7843","3744","6048","7150","4018","5987","6870","4505","5500","5870","DualSpot on"
"MA200-0416","54935","115","1","1.10","1.6","2023-08-04T19:20:00","120","2023/08/04","19:20:00","0","0","0.0","13","300","64","19","-548","-1668","-26319","2","150","150.29","120.82","29.47","23.16","45.2","10.64","90104","22.56","DUALSPOT-UV-BLUE-GREEN-RED-IR","483781","596843","904318","48.828876","17.668770","0.012109","521788","784087","762945","37.486948","12.642992","0.013595","617797","808286","817186","32.614842","10.582512","0.014048","642319","844529","866495","27.675906","8.587164","0.013838","586560","801022","954010","20.475212","5.552259","0.009443","3508","6747","8583","3395","5733","6923","3368","5292","6216","3564","5090","5776","3971","4665","4923","DualSpot on"
"MA200-0416","54936","115","1","1.10","1.6","2023-08-04T19:25:01","120","2023/08/04","19:25:01","0","0","0.0","13","300","64","19","-542","-1596","-26369","2","150","150.23","120.74","29.48","23.18","45.4","10.73","90108","22.63","DUALSPOT-UV-BLUE-GREEN-RED-IR","479443","594528","904578","49.756124","18.087224","0.011481","518038","781825","763010","38.217528","12.940223","0.013129","610603","802082","812918","33.265854","10.830064","0.013600","639181","843523","867176","28.246552","8.787807","0.013796","584202","800393","954561","20.932374","5.688278","0.011022","4510","8336","10520","4485","7473","9002","4476","6970","8174","4741","6827","7769","5289","6444","6875","DualSpot on"
"MA200-0416","54937","115","1","1.10","1.6","2023-08-04T19:30:01","120","2023/08/04","19:30:01","0","0","0.0","13","300","64","18","-572","-1796","-26347","2","150","149.09","120.13","28.95","23.22","45.5","10.79","90104","22.63","DUALSPOT-UV-BLUE-GREEN-RED-IR","475638","592016","903761","50.471268","18.421432","0.011821","514628","779163","762139","38.766800","13.167477","0.013426","610419","804230","816641","33.752092","11.018162","0.014021","630591","834434","859093","28.671088","8.939095","0.014308","581387","798426","953155","21.273178","5.788215","0.010786","3496","6780","8667","3389","5818","7068","3360","5393","6379","3545","5242","6011","3962","4821","5143","DualSpot on"
"MA200-0416","54938","115","1","1.10","1.6","2023-08-04T19:35:00","120","2023/08/04","19:35:00","0","0","0.0","13","300","64","18","-472","-1536","-26188","2","150","149.57","120.50","29.07","23.25","45.4","10.79","90104","22.69","DUALSPOT-UV-BLUE-GREEN-RED-IR","474208","592133","906509","51.075212","18.704082","0.011695","513789","779912","764280","39.218336","13.356144","0.013416","605909","800219","813801","34.145732","11.169753","0.013762","630530","836214","861986","29.013762","9.060172","0.013899","581070","799501","955226","21.543476","5.868383","0.011133","2943","5711","7310","2777","4811","5862","2712","4329","5116","2853","4179","4781","3133","3852","4122","DualSpot on"
"MA200-0416","54939","115","1","1.10","1.6","2023-08-04T19:40:00","120","2023/08/04","19:40:00","0","0","0.0","13","300","64","18","-552","-1688","-26528","2","150","149.46","120.90","28.56","23.27","45.4","10.80","90108","22.69","DUALSPOT-UV-BLUE-GREEN-RED-IR","472164","591552","908150","51.683304","18.980442","0.011482","512008","779300","765090","39.666820","13.538540","0.013177","603787","799380","814132","34.537852","11.319037","0.013790","628281","835043","861788","29.349796","9.178074","0.014097","579842","799281","955673","21.805126","5.946375","0.012133","2954","5682","7266","2750","4733","5761","2692","4339","5141","2788","4141","4756","3023","3814","4110","DualSpot on"
"MA200-0416","54940","115","1","1.10","1.6","2023-08-04T19:45:01","120","2023/08/04","19:45:01","0","0","0.0","12","300","64","17","-475","-1635","-26244","2","150","149.39","120.90","28.48","23.30","45.3","10.79","90108","22.69","DUALSPOT-UV-BLUE-GREEN-RED-IR","468862","589241","906881","52.248252","19.235042","0.011312","509336","777226","764391","40.095060","13.711929","0.013021","601129","797675","813589","34.911260","11.460641","0.013630","625416","833019","860682","29.674300","9.290373","0.013674","577598","797627","954408","22.059684","6.019338","0.010410","2744","5250","6710","2625","4513","5493","2564","4127","4891","2692","3955","4531","2941","3578","3817","DualSpot on"
"MA200-0416","54941","115","1","1.10","1.6","2023-08-04T19:50:00","120","2023/08/04","19:50:00","0","0","0.0","12","300","64","17","-479","-1652","-26380","2","150","149.67","120.64","29.04","23.30","45.3","10.79","90112","22.69","DUALSPOT-UV-BLUE-GREEN-RED-IR","467595","589265","909143","52.771552","19.479008","0.011324","507946","776903","765312","40.493340","13.878662","0.013072","599699","797489","814499","35.262884","11.598672","0.013741","625574","834812","863480","29.980194","9.401544","0.014217","574375","794468","951338","22.298408","6.093096","0.012589","2547","4934","6331","2447","4256","5200","2419","3946","4694","2544","3841","4433","2764","3548","3843","DualSpot on"
"MA200-0416","54942","115","1","1.10","1.6","2023-08-04T19:55:00","120","2023/08/04","19:55:00","0","0","0.0","12","300","64","16","-431","-1520","-26460","2","150","150.10","120.25","29.85","23.32","45.3","10.82","0","0.00","DUALSPOT-UV-BLUE-GREEN-RED-IR","464733","587577","908916","53.356736","19.740262","0.010476","505771","775770","765699","40.964344","14.068007","0.011851","597120","796129","814394","35.681248","11.756475","0.012235","622966","833316","863060","30.343834","9.529576","0.012486","575495","797610","955948","22.583584","6.179212","0.010169","2858","5140","6480","2903","4702","5643","2888","4389","5126","3033","4303","4884","3312","4030","4300","DualSpot on"
"MA200-0416","54943","115","1","1.10","1.6","2023-08-04T20:00:00","120","2023/08/04","20:00:00","0","0","0.0","12","300","64","15","-468","-1608","-26419","2","150","150.49","120.99","29.51","23.32","45.4","10.85","0","0.00","DUALSPOT-UV-BLUE-GREEN-RED-IR","461513","584975","906857","53.829856","19.958230","0.010878","503041","773242","764381","41.348000","14.229137","0.012674","594259","793938","813243","36.023272","11.892034","0.013401","619749","830627","861186","30.644280","9.639800","0.013833","573137","795683","954307","22.822982","6.252912","0.011630","2296","4339","5542","2350","4048","4939","2347","3814","4537","2491","3747","4324","2764","3489","3762","DualSpot on"
"MA200-0416","54944","115","1","1.10","1.6","2023-08-04T20:05:00","120","2023/08/04","20:05:00","0","0","0.0","12","300","64","15","-426","-1711","-26569","2","150","149.83","120.66","29.17","23.34","45.3","10.82","90128","22.69","DUALSPOT-UV-BLUE-GREEN-RED-IR","461455","586037","910059","54.192420","20.128258","0.011058","499727","769490","761618","41.645052","14.354736","0.012808","593888","794728","814935","36.290796","11.997640","0.013392","620080","832272","863649","30.878070","9.724858","0.013743","573194","796756","956170","23.006404","6.310062","0.012376","1764","3423","4404","1825","3192","3911","1840","3005","3581","1943","2925","3376","2123","2737","2968","DualSpot on"
"MA200-0416","54945","115","1","1.10","1.6","2023-08-04T20:10:00","120","2023/08/04","20:10:00","0","0","0.0","12","300","64","15","-452","-1600","-26356","2","150","149.83","120.99","28.84","23.32","45.2","10.78","0","0.00","DUALSPOT-UV-BLUE-GREEN-RED-IR","459590","584733","909562","54.543808","20.295834","0.011264","501211","773018","766088","41.931068","14.477819","0.013152","592201","793630","814654","36.543600","12.101607","0.014234","618899","831868","863922","31.101746","9.809865","0.014938","572359","796545","956451","23.182086","6.366243","0.013803","1705","3412","4423","1752","3163","3907","1734","2992","3615","1854","2956","3464","2028","2720","2983","DualSpot on"
"MA200-0416","54946","115","1","1.10","1.6","2023-08-04T20:15:01","120","2023/08/04","20:15:01","0","0","0.0","12","300","64","14","-504","-1664","-26488","2","150","149.83","120.82","29.01","23.31","45.2","10.78","0","0.00","DUALSPOT-UV-BLUE-GREEN-RED-IR","457647","583430","909076","54.911864","20.468402","0.010983","499516","771729","765792","42.232692","14.608592","0.013071","590421","792561","814454","36.815548","12.211563","0.013740","617098","830654","863480","31.341308","9.900705","0.014633","571079","795799","956119","23.371486","6.427120","0.013628","1789","3494","4507","1850","3342","4130","1868","3147","3781","1989","3141","3674","2189","2931","3213","DualSpot on"
"MA200-0416","54947","115","1","1.10","1.6","2023-08-04T20:20:00","120","2023/08/04","20:20:00","0","0","0.0","12","300","64","13","-530","-1655","-26391","2","150","150.09","120.95","29.15","23.32","45.3","10.82","90124","22.75","DUALSPOT-UV-BLUE-GREEN-RED-IR","456022","582724","909755","55.346236","20.666100","0.010595","494885","766143","761425","42.590920","14.757943","0.012388","588492","791501","814386","37.135964","12.338713","0.013246","615349","829777","863468","31.622726","10.005610","0.014052","569708","795066","955926","23.593364","6.496567","0.012370","2109","3983","5100","2195","3798","4648","2199","3621","4328","2334","3610","4201","2562","3328","3618","DualSpot on"
"MA200-0416","54948","115","1","1.10","1.6","2023-08-04T20:25:00","120","2023/08/04","20:25:00","0","0","0.0","12","300","64","13","-472","-1724","-26516","2","150","149.73","121.03","28.71","23.35","45.5","10.91","90124","22.75","DUALSPOT-UV-BLUE-GREEN-RED-IR","455038","582538","910902","55.682908","20.821170","0.010788","493615","765439","761584","42.868284","14.871377","0.012266","587705","791631","815302","37.383692","12.435191","0.013115","615259","830817","865225","31.841098","10.084138","0.013514","566459","791528","952171","23.769462","6.550802","0.012276","1633","3172","4092","1698","2929","3583","1699","2790","3334","1810","2744","3177","2032","2639","2870","DualSpot on"
"MA200-0416","54949","115","1","1.10","1.6","2023-08-04T20:30:00","120","2023/08/04","20:30:00","0","0","0.0","12","300","64","12","-500","-1592","-26288","2","150","150.16","120.82","29.34","23.40","46.2","11.18","90120","22.75","DUALSPOT-UV-BLUE-GREEN-RED-IR","450494","577812","904930","56.035196","20.979134","0.010263","493185","766057","763042","43.147852","14.983964","0.011640","586679","791473","815896","37.631800","12.527817","0.011858","613989","830252","865299","32.059456","10.159052","0.011752","565422","791054","952107","23.949070","6.604347","0.009991","1712","3162","4030","1715","2845","3446","1704","2621","3078","1813","2561","2909","2076","2549","2729","DualSpot on"
"MA200-0416","54950","115","1","1.10","1.6","2023-08-04T20:35:01","120","2023/08/04","20:35:01","0","0","0.0","11","300","64","11","-496","-1603","-26444","2","150","149.73","120.95","28.78","23.52","46.9","11.53","90116","22.88","DUALSPOT-UV-BLUE-GREEN-RED-IR","450430","578717","907693","56.353548","21.126976","0.010709","492671","766440","764207","43.409360","15.091443","0.012142","586204","792039","817209","37.867652","12.616064","0.012196","610467","826665","862179","32.270272","10.230118","0.011739","565561","792256","954078","24.127068","6.657289","0.010632","1546","3016","3899","1602","2768","3389","1618","2545","3008","1748","2477","2815","2055","2569","2765","DualSpot on"
"MA200-0416","54951","115","1","1.10","1.6","2023-08-04T20:40:01","120","2023/08/04","20:40:01","0","0","0.0","11","300","64","10","-464","-1668","-26384","2","150","149.57","120.54","29.03","23.62","46.9","11.60","0","0.00","DUALSPOT-UV-BLUE-GREEN-RED-IR","450555","579617","910143","56.597716","21.243488","0.010798","492890","767714","766142","43.614652","15.175373","0.011853","582514","787924","813530","38.054572","12.686159","0.011966","610662","827849","863859","32.437614","10.285670","0.010996","565164","792475","954760","24.270714","6.700405","0.010465","1189","2357","3059","1262","2143","2613","1287","2004","2363","1392","1920","2165","1664","2075","2231","DualSpot on"
"MA200-0416","54952","115","1","1.10","1.6","2023-08-04T20:45:00","120","2023/08/04","20:45:00","0","0","0.0","12","300","64","10","-488","-1638","-26411","2","150","150.11","120.79","29.32","23.70","46.6","11.57","0","0.00","DUALSPOT-UV-BLUE-GREEN-RED-IR","446691","575566","905099","56.900840","21.387256","0.010624","489582","763700","763036","43.881264","15.291441","0.012515","582003","788380","814821","38.296908","12.784698","0.013145","610875","829264","866064","32.654872","10.367321","0.013644","564956","793190","956123","24.451386","6.757869","0.012278","1473","2880","3727","1636","2934","3629","1665","2790","3354","1804","2794","3254","2089","2738","2985","DualSpot on"
"MA200-0416","54953","115","1","1.10","1.6","2023-08-04T20:50:00","120","2023/08/04","20:50:00","0","0","0.0","12","300","64","9","-512","-1572","-26303","2","150","150.01","121.37","28.63","23.76","46.5","11.60","90136","23.13","DUALSPOT-UV-BLUE-GREEN-RED-IR","446566","576724","908643","57.317216","21.578182","0.010506","489121","764685","765265","44.262292","15.454056","0.012521","580871","788551","816176","38.651400","12.927382","0.013319","605924","824208","861834","32.973102","10.485964","0.013943","561345","789478","952505","24.713180","6.845390","0.014803","2014","3916","5064","2327","4210","5220","2424","4137","4997","2630","4157","4868","3013","4269","4751","DualSpot on"
"MA200-0416","54954","115","1","1.10","1.6","2023-08-04T20:55:00","120","2023/08/04","20:55:00","0","0","0.0","13","300","64","8","-452","-1632","-26436","2","150","149.90","120.90","28.99","23.84","46.7","11.75","90140","23.19","DUALSPOT-UV-BLUE-GREEN-RED-IR","442372","572477","903569","57.708512","21.758584","0.010344","485043","759948","761682","44.637488","15.609273","0.011811","576703","784548","813109","39.002548","13.064353","0.012439","606123","826128","864822","33.293796","10.602551","0.012943","561094","790512","954621","24.975948","6.933363","0.014181","1900","3654","4716","2300","3968","4866","2411","3922","4683","2661","4034","4676","3036","4238","4701","DualSpot on"
"MA200-0416","54955","115","1","1.10","1.6","2023-08-04T21:00:01","120","2023/08/04","21:00:01","0","0","0.0","13","300","64","7","-500","-1688","-26452","2","150","149.39","120.78","28.60","23.89","46.7","11.79","90144","23.19","DUALSPOT-UV-BLUE-GREEN-RED-IR","442786","573313","905435","57.819948","21.820392","0.011815","485571","761194","763303","44.740312","15.658200","0.013596","576365","784502","813396","39.101912","13.106801","0.013998","606204","826727","865731","33.382450","10.635976","0.013928","560862","790609","954951","25.053662","6.958671","0.013646","541","1269","1710","631","1268","1611","683","1232","1508","736","1172","1376","898","1236","1365","DualSpot on"
"MA200-0416","54956","115","1","1.10","1.6","2023-08-04T21:05:01","120","2023/08/04","21:05:01","0","0","0.0","13","300","64","6","-475","-1548","-26491","2","150","149.63","120.38","29.25","23.92","46.5","11.75","90140","23.25","DUALSPOT-UV-BLUE-GREEN-RED-IR","441989","572600","904830","57.929460","21.875626","0.010934","484623","760126","762595","44.844308","15.704783","0.012594","575697","784013","813227","39.194464","13.146769","0.013751","605034","825534","864759","33.468010","10.668064","0.013256","560198","790044","954499","25.126858","6.981237","0.010789","534","1108","1457","640","1180","1471","638","1134","1384","713","1100","1281","849","1077","1165","DualSpot on"
"MA200-0416","54957","115","1","1.10","1.6","2023-08-04T21:10:00","120","2023/08/04","21:10:00","0","0","0.0","13","300","64","6","-492","-1592","-26312","2","150","149.39","120.70","28.68","23.95","46.2","11.70","90136","23.31","DUALSPOT-UV-BLUE-GREEN-RED-IR","442850","574307","908314","58.123368","21.963848","0.010239","485109","761676","764698","45.022896","15.779726","0.012018","576024","785287","815039","39.358348","13.208935","0.012017","602142","822400","861936","33.617364","10.722337","0.013006","558020","787655","951954","25.251430","7.020157","0.012021","943","1806","2330","1096","1936","2390","1127","1799","2138","1241","1898","2205","1441","1895","2070","DualSpot on"
"MA200-0416","54958","115","1","1.10","1.6","2023-08-04T21:15:00","120","2023/08/04","21:15:00","0","0","0.0","13","300","68","5","-504","-1556","-26344","3","150","150.41","121.32","29.09","23.98","46.0","11.65","90140","23.31","DUALSPOT-UV-BLUE-GREEN-RED-IR","806404","711143","906084","0.000000","0.000000","0.000000","765097","885817","764748","0.000000","0.000000","0.000000","855592","889017","814779","0.000000","0.000000","0.000000","846787","912300","866416","0.000000","0.000000","0.000000","717649","839621","951862","0.000000","0.000000","0.000000","","","","","","","","","","","","","","","","Tape advance-DualSpot on"
"MA200-0416","54959","115","1","1.10","1.6","2023-08-04T21:20:00","120","2023/08/04","21:20:00","0","0","0.0","13","300","68","4","-504","-1743","-26491","3","150","149.80","121.14","28.65","23.96","45.9","11.58","90132","23.31","DUALSPOT-UV-BLUE-GREEN-RED-IR","802841","709818","905217","0.000000","0.000000","0.000000","762963","884812","764394","0.000000","0.000000","0.000000","853135","887674","814014","0.000000","0.000000","0.000000","845385","911733","866295","0.000000","0.000000","0.000000","720207","843221","956178","0.000000","0.000000","0.000000","","","","","","","","","","","","","","","","Tape advance-DualSpot on"
"MA200-0416","54960","115","1","1.10","1.6","2023-08-04T21:25:01","120","2023/08/04","21:25:01","0","0","0.0","12","300","64","26","-388","-368","-26591","3","150","149.90","122.20","27.69","24.13","45.4","11.60","90144","24.31","DUALSPOT-UV-BLUE-GREEN-RED-IR","805753","713495","910429","0.215805","0.057119","0.000000","760291","882609","762754","0.134704","0.036305","0.000000","854324","889610","815997","0.107282","0.027173","0.000000","842871","909606","864438","0.083125","0.022584","0.000000","717572","840434","953168","0.050868","0.012352","0.000000","1037","1211","1037","817","971","817","728","814","728","682","818","682","581","623","581","DualSpot on"
"MA200-0416","54961","115","1","1.10","1.6","2023-08-04T21:30:00","120","2023/08/04","21:30:00","0","0","0.0","12","300","72","31","-292","-468","-26447","3","150","149.94","121.41","28.53","25.14","44.2","12.10","90164","27.06","DUALSPOT-UV-BLUE-GREEN-RED-IR","695109","616482","787055","0.424248","0.107936","0.000000","757545","880274","760857","0.250097","0.052327","0.000000","851921","887849","814394","0.197327","0.031548","0.000000","845208","912769","867360","0.144885","0.014263","0.000000","718990","842550","955585","0.109106","0.017640","0.000000","1008","1046","1008","704","416","704","615","127","615","510","-292","510","670","258","670","DualSpot on"
"MA200-0416","54962","115","1","1.10","1.6","2023-08-04T21:35:00","120","2023/08/04","21:35:00","0","0","0.0","12","300","64","33","-292","-475","-26447","3","150","149.37","120.60","28.77","26.10","42.6","12.40","90176","28.38","DUALSPOT-UV-BLUE-GREEN-RED-IR","801035","711671","909008","0.647614","0.158079","0.000000","756728","880315","760932","0.367756","0.059175","0.000000","850665","887429","813906","0.284349","0.019109","0.000000","839816","907755","862348","0.205005","-0.013208","0.000000","715796","839400","952091","0.186958","0.025752","0.000000","1087","1023","1087","723","176","723","599","-358","599","500","-957","500","901","393","901","DualSpot on"
"MA200-0416","54963","115","1","1.10","1.6","2023-08-04T21:40:01","120","2023/08/04","21:40:01","0","0","0.0","12","300","64","35","-270","-545","-26483","3","150","150.29","120.38","29.92","26.94","41.1","12.59","90180","29.31","DUALSPOT-UV-BLUE-GREEN-RED-IR","798522","710504","907948","0.847665","0.202840","0.000000","759191","884084","764238","0.472185","0.060558","0.000000","851779","889411","815609","0.356423","0.000870","0.000000","842164","911052","865233","0.257961","-0.044476","0.000000","715126","839160","951901","0.259798","0.031580","0.000000","976","878","976","643","34","643","497","-506","497","441","-1048","441","845","272","845","DualSpot on"
"MA200-0416","54964","115","1","1.10","1.6","2023-08-04T21:45:00","120","2023/08/04","21:45:00","0","0","0.0","13","300","64","38","-228","-512","-26396","3","150","150.05","120.60","29.45","27.66","39.9","12.78","90176","30.06","DUALSPOT-UV-BLUE-GREEN-RED-IR","797143","710385","908166","1.043645","0.247758","0.000000","756234","881555","762048","0.576915","0.064826","0.000000","850245","888618","814766","0.433349","-0.012082","0.000000","839006","908365","862440","0.311005","-0.071728","0.000000","716393","841221","954292","0.334781","0.039140","0.000000","954","895","954","643","107","643","529","-365","529","441","-928","441","868","358","868","DualSpot on"
"MA200-0416","54965","115","1","1.10","1.6","2023-08-04T21:50:01","120","2023/08/04","21:50:01","0","0","0.0","13","300","64","39","-228","-508","-26472","3","150","150.09","120.13","29.96","28.28","38.9","12.95","90172","30.69","DUALSPOT-UV-BLUE-GREEN-RED-IR","793499","708200","905804","1.239984","0.292987","0.000000","755665","881774","762297","0.683800","0.069808","0.000000","851571","890814","816689","0.513607","-0.023007","0.000000","840035","910165","863951","0.365292","-0.094240","0.000000","716065","841416","954592","0.407588","0.045750","0.000000","959","886","959","659","123","659","554","-302","554","453","-753","453","846","308","846","DualSpot on"
"MA200-0416","54966","115","1","1.10","1.6","2023-08-04T21:55:00","120","2023/08/04","21:55:00","0","0","0.0","13","300","64","40","-184","-523","-26430","3","150","150.70","119.75","30.95","28.83","37.9","13.06","90184","31.19","DUALSPOT-UV-BLUE-GREEN-RED-IR","794061","709811","908275","1.442004","0.337682","0.000000","758215","885719","765776","0.800646","0.078272","0.000000","849613","889589","815567","0.604867","-0.027119","0.000000","842095","913172","866637","0.431213","-0.112915","0.000000","713475","838933","951871","0.487586","0.056151","0.000000","990","848","990","723","202","723","632","-110","632","552","-605","552","933","469","933","DualSpot on"
"MA200-0416","54967","115","1","1.10","1.6","2023-08-04T22:00:00","120","2023/08/04","22:00:00","0","0","0.0","13","300","64","42","-196","-556","-26500","3","150","149.63","119.57","30.06","29.27","37.1","13.13","90192","31.63","DUALSPOT-UV-BLUE-GREEN-RED-IR","790605","707780","906088","1.641353","0.383930","0.000000","757775","886114","766190","0.916436","0.089735","0.000000","847443","888141","814176","0.693505","-0.028056","0.000000","839302","910845","864360","0.496895","-0.123864","0.000000","714622","840810","954085","0.557792","0.065242","0.000000","979","903","979","717","282","717","615","-25","615","551","-365","551","820","422","820","DualSpot on"
"MA200-0416","54968","115","1","1.10","1.6","2023-08-04T22:05:00","120","2023/08/04","22:05:00","0","0","0.0","13","300","64","43","-215","-536","-26528","3","150","149.73","119.75","29.99","29.66","36.5","13.20","90216","32.00","DUALSPOT-UV-BLUE-GREEN-RED-IR","792922","711073","910794","1.863033","0.436929","0.000000","755628","884637","765074","1.053263","0.109869","0.000000","847973","889562","815600","0.803744","-0.018233","0.000000","836119","908145","861749","0.577093","-0.128662","0.000000","714563","841313","954765","0.637193","0.078593","0.000000","1087","1038","1087","847","497","847","764","271","764","671","-160","671","926","621","926","DualSpot on"
"MA200-0416","54969","115","1","1.10","1.6","2023-08-04T22:10:00","120","2023/08/04","22:10:00","0","0","0.0","13","300","64","44","-176","-496","-26388","3","150","150.11","119.82","30.29","30.00","35.9","13.27","90204","32.31","DUALSPOT-UV-BLUE-GREEN-RED-IR","782903","704591","903080","2.284888","0.501127","0.000000","747575","877733","759406","1.381353","0.147587","0.000000","845623","889380","815636","1.088559","0.008040","0.000000","833963","907965","861684","0.827631","-0.114696","0.000000","712584","840119","953572","0.791152","0.094911","0.000000","2067","1244","2067","2029","923","2029","1973","720","1973","2097","462","2097","1794","752","1794","DualSpot on"
"MA200-0416","54970","115","1","1.10","1.6","2023-08-04T22:15:01","120","2023/08/04","22:15:01","0","0","0.0","13","300","64","45","-170","-495","-26416","3","150","149.96","119.97","29.99","30.27","35.5","13.31","90208","32.56","DUALSPOT-UV-BLUE-GREEN-RED-IR","785278","707725","907541","2.473720","0.548456","0.000000","749540","880942","762308","1.498873","0.168174","0.000000","846179","890696","816934","1.180595","0.017070","0.000000","835640","910397","864037","0.894659","-0.113433","0.000000","712750","840736","954405","0.852769","0.105872","0.000000","924","926","924","726","508","726","636","249","636","560","42","560","717","510","717","DualSpot on"
"MA200-0416","54971","115","1","1.10","1.6","2023-08-04T22:20:00","120","2023/08/04","22:20:00","0","0","0.0","13","300","64","46","-168","-496","-26584","3","150","150.57","119.89","30.69","30.51","35.0","13.34","90200","32.75","DUALSPOT-UV-BLUE-GREEN-RED-IR","783449","707119","907155","2.666596","0.599430","0.000000","748446","880436","762059","1.614127","0.190431","0.000000","844127","889233","815687","1.269895","0.030988","0.000000","834590","909847","863528","0.963779","-0.110578","0.000000","710423","838384","951836","0.911443","0.116765","0.000000","944","975","944","712","537","712","618","376","618","578","93","578","683","495","683","DualSpot on"
"MA200-0416","54972","115","1","1.10","1.6","2023-08-04T22:25:00","120","2023/08/04","22:25:00","0","0","0.0","13","300","64","48","-148","-332","-26400","3","150","149.73","120.13","29.59","30.72","34.8","13.40","90200","32.94","DUALSPOT-UV-BLUE-GREEN-RED-IR","779866","704757","904588","2.843942","0.645719","0.000000","752060","885497","766612","1.721774","0.210827","0.000000","842081","887762","814418","1.354366","0.041574","0.000000","832272","907816","861647","1.025987","-0.105714","0.000000","712675","841413","955357","0.965585","0.127389","0.000000","867","918","867","664","510","664","583","296","583","519","164","519","629","501","629","DualSpot on"
"MA200-0416","54973","115","1","1.10","1.6","2023-08-04T22:30:01","120","2023/08/04","22:30:01","0","0","0.0","13","300","64","49","-160","-388","-26468","3","150","149.83","119.93","29.90","30.87","34.4","13.39","90208","33.13","DUALSPOT-UV-BLUE-GREEN-RED-IR","783975","709408","911026","3.024607","0.695217","0.037657","749174","882862","764479","1.831228","0.233906","0.000000","844403","890805","817361","1.440340","0.057339","0.000000","836907","913416","866996","1.087417","-0.100624","0.000000","710023","838681","952353","1.019311","0.137989","0.000000","884","972","998","676","572","676","595","437","595","513","170","513","625","495","625","DualSpot on"
"MA200-0416","54974","115","1","1.10","1.6","2023-08-04T22:35:01","120","2023/08/04","22:35:01","0","0","0.0","13","300","64","50","-220","-424","-26500","3","150","150.29","120.13","30.16","31.01","34.0","13.32","90200","33.25","DUALSPOT-UV-BLUE-GREEN-RED-IR","778864","705700","906668","3.199231","0.741672","0.022547","745391","879121","761426","1.937940","0.257856","0.000000","841644","888504","815369","1.523196","0.073063","0.000000","832629","909220","863090","1.151073","-0.091367","0.000000","711262","840445","954471","1.068422","0.148683","0.000000","853","904","920","658","588","658","572","432","572","531","307","531","571","495","571","DualSpot on"
"MA200-0416","54975","115","1","1.10","1.6","2023-08-04T22:40:01","120","2023/08/04","22:40:01","0","0","0.0","12","300","64","52","-172","-396","-26424","3","150","150.70","119.54","31.16","31.11","33.7","13.27","90204","33.31","DUALSPOT-UV-BLUE-GREEN-RED-IR","780134","707784","909799","3.383351","0.792903","0.023993","746448","881094","763388","2.052764","0.285566","0.000000","842216","889704","816677","1.615172","0.093907","0.000000","835371","912728","866553","1.221200","-0.078218","0.000000","707880","836795","950425","1.122219","0.161910","0.000000","904","965","984","712","659","712","638","555","638","588","423","588","628","593","628","DualSpot on"
"MA200-0416","54976","115","1","1.10","1.6","2023-08-04T22:45:01","120","2023/08/04","22:45:01","0","0","0.0","12","300","64","53","-153","-380","-26400","3","150","149.89","119.99","29.90","31.16","33.4","13.15","90200","33.31","DUALSPOT-UV-BLUE-GREEN-RED-IR","772749","702138","903073","3.587771","0.848997","0.032616","746761","882383","764757","2.189251","0.321561","0.000000","838906","886973","814348","1.724958","0.121378","0.000000","828530","905851","860163","1.302823","-0.060474","0.000000","708417","837801","951732","1.181020","0.177132","0.000000","1000","1101","1133","843","892","843","759","762","759","682","595","682","684","711","684","DualSpot on"
"MA200-0416","54977","115","1","1.10","1.6","2023-08-04T22:50:01","120","2023/08/04","22:50:01","0","0","0.0","13","300","64","55","-68","-384","-26444","3","150","149.56","119.13","30.43","31.19","33.0","13.02","90208","33.38","DUALSPOT-UV-BLUE-GREEN-RED-IR","772257","702651","904148","3.775859","0.901664","0.029716","746061","882397","765019","2.316696","0.355542","0.000000","838124","886827","814425","1.827830","0.146496","0.000000","828506","906384","860820","1.382395","-0.040954","0.000000","708156","837812","951876","1.234542","0.190037","0.000000","927","1016","1044","793","827","793","716","685","716","670","643","670","627","592","627","DualSpot on"
"MA200-0416","54978","115","1","1.10","1.6","2023-08-04T22:55:01","120","2023/08/04","22:55:01","0","0","0.0","13","300","64","57","-140","-431","-26436","3","150","149.90","119.37","30.52","31.20","32.8","12.92","90204","33.31","DUALSPOT-UV-BLUE-GREEN-RED-IR","771549","702764","904742","3.930731","0.946542","0.037973","740414","876317","759937","2.417027","0.382453","0.000000","837775","886971","814716","1.907849","0.168532","0.000000","827801","906019","860637","1.444293","-0.025236","0.000000","708069","837923","952104","1.273450","0.200682","0.000000","762","863","895","623","653","623","556","599","556","520","516","520","455","487","455","DualSpot on"
"MA200-0416","54979","115","1","1.10","1.6","2023-08-04T23:00:00","120","2023/08/04","23:00:00","0","0","0.0","12","300","64","58","-180","-384","-26412","3","150","150.33","119.49","30.83","31.20","32.8","12.90","90200","33.31","DUALSPOT-UV-BLUE-GREEN-RED-IR","769872","702039","904233","4.089880","0.991231","0.025496","744869","882278","765349","2.522394","0.411033","0.000000","839889","889794","817503","1.993400","0.191205","0.000000","826641","905193","859995","1.508895","-0.007432","0.000000","706993","836940","951079","1.314302","0.210193","0.000000","782","851","873","653","687","653","594","610","594","542","579","542","477","430","477","DualSpot on"
"MA200-0416","54980","115","1","1.10","1.6","2023-08-04T23:05:01","120","2023/08/04","23:05:01","0","0","0.0","13","300","64","60","-129","-425","-26529","3","150","150.09","119.77","30.33","31.18","32.7","12.86","90192","33.31","DUALSPOT-UV-BLUE-GREEN-RED-IR","768031","701195","903540","4.253866","1.037855","0.032870","743637","881537","764921","2.632519","0.441563","0.000000","839128","889538","817487","2.081674","0.215757","0.000000","833118","912703","867281","1.576072","0.010401","0.000000","706476","836577","950776","1.356020","0.220378","0.000000","804","903","934","681","746","681","611","672","611","562","590","562","486","469","486","DualSpot on"
