"Serial number","Datum ID","Session ID","Data format version","Firmware version","App version","Date / time local","Timezone offset (mins)","Date local (yyyy/MM/dd)","Time local (hh:mm:ss)","GPS lat (ddmm.mmmmm)","GPS long (dddmm.mmmmm)","GPS speed (km/h)","GPS sat count","Timebase (s)","Status","Battery remaining (%)","Accel X","Accel Y","Accel Z","Tape position","Flow setpoint (mL/min)","Flow total (mL/min)","Flow1 (mL/min)","Flow2 (mL/min)","Sample temp (C)","Sample RH (%)","Sample dewpoint (C)","Internal pressure (Pa)","Internal temp (C)","Optical config","UV Sen1","UV Sen2","UV Ref","UV ATN1","UV ATN2","UV K","Blue Sen1","Blue Sen2","Blue Ref","Blue ATN1","Blue ATN2","Blue K","Green Sen1","Green Sen2","Green Ref","Green ATN1","Green ATN2","Green K","Red Sen1","Red Sen2","Red Ref","Red ATN1","Red ATN2","Red K","IR Sen1","IR Sen2","IR Ref","IR ATN1","IR ATN2","IR K","UV BC1","UV BC2","UV BCc","Blue BC1","Blue BC2","Blue BCc","Green BC1","Green BC2","Green BCc","Red BC1","Red BC2","Red BCc","IR BC1","IR BC2","IR BCc","Readable status"
"MA200-0416","29538","90","1","1.10","1.4","2023-05-28T11:36:30","120","2023/05/28","11:36:30","-15.795574426651001","35.00293066655286","0.2","15","30","66","72","70","-287","-26262","1","150","145.66","109.57","36.09","37.42","18.5","9.47","90600","34.31","DUALSPOT-UV-BLUE-GREEN-RED-IR","848274","735385","901014","0.000000","0.000000","0.000000","808195","923335","765099","0.000000","0.000000","0.000000","899042","922931","813006","0.000000","0.000000","0.000000","886807","946565","865031","0.000000","0.000000","0.000000","742312","861290","951121","0.000000","0.000000","0.000000","","","","","","","","","","","","","","","","Start up"
"MA200-0416","29539","90","1","1.10","1.4","2023-05-28T11:37:00","120","2023/05/28","11:37:00","-15.79559713602066","35.00293583306484","0.3","15","30","66","72","4","-395","-25975","1","150","150.36","114.20","36.16","37.01","19.4","9.92","90592","34.13","DUALSPOT-UV-BLUE-GREEN-RED-IR","851317","738272","904906","0.000000","0.000000","0.000000","804566","919357","762247","0.000000","0.000000","0.000000","900920","924970","815239","0.000000","0.000000","0.000000","884270","943823","863081","0.000000","0.000000","0.000000","742936","861847","951901","0.000000","0.000000","0.000000","","","","","","","","","","","","","","","","Start up"
"MA200-0416","29540","90","1","1.10","1.4","2023-05-28T11:37:30","120","2023/05/28","11:37:30","-15.795570313930511","35.002948832931","0.3","15","30","66","72","132","-420","-26812","1","150","149.76","113.80","35.96","36.64","20.0","10.03","90600","33.94","DUALSPOT-UV-BLUE-GREEN-RED-IR","853667","740433","907844","0.000000","0.000000","0.000000","806452","921616","764427","0.000000","0.000000","0.000000","900772","924860","815472","0.000000","0.000000","0.000000","885478","945023","864605","0.000000","0.000000","0.000000","741313","859845","949787","0.000000","0.000000","0.000000","","","","","","","","","","","","","","","","Start up"
"MA200-0416","29541","90","1","1.10","1.4","2023-05-28T11:38:00","120","2023/05/28","11:38:00","-15.795619189739227","35.00287816626951","0.1","15","30","66","72","124","-260","-26472","1","150","149.59","113.96","35.63","36.33","20.4","10.11","90600","33.75","DUALSPOT-UV-BLUE-GREEN-RED-IR","849861","737421","904494","0.000000","0.000000","0.000000","803920","919005","762569","0.000000","0.000000","0.000000","900080","924284","815283","0.000000","0.000000","0.000000","884452","943950","863985","0.000000","0.000000","0.000000","742486","861101","951266","0.000000","0.000000","0.000000","","","","","","","","","","","","","","","","Start up"
"MA200-0416","29542","90","1","1.10","1.4","2023-05-28T11:38:30","120","2023/05/28","11:38:30","-15.795586347579956","35.00289966608398","0.2","15","30","66","72","119","-442","-26403","1","150","149.57","113.64","35.92","36.07","20.8","10.18","90596","33.56","DUALSPOT-UV-BLUE-GREEN-RED-IR","849965","737858","905329","0.000000","0.000000","0.000000","804024","919395","763152","0.000000","0.000000","0.000000","900755","925133","816331","0.000000","0.000000","0.000000","884968","944580","864848","0.000000","0.000000","0.000000","744165","863062","953483","0.000000","0.000000","0.000000","","","","","","","","","","","","","","","","Start up"
"MA200-0416","29543","90","1","1.10","1.4","2023-05-28T11:39:00","120","2023/05/28","11:39:00","-15.79558265209198","35.00290083303116","0.1","15","30","64","72","104","-431","-26428","1","150","149.40","113.88","35.52","35.82","21.2","10.24","90588","33.44","DUALSPOT-UV-BLUE-GREEN-RED-IR","851225","739183","907207","0.000000","0.000000","0.000000","805362","921112","764757","0.000000","0.000000","0.000000","897333","921736","813540","0.000000","0.000000","0.000000","886502","946281","866645","0.000000","0.000000","0.000000","742202","860691","950955","0.000000","0.000000","0.000000","","","","","","","","","","","","","","","",""
"MA200-0416","29544","90","1","1.10","1.4","2023-05-28T11:39:30","120","2023/05/28","11:39:30","-15.795596659183502","35.002928333124146","0.1","15","30","64","72","116","-396","-26775","1","150","149.90","114.24","35.66","35.59","21.5","10.25","90588","33.31","DUALSPOT-UV-BLUE-GREEN-RED-IR","846503","735549","903077","0.098358","0.036741","0.000000","801551","917115","761713","0.070810","0.032365","0.000000","899172","923878","815680","0.057763","0.029789","0.000000","881782","941355","862394","0.045353","0.031638","0.000000","744823","863826","954482","0.011762","0.008153","0.000000","5057","6052","5057","4595","6729","4595","4197","6936","4197","3982","8902","3982","1438","3194","1438",""
"MA200-0416","29545","90","1","1.10","1.4","2023-05-28T11:40:00","120","2023/05/28","11:40:00","-15.795596301555634","35.00294933305122","0.3","15","30","64","72","196","-400","-26628","1","150","150.17","113.93","36.25","35.38","21.8","10.28","90584","33.19","DUALSPOT-UV-BLUE-GREEN-RED-IR","848910","737868","906109","0.159285","0.061491","0.000000","803666","919674","764018","0.119090","0.057435","0.000000","896972","921736","813946","0.096761","0.054377","0.000000","885197","945028","865970","0.075984","0.055450","0.000000","743720","862519","953112","0.017108","0.015436","0.000000","3141","4010","3141","3141","5127","3141","2842","5631","2842","2697","6590","2697","655","2806","655",""
"MA200-0416","29546","90","1","1.10","1.4","2023-05-28T11:40:30","120","2023/05/28","11:40:30","-15.795593023300171","35.002903833054006","0.1","15","30","64","72","76","-592","-26256","1","150","150.08","113.92","36.16","35.16","22.0","10.26","90584","33.13","DUALSPOT-UV-BLUE-GREEN-RED-IR","852716","741299","910467","0.190423","0.076848","0.000000","800866","916596","761590","0.146579","0.074823","0.000000","895086","919818","812399","0.119030","0.071865","0.000000","881685","941262","862715","0.096273","0.076693","0.000000","742868","861466","951988","0.015762","0.019350","0.000000","1605","2494","1605","1788","3564","1788","1622","4015","1622","1786","5894","1786","-165","1512","-165",""
"MA200-0416","29547","90","1","1.10","1.4","2023-05-28T11:41:00","120","2023/05/28","11:41:00","-15.795586347579956","35.00290199974552","0.1","15","30","64","71","4","-452","-26803","1","150","149.87","113.34","36.53","34.97","22.2","10.19","90576","32.94","DUALSPOT-UV-BLUE-GREEN-RED-IR","849072","738544","907426","0.269951","0.108625","0.000000","804180","920756","765293","0.209033","0.103725","0.000000","897190","922279","814827","0.169002","0.098752","0.000000","884800","944777","866141","0.135260","0.101077","0.000000","745721","864838","955806","0.030643","0.027043","0.000000","4121","5108","4121","4085","5864","4085","3660","6110","3660","3451","6696","3451","1834","2941","1834",""
"MA200-0416","29548","90","1","1.10","1.4","2023-05-28T11:41:30","120","2023/05/28","11:41:30","-15.795594036579132","35.00289983279072","0.2","15","30","64","71","-36","-388","-25880","1","150","149.63","114.04","35.59","34.80","22.3","10.15","90576","32.88","DUALSPOT-UV-BLUE-GREEN-RED-IR","843855","734613","902938","0.383647","0.146606","0.000000","800131","916631","762100","0.294423","0.136966","0.000000","894662","920115","813131","0.238513","0.128298","0.000000","881352","941368","863266","0.190192","0.129407","0.000000","744351","863427","954334","0.053380","0.036634","0.000000","5855","6268","5855","5550","6924","5550","5060","6892","5060","4832","7986","4832","2785","3764","2785",""
"MA200-0416","29549","90","1","1.10","1.4","2023-05-28T11:42:00","120","2023/05/28","11:42:00","-15.795592486858368","35.00292749982327","0.0","15","30","64","71","104","-360","-26416","1","150","150.03","113.84","36.19","34.63","22.5","10.14","90572","32.81","DUALSPOT-UV-BLUE-GREEN-RED-IR","846796","738295","908124","0.612565","0.221456","0.000000","802366","920151","765469","0.457686","0.194156","0.000000","897242","923502","816549","0.370776","0.177311","0.000000","877495","937797","860348","0.290346","0.172066","0.000000","743278","862418","953413","0.104164","0.055596","0.000000","11810","12149","11810","10631","11716","10631","9645","11245","9645","8826","11827","8826","6231","7320","6231",""
"MA200-0416","29550","90","1","1.10","1.4","2023-05-28T11:42:30","120","2023/05/28","11:42:30","-15.795585691928864","35.00290916627273","0.1","15","30","64","71","56","-452","-26368","1","150","150.16","114.08","36.08","34.48","22.7","10.14","90572","32.69","DUALSPOT-UV-BLUE-GREEN-RED-IR","843470","735675","905116","0.690240","0.247808","0.000000","800092","917777","763682","0.516152","0.218923","0.000000","895645","922014","815395","0.419866","0.201183","0.000000","883067","943847","866085","0.330483","0.194769","0.000000","742562","861632","952567","0.117418","0.062566","0.000000","3999","4290","3999","3799","5088","3799","3572","5493","3572","3529","6313","3529","1622","2698","1622",""
"MA200-0416","29551","90","1","1.10","1.4","2023-05-28T11:43:00","120","2023/05/28","11:43:00","-15.795581638813019","35.002916666679084","0.1","15","30","64","71","-68","-460","-25464","1","150","149.09","114.00","35.08","34.33","22.9","10.13","90572","32.63","DUALSPOT-UV-BLUE-GREEN-RED-IR","846716","738627","908871","0.723720","0.260992","0.000000","796696","914009","760629","0.544571","0.234182","0.000000","892300","918629","812537","0.442397","0.216543","0.000000","876738","937088","860003","0.348085","0.211119","0.000000","740021","858634","949301","0.121335","0.066614","0.000000","1724","2207","1724","1848","3224","1848","1640","3634","1640","1548","4675","1548","480","1611","480",""
"MA200-0416","29552","90","1","1.10","1.4","2023-05-28T11:43:30","120","2023/05/28","11:43:30","-15.795577466487885","35.002923999680206","0.0","15","30","64","71","20","-632","-26780","1","150","149.73","114.29","35.44","34.18","23.0","10.11","90564","32.56","DUALSPOT-UV-BLUE-GREEN-RED-IR","844987","737271","907295","0.753347","0.274959","0.000000","801265","919316","765161","0.567889","0.248683","0.000000","892532","918903","812862","0.461780","0.230443","0.000000","876931","937313","860340","0.365257","0.226485","0.000000","740778","859549","950351","0.122617","0.069263","0.000000","1522","2315","1522","1512","3033","1512","1408","3256","1408","1507","4350","1507","156","1044","156",""
"MA200-0416","29553","90","1","1.10","1.4","2023-05-28T11:44:00","120","2023/05/28","11:44:00","-15.79557490348816","35.002938999794424","0.2","15","30","64","71","-72","-552","-25256","1","150","149.96","113.76","36.20","34.04","23.1","10.06","90568","32.50","DUALSPOT-UV-BLUE-GREEN-RED-IR","841397","734916","904880","0.875936","0.316480","0.000000","798917","917078","763528","0.631403","0.274271","0.000000","895409","922204","815991","0.509321","0.252353","0.000000","881169","942041","864857","0.398308","0.245624","0.000000","744025","863361","954615","0.131931","0.074350","0.000000","6329","6737","6329","4138","5240","4138","3469","5025","3469","2914","5304","2914","1143","1963","1143",""
"MA200-0416","29554","90","1","1.10","1.4","2023-05-28T11:44:30","120","2023/05/28","11:44:30","-15.795544683933258","35.002851999597624","0.2","15","30","64","71","84","-516","-27288","1","150","150.11","113.96","36.15","33.89","23.3","10.04","90564","32.38","DUALSPOT-UV-BLUE-GREEN-RED-IR","844196","738370","909723","1.097186","0.385131","0.000000","795784","914132","761383","0.749212","0.313337","0.000000","893638","920839","815050","0.595253","0.284356","0.000000","879630","940695","863842","0.457948","0.271856","0.000000","743534","862927","954204","0.156343","0.083128","0.000000","11403","11155","11403","7663","8011","7663","6260","7350","6260","5250","7280","5250","2992","3392","2992",""
"MA200-0416","29555","90","1","1.10","1.4","2023-05-28T11:45:00","120","2023/05/28","11:45:00","-15.795550048351288","35.00286183296703","0.0","15","30","64","71","132","-380","-26847","1","150","149.39","113.92","35.46","33.76","23.4","10.02","90564","32.31","DUALSPOT-UV-BLUE-GREEN-RED-IR","840991","736017","907089","1.196836","0.417987","0.000000","799498","918736","765366","0.812000","0.337965","0.000000","891855","919206","813771","0.641995","0.304990","0.000000","876438","937423","861002","0.492501","0.290775","0.000000","742296","861509","952703","0.166887","0.089049","0.000000","5137","5441","5137","4085","5148","4085","3406","4830","3406","3042","5352","3042","1292","2332","1292",""
"MA200-0416","29556","90","1","1.10","1.4","2023-05-28T11:45:30","120","2023/05/28","11:45:30","-15.795561015605927","35.00289299967699","0.0","15","30","64","71","212","-492","-26724","1","150","149.96","114.40","35.56","33.63","23.5","9.98","90564","32.25","DUALSPOT-UV-BLUE-GREEN-RED-IR","836656","732429","902844","1.248325","0.436500","0.000000","796241","915139","762497","0.847059","0.353343","0.000000","893372","920877","815360","0.669956","0.320381","0.000000","878769","939940","863431","0.513327","0.304955","0.000000","739856","858730","949638","0.172407","0.091789","0.000000","2643","3057","2643","2271","3205","2271","2029","3593","2029","1826","4000","1826","674","1076","674",""
"MA200-0416","29557","90","1","1.10","1.4","2023-05-28T11:46:00","120","2023/05/28","11:46:00","-15.79555630683899","35.00289833289571","0.0","15","30","64","71","-7","-388","-24876","1","150","149.90","113.96","35.93","33.49","23.7","9.94","90564","32.19","DUALSPOT-UV-BLUE-GREEN-RED-IR","836042","732376","903031","1.322623","0.461875","0.000000","795817","915033","762604","0.895613","0.373458","0.000000","894426","922189","816723","0.707644","0.338691","0.000000","878982","940339","863973","0.542479","0.322437","0.000000","741124","860184","951319","0.180030","0.097233","0.000000","3829","4147","3829","3158","4149","3158","2745","4230","2745","2566","4880","2566","934","2116","934",""
"MA200-0416","29558","90","1","1.10","1.4","2023-05-28T11:46:30","120","2023/05/28","11:46:30","-15.795553505420685","35.00289733312093","0.1","15","30","64","71","146","-296","-25165","1","150","149.90","114.08","35.81","33.40","23.8","9.93","90564","32.06","DUALSPOT-UV-BLUE-GREEN-RED-IR","839821","736534","908643","1.498728","0.517702","0.000000","793135","912605","760834","1.007878","0.411642","0.000000","891668","919810","814851","0.791353","0.370001","0.000000","875511","936954","861038","0.603348","0.347906","0.000000","744209","863947","955558","0.207986","0.106779","0.000000","9066","9155","9066","7295","7903","7295","6091","7258","6091","5352","7134","5352","3423","3723","3423",""
"MA200-0416","29559","90","1","1.10","1.4","2023-05-28T11:47:00","120","2023/05/28","11:47:00","-15.795574307441711","35.00290783285163","0.0","15","30","64","71","160","-420","-25724","1","150","149.57","114.52","35.05","33.29","23.9","9.91","90560","32.00","DUALSPOT-UV-BLUE-GREEN-RED-IR","835739","733679","905523","1.631880","0.560853","0.000000","796083","916543","764355","1.095813","0.443267","0.000000","890594","919144","814440","0.857323","0.394600","0.000000","881077","943194","867020","0.652045","0.371086","0.000000","743574","863356","955000","0.228330","0.113437","0.000000","6829","7232","6829","5692","6689","5692","4782","5827","4782","4266","6635","4266","2481","2654","2481",""
"MA200-0416","29560","90","1","1.10","1.4","2023-05-28T11:47:30","120","2023/05/28","11:47:30","-15.795579135417938","35.00292849983089","0.0","15","30","64","71","40","-364","-25728","1","150","149.33","114.12","35.20","33.17","24.0","9.88","90560","31.94","DUALSPOT-UV-BLUE-GREEN-RED-IR","832080","731141","902823","1.787878","0.611196","0.000000","793777","914429","762882","1.202047","0.480503","0.000000","888978","917858","813557","0.941401","0.426292","0.000000","879258","941515","865682","0.713038","0.396781","0.000000","742653","862406","954031","0.255273","0.124329","0.000000","8028","8399","8028","6900","7840","6900","6116","7473","6116","5362","7322","5362","3298","4322","3298",""
"MA200-0416","29561","90","1","1.10","1.4","2023-05-28T11:48:00","120","2023/05/28","11:48:00","-15.795568823814392","35.00292683322914","0.1","15","30","64","71","52","-352","-26088","1","150","150.09","114.52","35.58","33.07","24.1","9.85","90564","31.94","DUALSPOT-UV-BLUE-GREEN-RED-IR","837931","736594","909785","1.857982","0.633472","0.000000","796754","918146","766108","1.251316","0.499792","0.000000","892198","921403","816832","0.980287","0.444084","0.000000","875855","937998","862571","0.744175","0.412165","0.000000","741751","861390","952950","0.267316","0.129381","0.000000","3595","3677","3595","3189","4019","3189","2819","4152","2819","2727","4338","2727","1469","1983","1469",""
"MA200-0416","29562","90","1","1.10","1.4","2023-05-28T11:48:30","120","2023/05/28","11:48:30","-15.795563638210297","35.00292033306323","0.0","15","30","64","70","-329","-570","-24687","1","150","150.16","114.08","36.08","32.97","24.2","9.82","90568","31.81","DUALSPOT-UV-BLUE-GREEN-RED-IR","832406","731976","904169","1.906770","0.651477","0.000000","793198","914171","762935","1.286101","0.514650","0.000000","888770","917987","813917","1.008486","0.456690","0.000000","872382","934325","859338","0.765001","0.425457","0.000000","739511","858821","950140","0.274288","0.133811","0.000000","2511","2931","2511","2260","3053","2260","2052","2900","2052","1831","3696","1831","853","1715","853",""
"MA200-0416","29563","90","1","1.10","1.4","2023-05-28T11:49:00","120","2023/05/28","11:49:00","-15.795572996139526","35.002919499529526","0.1","15","30","64","70","56","-440","-25932","1","150","149.59","114.21","35.38","32.88","24.3","9.85","90564","31.75","DUALSPOT-UV-BLUE-GREEN-RED-IR","832260","732189","904686","1.976738","0.675348","0.000000","792875","914103","762997","1.332599","0.531286","0.000000","888572","917971","814027","1.045870","0.472742","0.000000","879811","942454","866904","0.793498","0.439244","0.000000","739781","859166","950574","0.283247","0.138297","0.000000","3598","3962","3598","3018","3485","3018","2717","3766","2717","2503","3909","2503","1095","1771","1095",""
"MA200-0416","29564","90","1","1.10","1.4","2023-05-28T11:49:30","120","2023/05/28","11:49:30","-15.795569360256195","35.002907999558374","0.0","15","30","64","70","-168","-500","-26116","1","150","149.73","114.04","35.69","32.78","24.5","9.86","90560","31.69","DUALSPOT-UV-BLUE-GREEN-RED-IR","836881","736539","910222","2.035424","0.694128","0.000000","791164","912333","761651","1.375347","0.548917","0.000000","887387","916922","813237","1.078748","0.487184","0.000000","877705","940277","865041","0.818753","0.454181","0.000000","739162","858517","949887","0.294319","0.142819","0.000000","3022","3091","3022","2778","3662","2778","2393","3360","2393","2221","4199","2221","1356","1770","1356",""
"MA200-0416","29565","90","1","1.10","1.4","2023-05-28T11:50:00","120","2023/05/28","11:50:00","-15.795569062232971","35.00285949953832","0.4","15","30","64","70","140","-392","-26924","1","150","149.76","114.04","35.72","32.70","24.6","9.86","90560","31.63","DUALSPOT-UV-BLUE-GREEN-RED-IR","835414","735594","909301","2.096906","0.714992","0.000000","789935","911174","760810","1.415467","0.564779","0.000000","891714","921576","817483","1.110315","0.502049","0.000000","874999","937496","862611","0.843709","0.467390","0.000000","743122","863154","955071","0.303974","0.146790","0.000000","3166","3430","3166","2607","3291","2607","2298","3454","2298","2195","3709","2195","1182","1552","1182",""
"MA200-0416","29566","90","1","1.10","1.4","2023-05-28T11:50:30","120","2023/05/28","11:50:30","-15.795557677745819","35.002905833069235","0.9","15","30","64","70","-268","-620","-26028","1","150","150.68","114.57","36.11","32.61","24.8","9.90","90564","31.56","DUALSPOT-UV-BLUE-GREEN-RED-IR","831692","732629","905813","2.171136","0.740852","0.000000","792406","914233","763470","1.453793","0.579668","0.000000","889211","919134","815417","1.140361","0.514912","0.000000","873465","935949","861245","0.866460","0.479430","0.000000","741654","861493","953240","0.312200","0.151038","0.000000","3805","4206","3805","2479","3056","2479","2177","2957","2177","1992","3345","1992","1003","1643","1003",""
"MA200-0416","29567","90","1","1.10","1.4","2023-05-28T11:51:00","120","2023/05/28","11:51:00","-15.795577466487885","35.002899166196585","0.3","15","30","64","70","192","-520","-27168","1","150","150.28","114.50","35.78","32.54","24.9","9.91","90568","31.50","DUALSPOT-UV-BLUE-GREEN-RED-IR","829698","731457","904708","2.249447","0.765852","0.000000","790813","912720","762344","1.495874","0.594533","0.000000","888576","918692","815131","1.170343","0.527703","0.000000","878708","941707","866667","0.887823","0.491684","0.000000","741456","861317","953107","0.318420","0.153662","0.000000","4017","4103","4017","2724","3079","2724","2173","2967","2173","1871","3436","1871","758","1024","758",""
"MA200-0416","29568","90","1","1.10","1.4","2023-05-28T11:51:30","120","2023/05/28","11:51:30","-15.795583188533783","35.00290449964814","0.2","15","30","64","70","120","-358","-26575","1","150","149.76","114.28","35.48","32.45","25.1","9.92","90568","31.50","DUALSPOT-UV-BLUE-GREEN-RED-IR","818015","726899","902317","3.285713","1.090347","0.003835","790411","915379","765611","1.922077","0.717939","0.000000","884602","916699","814129","1.459527","0.610113","0.000000","874656","938821","864539","1.077878","0.544148","0.000000","739873","860143","952040","0.409742","0.176854","0.000000","53260","53714","53939","27647","25782","27647","21008","19282","21008","16685","14833","16685","11163","9130","11163",""
"MA200-0416","29569","90","1","1.10","1.4","2023-05-28T11:52:00","120","2023/05/28","11:52:00","-15.795573472976685","35.002916666679084","0.3","15","30","64","70","-28","-388","-26160","1","150","149.67","114.55","35.12","32.37","25.2","9.94","90568","31.44","DUALSPOT-UV-BLUE-GREEN-RED-IR","819522","731092","909158","3.979711","1.307062","0.006702","787334","913398","764488","2.217233","0.802911","0.000000","882257","915397","813322","1.662182","0.667065","0.000000","872162","936937","863085","1.217681","0.583988","0.000000","738711","859182","951110","0.478918","0.192992","0.000000","35585","36240","36560","19101","17934","19101","14688","13461","14688","12244","11379","12244","8436","6418","8436",""
"MA200-0416","29570","90","1","1.10","1.4","2023-05-28T11:52:30","120","2023/05/28","11:52:30","-15.795515298843384","35.00292683322914","0.4","15","30","64","70","-56","-472","-26716","1","150","150.56","114.28","36.28","32.29","25.3","9.95","90572","31.38","DUALSPOT-UV-BLUE-GREEN-RED-IR","816375","729283","907404","4.189292","1.371719","-0.010417","785876","912244","763763","2.316356","0.834882","0.000000","885436","919087","816783","1.731502","0.689798","0.000000","870538","935443","861875","1.267349","0.601416","0.000000","738133","858649","950573","0.501356","0.199869","0.000000","10771","10468","10321","6430","6533","6430","5035","5202","5035","4360","4820","4360","2742","2648","2742",""
"MA200-0416","29571","90","1","1.10","1.4","2023-05-28T11:53:00","120","2023/05/28","11:53:00","-15.795544028282166","35.00297016627155","0.0","15","30","64","69","112","-408","-26475","1","150","149.70","114.24","35.46","32.22","25.4","9.93","90568","31.31","DUALSPOT-UV-BLUE-GREEN-RED-IR","811084","725388","903072","4.363198","1.427740","0.012222","782062","908383","760759","2.409089","0.865514","0.000000","882503","916406","814587","1.793956","0.711369","0.000000","872369","937678","864059","1.311993","0.618600","0.000000","740064","860980","953199","0.519874","0.204618","0.000000","8941","9280","9444","6017","6404","6017","4538","5050","4538","3920","4862","3920","2264","1871","2264",""
"MA200-0416","29572","90","1","1.10","1.4","2023-05-28T11:53:30","120","2023/05/28","11:53:30","-15.795563161373138","35.00293866638094","0.0","15","30","64","69","59","-400","-26096","1","150","149.76","114.52","35.24","32.15","25.5","9.94","90568","31.25","DUALSPOT-UV-BLUE-GREEN-RED-IR","810085","725025","902950","4.462186","1.460334","0.021100","786483","913963","765613","2.469450","0.885398","0.000000","882799","916990","815276","1.838403","0.728321","0.000000","873557","939128","865535","1.342791","0.631648","0.000000","740930","862057","954480","0.533216","0.209608","0.000000","5076","5431","5604","3907","4182","3907","3222","3993","3222","2698","3714","2698","1627","1977","1627",""
"MA200-0416","29573","90","1","1.10","1.4","2023-05-28T11:54:00","120","2023/05/28","11:54:00","-15.795568525791168","35.00288233277388","0.0","15","30","64","70","-264","-508","-24944","1","150","150.09","114.68","35.42","32.08","25.6","9.94","90560","31.19","DUALSPOT-UV-BLUE-GREEN-RED-IR","811915","729126","909551","4.938019","1.616535","0.017327","782746","911449","764173","2.743030","0.971544","0.000000","880105","915504","814445","2.032685","0.788849","0.000000","871658","938029","864913","1.476949","0.675302","0.000000","739858","861259","953765","0.597881","0.229328","0.000000","24371","25905","26651","17685","18031","17685","14065","14189","14065","11736","12366","11736","7877","7778","7877",""
"MA200-0416","29574","90","1","1.10","1.4","2023-05-28T11:54:30","120","2023/05/28","11:54:30","-15.795567512512207","35.00289299967699","0.1","15","30","64","69","150","-380","-26223","1","150","150.14","114.13","36.02","32.01","25.7","9.96","90560","31.19","DUALSPOT-UV-BLUE-GREEN-RED-IR","805902","725291","905810","5.280628","1.728654","0.009860","778711","907893","761706","2.944845","1.036621","0.000000","876774","912907","812527","2.178609","0.835716","0.000000","866515","933086","860635","1.581263","0.709658","0.000000","737855","859196","951619","0.649202","0.244472","0.000000","17632","18284","18601","13109","13394","13109","10615","10803","10615","9170","9569","9170","6281","5873","6281",""
"MA200-0416","29575","90","1","1.10","1.4","2023-05-28T11:55:00","120","2023/05/28","11:55:00","-15.795573592185974","35.00291633279994","0.2","15","30","64","69","76","-368","-26240","1","150","149.76","114.16","35.60","31.95","25.9","9.97","90560","31.13","DUALSPOT-UV-BLUE-GREEN-RED-IR","803080","724977","906739","5.674444","1.860992","0.018227","777408","908172","762640","3.188670","1.115829","0.018893","879483","917046","816778","2.358163","0.894653","0.000000","865672","933108","861090","1.706278","0.752126","0.000000","737195","858908","951541","0.713825","0.265387","0.000000","20261","21832","22599","15833","16493","16848","13057","13743","13057","10986","11967","10986","7907","8206","7907",""
"MA200-0416","29576","90","1","1.10","1.4","2023-05-28T11:55:30","120","2023/05/28","11:55:30","-15.795571506023407","35.00294699985534","0.3","15","30","64","70","44","-500","-26212","1","150","150.14","114.79","35.35","31.88","25.9","9.96","90560","31.13","DUALSPOT-UV-BLUE-GREEN-RED-IR","798107","722651","905148","6.143748","2.014534","0.013828","778242","911021","765739","3.503448","1.215780","0.012975","877365","916252","816643","2.598608","0.970596","0.000000","871321","940248","868146","1.881682","0.808614","0.000000","736681","858819","951709","0.807121","0.292026","0.000000","24012","25511","26242","20328","20960","21296","17389","17835","17389","15330","16031","15330","11353","10526","11353",""
"MA200-0416","29577","90","1","1.10","1.4","2023-05-28T11:56:00","120","2023/05/28","11:56:00","-15.795624494552612","35.003022332908586","0.3","15","30","64","69","100","-420","-26303","1","150","150.11","114.19","35.92","31.83","26.0","9.93","90556","31.06","DUALSPOT-UV-BLUE-GREEN-RED-IR","794789","720800","903528","6.447450","2.114015","0.008993","776608","910020","765284","3.698331","1.277351","0.001811","874989","914495","815385","2.744585","1.016532","0.000000","868056","937244","865594","1.988703","0.844025","0.000000","735312","857507","950342","0.862922","0.307958","0.000000","15621","16267","16582","12651","12707","12736","10613","10617","10613","9402","9890","9402","6826","6196","6826",""
"MA200-0416","29578","90","1","1.10","1.4","2023-05-28T11:56:30","120","2023/05/28","11:56:30","-15.795596301555634","35.002912333002314","0.0","15","30","64","69","68","-475","-26208","1","150","149.66","114.34","35.32","31.76","26.0","9.89","90556","31.00","DUALSPOT-UV-BLUE-GREEN-RED-IR","799179","725398","909748","6.573333","2.156265","0.017321","774603","908196","763963","3.780585","1.304227","0.021378","874578","914466","815545","2.808165","1.037895","0.000000","867012","936421","865004","2.034121","0.860280","0.000000","735328","857666","950595","0.882158","0.313982","0.000000","6466","7025","7297","5333","5640","5802","4616","5020","4616","3985","4616","3985","2350","2382","2350",""
"MA200-0416","29579","90","1","1.10","1.4","2023-05-28T11:57:00","120","2023/05/28","11:57:00","-15.79560935497284","35.00289516639896","0.3","15","30","64","70","69","-353","-26173","1","150","149.66","114.25","35.41","31.71","26.1","9.89","90556","31.00","DUALSPOT-UV-BLUE-GREEN-RED-IR","794871","723555","908677","6.992348","2.296386","0.015061","771727","906227","762826","4.003883","1.373500","0.000392","873373","914221","815725","2.966279","1.086050","0.000000","865558","935534","864495","2.143824","0.895250","0.000000","734704","857215","950260","0.934406","0.329388","0.000000","21541","23244","24076","14488","14503","14511","11489","11291","11489","9633","9908","9633","6388","6078","6388",""
"MA200-0416","29580","90","1","1.10","1.4","2023-05-28T11:57:30","120","2023/05/28","11:57:30","-15.795634925365448","35.00295566651039","0.1","15","30","64","69","44","-452","-26440","1","150","150.03","114.60","35.43","31.66","26.2","9.92","90556","30.94","DUALSPOT-UV-BLUE-GREEN-RED-IR","793393","722596","907732","7.094874","2.328905","0.005235","771155","905865","762684","4.068333","1.395124","0.028218","871524","912541","814329","3.015464","1.102900","0.048299","862642","932613","861868","2.180165","0.908446","0.000000","737895","861050","954521","0.951660","0.333434","0.000000","5254","5390","5457","4169","4524","4709","3563","3948","4170","3181","3736","3181","2103","1595","2103",""
"MA200-0416","29581","90","1","1.10","1.4","2023-05-28T11:58:00","120","2023/05/28","11:58:00","-15.795626878738403","35.00293583306484","0.0","15","30","64","69","0","-384","-25988","1","150","149.40","114.42","34.98","31.60","26.3","9.94","90556","30.88","DUALSPOT-UV-BLUE-GREEN-RED-IR","789631","719553","904127","7.172474","2.355217","0.019477","768057","902588","760046","4.122698","1.412935","0.023821","873367","914714","816376","3.056794","1.116919","0.048130","858858","928662","858333","2.208948","0.918650","0.000000","736071","858990","952268","0.964134","0.337147","0.000000","3983","4417","4630","3522","3774","3905","2998","3327","3516","2523","2926","2523","1522","1483","1522",""
"MA200-0416","29582","90","1","1.10","1.4","2023-05-28T11:58:30","120","2023/05/28","11:58:30","-15.79566514492035","35.00295466626994","0.2","15","30","64","69","75","-408","-26404","1","150","150.03","114.88","35.15","31.55","26.4","9.93","90548","30.88","DUALSPOT-UV-BLUE-GREEN-RED-IR","789238","719869","905026","7.301363","2.399309","0.020472","772439","908273","765080","4.203504","1.440376","0.034054","869228","910759","813075","3.117156","1.139032","0.076064","868366","939250","868257","2.251553","0.934386","0.000000","737004","860209","953692","0.983133","0.343767","0.000000","6590","7367","7748","5214","5787","6085","4362","5222","5718","3720","4491","3720","2310","2630","2310",""
"MA200-0416","29583","90","1","1.10","1.4","2023-05-28T11:59:00","120","2023/05/28","11:59:00","-15.795632660388947","35.002923499792814","0.5","15","30","64","69","-40","-516","-26275","1","150","149.53","114.64","34.88","31.50","26.5","9.95","90548","30.81","DUALSPOT-UV-BLUE-GREEN-RED-IR","787075","718273","903225","7.393114","2.431095","0.023154","771063","906962","764117","4.263973","1.460708","0.032330","873031","915006","816963","3.164065","1.155203","0.054756","867170","938093","867311","2.285773","0.948053","0.000000","736714","859956","953434","0.998226","0.347956","0.000000","4700","5352","5671","3910","4321","4535","3397","3849","4108","2994","3930","2994","1839","1677","1839",""
"MA200-0416","29584","90","1","1.10","1.4","2023-05-28T11:59:30","120","2023/05/28","11:59:30","-15.795625746250153","35.002926166402176","0.2","15","30","64","69","-128","-435","-25516","1","150","149.66","114.71","34.95","31.45","26.6","9.96","90548","30.75","DUALSPOT-UV-BLUE-GREEN-RED-IR","789490","721589","908114","7.565345","2.489523","0.019119","767755","903977","761955","4.375506","1.496620","0.018165","869471","911936","814525","3.245949","1.182455","0.039063","861899","932890","862710","2.343433","0.968492","0.000000","733781","856766","950015","1.026969","0.356667","0.000000","8818","9819","10310","7207","7617","7830","5926","6473","6787","5043","5867","5043","3500","3481","3500",""
"MA200-0416","29585","90","1","1.10","1.4","2023-05-28T12:00:00","120","2023/05/28","12:00:00","-15.795626044273376","35.0029656663537","0.4","15","30","64","69","288","-472","-27052","1","150","150.30","114.53","35.77","31.40","26.7","9.98","90548","30.75","DUALSPOT-UV-BLUE-GREEN-RED-IR","788792","722457","910207","7.934239","2.614330","0.013946","766798","904120","762597","4.610068","1.572240","0.010161","870024","913514","816331","3.424162","1.239025","0.007363","863399","935208","865182","2.472135","1.008730","0.000000","735285","858865","952535","1.094165","0.377142","0.000000","18917","20495","21271","15182","15673","15928","12918","13131","13252","11273","11287","11273","8195","7997","8195",""
"MA200-0416","29586","90","1","1.10","1.4","2023-05-28T12:00:30","120","2023/05/28","12:00:30","-15.795654654502869","35.00294049968943","0.2","15","30","64","69","-80","-384","-26272","1","150","149.59","114.92","34.67","31.35","26.8","9.97","90540","30.69","DUALSPOT-UV-BLUE-GREEN-RED-IR","786176","720494","908007","8.037858","2.649578","0.019879","765758","903286","762034","4.684472","1.596784","0.026481","867725","911429","814614","3.483939","1.259136","0.043832","860436","932256","862568","2.515921","1.024640","0.000000","733700","857136","950659","1.116895","0.383806","0.000000","5296","5971","6303","4799","5247","5479","4318","4815","5096","3822","4603","3822","2763","2684","2763",""
"MA200-0416","29587","90","1","1.10","1.4","2023-05-28T12:01:00","120","2023/05/28","12:01:00","-15.795614838600159","35.00290899979882","0.2","15","30","64","69","50","-430","-26103","1","150","149.80","114.88","34.92","31.29","26.8","9.97","90536","30.63","DUALSPOT-UV-BLUE-GREEN-RED-IR","784800","719639","907178","8.115312","2.675796","0.017849","764591","902271","761348","4.741323","1.616323","0.034879","867399","911363","814687","3.528004","1.273834","0.037442","859816","931816","862260","2.549230","1.036256","0.000000","733692","857265","950843","1.134199","0.389584","0.000000","3960","4409","4630","3668","4147","4395","3184","3494","3669","2909","3337","2909","2104","2311","2104",""
"MA200-0416","29588","90","1","1.10","1.4","2023-05-28T12:01:30","120","2023/05/28","12:01:30","-15.795604348182678","35.00291333324276","0.2","15","30","64","69","40","-460","-26128","1","150","149.33","114.64","34.69","31.25","26.8","9.94","90536","30.63","DUALSPOT-UV-BLUE-GREEN-RED-IR","780936","717727","905812","8.393473","2.770822","0.019242","766532","906130","765242","4.947293","1.682813","0.018600","864543","909643","813651","3.692799","1.327222","0.026912","863534","936812","867299","2.673362","1.076663","0.000000","736444","860982","955243","1.203537","0.409472","0.000000","14251","16090","16996","13319","14210","14669","11934","12778","13251","10863","11686","10863","8449","8009","8449",""
"MA200-0416","29589","90","1","1.10","1.4","2023-05-28T12:02:00","120","2023/05/28","12:02:00","-15.795614302158356","35.00292766629718","0.0","15","30","64","69","-24","-388","-25924","1","150","149.76","114.92","34.85","31.20","26.9","9.93","90536","30.63","DUALSPOT-UV-BLUE-GREEN-RED-IR","775687","715306","904252","8.821222","2.913253","0.014481","762085","903277","763724","5.270134","1.784563","0.010656","861770","908646","813571","3.955591","1.408683","0.008446","860881","935437","866685","2.872884","1.139718","0.000000","735652","860907","955565","1.320961","0.444829","0.000000","21863","24007","25064","20826","21646","22065","18985","19408","19641","17419","18154","17419","14274","14174","14274",""
"MA200-0416","29590","90","1","1.10","1.4","2023-05-28T12:02:30","120","2023/05/28","12:02:30","-15.795605957508087","35.00288683292456","0.1","15","30","64","69","-12","-560","-26108","1","150","149.33","114.32","35.01","31.16","27.0","9.97","90536","30.56","DUALSPOT-UV-BLUE-GREEN-RED-IR","770064","713350","903944","9.608972","3.180854","0.014626","758160","901915","763945","5.888684","1.982957","0.011342","857686","907163","813415","4.469800","1.568996","0.006088","856802","933339","865680","3.272476","1.262050","-0.000102","733804","860081","955219","1.560827","0.514507","0.000000","40473","44900","47091","40110","42014","42981","37343","38021","38388","35068","35061","35056","29310","27805","29310",""
"MA200-0416","29591","90","1","1.10","1.4","2023-05-28T12:03:00","120","2023/05/28","12:03:00","-15.795624911785126","35.002923832973465","0.2","15","30","64","69","50","-587","-26070","1","150","149.76","114.71","35.05","31.12","27.1","9.98","90540","30.56","DUALSPOT-UV-BLUE-GREEN-RED-IR","773226","717888","910709","9.956808","3.297012","0.012250","755131","900025","762981","6.170819","2.071733","0.006958","859428","910467","816950","4.706091","1.642113","0.004072","853713","931141","864132","3.459397","1.317882","-0.010877","731867","858456","953722","1.673734","0.546006","0.000000","17810","19465","20284","18232","18776","19050","17101","17318","17435","16348","15981","15755","13749","12553","13749",""
"MA200-0416","29592","90","1","1.10","1.4","2023-05-28T12:03:30","120","2023/05/28","12:03:30","-15.795597791671753","35.002879166277125","0.3","15","30","64","69","284","-408","-26375","1","150","149.96","115.08","34.89","31.08","27.2","9.97","90532","30.50","DUALSPOT-UV-BLUE-GREEN-RED-IR","770053","716264","909482","10.240990","3.392053","0.013052","752250","897989","761814","6.403466","2.145856","0.011118","857357","909507","816583","4.905021","1.704656","0.010960","853153","931539","864899","3.618199","1.367527","0.013205","731614","858770","954310","1.771175","0.574138","0.000000","14504","16001","16742","14987","15751","16136","14352","14884","15167","13844","14277","14539","11828","11265","11828",""
"MA200-0416","29593","90","1","1.10","1.4","2023-05-28T12:04:00","120","2023/05/28","12:04:00","-15.79561972618103","35.00290633295663","0.1","15","30","64","68","-100","-440","-26147","1","150","149.70","114.84","34.86","31.04","27.2","9.96","90536","30.50","DUALSPOT-UV-BLUE-GREEN-RED-IR","765632","713264","906397","10.484358","3.473831","0.013151","753144","900251","764248","6.608513","2.211177","0.010463","854077","907078","814850","5.077285","1.757663","0.004032","848779","927651","861659","3.755740","1.409805","0.005261","729375","856702","952227","1.858530","0.596540","0.000000","12447","13778","14438","13236","13890","14219","12453","12624","12714","12016","12167","12258","10626","8977","10626",""
"MA200-0416","29594","90","1","1.10","1.4","2023-05-28T12:04:30","120","2023/05/28","12:04:30","-15.795644700527191","35.00290466612205","0.1","15","30","64","68","-25","-370","-26320","1","150","149.76","114.80","34.97","31.00","27.3","9.98","90536","30.44","DUALSPOT-UV-BLUE-GREEN-RED-IR","763900","713315","907670","10.833189","3.600931","0.020969","752279","901055","765723","6.905387","2.314109","0.024938","852110","906563","815099","5.329788","1.844495","0.030916","846736","926678","861350","3.956877","1.478827","0.042505","728839","856781","952730","1.981035","0.636854","0.000000","17847","21350","23093","19171","21822","23159","18261","20617","21864","17578","19804","21132","14907","16105","14907",""
"MA200-0416","29595","90","1","1.10","1.4","2023-05-28T12:05:00","120","2023/05/28","12:05:00","-15.795624911785126","35.0029009997379","0.0","15","30","64","68","128","-368","-26547","1","150","150.03","114.32","35.71","30.96","27.3","9.96","90532","30.44","DUALSPOT-UV-BLUE-GREEN-RED-IR","761471","711740","906144","11.027647","3.668367","0.012858","750139","899184","764462","7.063703","2.367664","0.015714","851230","906234","815103","5.466545","1.889395","0.013257","852667","933680","868129","4.066980","1.513272","0.000624","728409","856594","952660","2.048065","0.655399","0.000000","9990","11092","11641","10266","11118","11548","9931","10439","10707","9662","9677","9687","8190","7255","8190",""
"MA200-0416","29596","90","1","1.10","1.4","2023-05-28T12:05:30","120","2023/05/28","12:05:30","-15.795633554458618","35.00293616624549","0.1","15","30","64","68","220","-356","-26308","1","150","149.96","114.56","35.40","30.93","27.4","9.95","90532","30.38","DUALSPOT-UV-BLUE-GREEN-RED-IR","759983","710972","905648","11.154436","3.716684","0.023223","749086","898565","764253","7.162122","2.403062","0.027616","849589","905024","814261","5.549365","1.918130","0.028454","850395","931649","866421","4.131189","1.535958","0.044942","727387","855621","951686","2.087091","0.669520","0.000000","6500","8016","8773","6368","7412","7939","6002","6738","7127","5623","6428","6905","4758","5571","4758",""
"MA200-0416","29597","90","1","1.10","1.4","2023-05-28T12:06:00","120","2023/05/28","12:06:00","-15.795600175857544","35.002896999707446","0.2","15","30","64","68","52","-475","-26563","1","150","150.43","115.12","35.31","30.89","27.4","9.91","90536","30.38","DUALSPOT-UV-BLUE-GREEN-RED-IR","757445","709171","903747","11.267138","3.757412","0.018720","747192","896894","763028","7.254335","2.434738","0.021074","848845","904764","814237","5.626887","1.943456","0.016072","850168","931802","866771","4.193242","1.557785","0.045155","727198","855640","951854","2.123621","0.681785","0.000000","5750","6774","7287","5938","6650","7010","5590","5954","6146","5408","6201","6671","4432","4852","4432",""
"MA200-0416","29598","90","1","1.10","1.4","2023-05-28T12:06:30","120","2023/05/28","12:06:30","-15.79559600353241","35.00287599954754","0.4","15","30","64","68","-20","-504","-26263","1","150","149.55","114.44","35.11","30.86","27.4","9.92","90536","30.38","DUALSPOT-UV-BLUE-GREEN-RED-IR","754830","708159","903477","11.569090","3.865047","0.016910","744714","895445","762491","7.496436","2.515895","0.016335","851024","908385","818070","5.829477","2.010690","0.019041","846989","929384","865009","4.354565","1.609831","0.017392","726009","854864","951260","2.221044","0.710327","0.000000","15497","18007","19266","15683","17137","17871","14697","15899","16532","14142","14873","15301","11892","11356","11892",""
"MA200-0416","29599","90","1","1.10","1.4","2023-05-28T12:07:00","120","2023/05/28","12:07:00","-15.795607149600983","35.00287749967538","0.1","15","30","64","68","203","-396","-26384","1","150","150.14","114.50","35.64","30.83","27.5","9.93","90532","30.31","DUALSPOT-UV-BLUE-GREEN-RED-IR","755169","711902","910604","12.167219","4.076568","0.013961","739759","893085","761954","7.971888","2.674419","0.012125","841600","901433","813093","6.229806","2.140808","0.010117","843851","928539","865277","4.671853","1.710563","0.006515","724144","854202","951239","2.419582","0.771444","0.000000","30682","34856","36960","30782","32971","34076","29026","30308","30979","27801","28354","28673","24222","23953","24222",""
"MA200-0416","29600","90","1","1.10","1.4","2023-05-28T12:07:30","120","2023/05/28","12:07:30","-15.795566141605377","35.002872666111216","0.2","15","30","64","68","76","-488","-26512","1","150","150.56","114.92","35.64","30.80","27.6","9.97","90536","30.31","DUALSPOT-UV-BLUE-GREEN-RED-IR","750329","710422","910797","12.974379","4.355081","0.011168","736107","891821","762198","8.624161","2.884861","0.006615","842162","904852","817399","6.792635","2.316266","0.001145","839138","925762","863732","5.132488","1.851141","-0.004996","721781","852833","950390","2.711481","0.854697","0.000000","41255","45899","48245","42078","43772","44623","40662","40872","40981","40215","39572","39210","35483","32631","35483",""
"MA200-0416","29601","90","1","1.10","1.4","2023-05-28T12:08:00","120","2023/05/28","12:08:00","-15.795580983161926","35.002872332930565","0.0","15","30","64","68","268","-344","-26340","1","150","149.73","114.71","35.02","30.76","27.7","9.97","90536","30.31","DUALSPOT-UV-BLUE-GREEN-RED-IR","748059","709036","909561","13.179976","4.423595","0.009194","739272","896526","766544","8.787102","2.936000","0.004610","840424","903732","816696","6.934750","2.360242","0.002923","837134","924169","862457","5.246938","1.883906","-0.020498","720892","852148","949793","2.785032","0.875011","0.000000","10527","11491","11978","10530","10826","10974","10285","10426","10498","10009","9386","9037","8957","8103","8957",""
"MA200-0416","29602","90","1","1.10","1.4","2023-05-28T12:08:30","120","2023/05/28","12:08:30","-15.795593321323395","35.00286166649312","0.1","15","30","64","68","-16","-483","-26347","1","150","149.76","114.68","35.09","30.74","27.7","9.99","90532","30.25","DUALSPOT-UV-BLUE-GREEN-RED-IR","747490","708762","909351","13.233889","4.443205","0.016727","733875","890214","761258","8.833570","2.951343","0.012025","839958","903442","816557","6.976360","2.374339","0.020051","836487","923647","862091","5.283774","1.897245","0.042151","725035","857183","955468","2.808988","0.881788","0.000000","2761","3282","3546","3003","3241","3360","3012","3335","3502","3222","3814","4146","2918","2698","2918",""
"MA200-0416","29603","90","1","1.10","1.4","2023-05-28T12:09:00","120","2023/05/28","12:09:00","-15.795591533184052","35.00289299967699","0.1","15","30","64","68","-28","-464","-25568","1","150","149.83","114.76","35.07","30.72","27.8","10.00","90532","30.25","DUALSPOT-UV-BLUE-GREEN-RED-IR","746080","707584","907990","13.276646","4.458435","0.015025","737602","894945","765424","8.874418","2.967985","0.037581","839168","902788","816035","7.010192","2.386546","0.030666","842099","929985","868091","5.310547","1.906866","0.040519","724501","856690","954937","2.826414","0.886225","0.000000","2188","2550","2733","2638","3517","3959","2447","2889","3117","2340","2751","2982","2121","1767","2121",""
"MA200-0416","29604","90","1","1.10","1.4","2023-05-28T12:09:30","120","2023/05/28","12:09:30","-15.795596957206726","35.0028981664218","0.1","15","30","64","68","64","-435","-26184","1","150","149.57","114.64","34.93","30.72","27.8","10.02","90536","30.25","DUALSPOT-UV-BLUE-GREEN-RED-IR","743742","706429","907248","13.417547","4.509006","0.015759","735582","893629","764776","8.989583","3.003860","0.003634","837912","902438","816097","7.108152","2.417242","0.005823","840201","928700","867220","5.388251","1.931107","0.006682","724142","856736","955205","2.874946","0.899806","0.000000","7219","8504","9155","7447","7614","7698","7094","7296","7400","6800","6963","7054","5914","5431","5914",""
"MA200-0416","29605","90","1","1.10","1.4","2023-05-28T12:10:00","120","2023/05/28","12:10:00","-15.79558128118515","35.00288716633804","0.1","15","30","64","68","59","-244","-26019","1","150","149.70","114.88","34.82","30.70","27.9","10.05","90532","30.25","DUALSPOT-UV-BLUE-GREEN-RED-IR","738491","704178","906401","14.041300","4.736374","0.016674","731256","891124","763824","9.471818","3.166545","0.015318","834582","901295","816172","7.518697","2.551180","0.013773","837083","927307","866803","5.716601","2.035105","0.011408","722408","855872","954869","3.082748","0.964482","0.012186","31892","38352","41641","31119","34635","36401","29670","31934","33097","28676","29964","30677","25269","25947","26255",""
"MA200-0416","29606","90","1","1.10","1.4","2023-05-28T12:10:30","120","2023/05/28","12:10:30","-15.795595824718475","35.00286416639574","0.3","15","30","64","68","64","-456","-26296","1","150","149.80","114.27","35.53","30.66","28.0","10.05","90532","30.19","DUALSPOT-UV-BLUE-GREEN-RED-IR","736031","703030","905711","14.365808","4.851190","0.012004","729604","890325","763623","9.721500","3.248722","0.008321","832644","900247","815669","7.733935","2.618538","0.001272","835971","926986","866876","5.890587","2.088201","-0.004994","721784","855703","954895","3.192562","0.993609","-0.084901","16680","18982","20156","16198","17147","17624","15638","15741","15793","15275","14994","14839","13424","11453","10562",""
"MA200-0416","29607","90","1","1.10","1.4","2023-05-28T12:11:00","120","2023/05/28","12:11:00","-15.795608639717102","35.00281483284198","0.2","15","30","64","68","20","-304","-25272","1","150","149.80","114.69","35.11","30.64","28.0","10.06","90532","30.19","DUALSPOT-UV-BLUE-GREEN-RED-IR","734458","701938","904643","14.471104","4.888130","0.012483","728454","889364","763024","9.805579","3.277320","0.014587","831393","899299","814967","7.806266","2.642053","0.010976","834600","925817","865911","5.949610","2.105164","-0.017569","720740","854716","953867","3.231372","1.003534","-0.097083","5392","6179","6581","5434","6038","6341","5236","5560","5726","5163","4847","4674","4727","3949","3598",""
"MA200-0416","29608","90","1","1.10","1.4","2023-05-28T12:11:30","120","2023/05/28","12:11:30","-15.79561597108841","35.00285149971023","0.1","15","30","64","67","59","-520","-26136","1","150","149.33","114.39","34.95","30.62","28.1","10.08","90532","30.19","DUALSPOT-UV-BLUE-GREEN-RED-IR","732162","700030","902362","14.535591","4.911072","0.013682","726865","887735","761722","9.857944","3.293766","0.004069","829641","897663","813593","7.850320","2.655493","-0.000284","830930","921957","862400","5.986149","2.116483","0.003506","719343","853151","952185","3.253776","1.009561","-0.064395","3311","3855","4133","3393","3488","3535","3197","3192","3190","3204","3249","3273","2736","2409","2262",""
"MA200-0416","29609","90","1","1.10","1.4","2023-05-28T12:12:00","120","2023/05/28","12:12:00","-15.795593321323395","35.00284933298826","0.1","15","30","64","68","-16","-440","-25968","1","150","150.58","114.66","35.92","30.59","28.2","10.10","90528","30.13","DUALSPOT-UV-BLUE-GREEN-RED-IR","732957","700961","903776","14.580774","4.929592","0.021792","727587","888814","762791","9.897163","3.308738","0.024968","829937","898181","814159","7.884454","2.667665","0.021898","832338","923658","864082","6.013903","2.128142","0.057415","719729","853735","952854","3.269981","1.013817","-0.093597","2314","3028","3392","2535","3089","3368","2471","2813","2987","2428","3256","3709","1974","1655","1511",""
"MA200-0416","29610","90","1","1.10","1.4","2023-05-28T12:12:30","120","2023/05/28","12:12:30","-15.795577466487885","35.00285349949263","0.0","15","30","64","67","100","-427","-25756","1","150","149.76","114.96","34.81","30.56","28.2","10.10","0","0.00","DUALSPOT-UV-BLUE-GREEN-RED-IR","732004","700409","903223","14.650314","4.953769","0.012492","726422","887738","761964","9.946712","3.323335","-0.004247","829862","898388","814449","7.925398","2.679979","-0.001288","831893","923421","863914","6.046888","2.136307","-0.064954","719809","854002","953204","3.290441","1.018780","-0.122977","3553","4079","4349","3195","3109","3065","2956","2937","2927","2878","2353","2066","2486","1991","1770",""
"MA200-0416","29611","90","1","1.10","1.4","2023-05-28T12:13:00","120","2023/05/28","12:13:00","-15.795561015605927","35.00286716641858","0.1","15","30","64","67","96","-368","-26252","1","150","149.90","114.32","35.58","30.54","28.3","10.12","0","0.00","DUALSPOT-UV-BLUE-GREEN-RED-IR","735760","704322","908472","14.720407","4.974956","-0.003077","724244","885466","760138","10.006219","3.338297","-0.040483","827761","896412","812744","7.978595","2.693140","-0.056171","829620","921188","861921","6.089704","2.146577","-0.089979","718254","852316","951359","3.316301","1.024250","-0.260534","3601","3497","3445","3858","3117","2746","3863","3071","2667","3757","2896","2427","3159","2147","1695",""
"MA200-0416","29612","90","1","1.10","1.4","2023-05-28T12:13:30","120","2023/05/28","12:13:30","-15.795563161373138","35.002898999489844","0.1","15","30","64","67","36","-384","-26340","1","150","150.03","114.88","35.15","30.52","28.4","10.14","90516","30.13","DUALSPOT-UV-BLUE-GREEN-RED-IR","737138","705831","910540","14.768074","4.992038","0.013913","729623","892246","766042","10.045459","3.350217","-0.001084","828906","897879","814142","8.011150","2.701317","-0.046215","831202","923111","863768","6.114575","2.152997","-0.052088","719678","854049","953361","3.330114","1.026620","-0.521878","2437","2854","3067","2532","2514","2505","2352","1931","1717","2172","1832","1647","1679","942","613",""
"MA200-0416","29613","90","1","1.10","1.4","2023-05-28T12:14:00","120","2023/05/28","12:14:00","-15.795614302158356","35.00294333323836","0.2","15","30","64","67","68","-288","-26188","1","150","149.83","114.56","35.27","30.51","28.4","10.15","90520","30.13","DUALSPOT-UV-BLUE-GREEN-RED-IR","736263","705127","909784","14.800150","5.004032","0.016534","729133","891797","765722","10.070380","3.359289","0.021337","828071","897082","813484","8.033693","2.710044","0.034812","830203","922094","862893","6.133604","2.160114","0.040582","719256","853634","952902","3.341199","1.030091","0.007100","1644","1997","2177","1612","1906","2054","1633","2054","2267","1666","2024","2218","1351","1374","1384",""
"MA200-0416","29614","90","1","1.10","1.4","2023-05-28T12:14:30","120","2023/05/28","12:14:30","-15.795592367649078","35.00294249970466","0.1","15","30","64","67","44","-408","-26480","1","150","149.83","114.60","35.23","30.49","28.5","10.15","90520","30.06","DUALSPOT-UV-BLUE-GREEN-RED-IR","732590","702530","907107","14.983727","5.070333","0.013947","726597","889394","763903","10.173585","3.391433","0.001897","826585","895978","812694","8.109045","2.731639","-0.014044","828199","920229","861254","6.186783","2.174973","-0.026412","717876","852170","951376","3.370058","1.037398","-0.101471","9408","11053","11894","6676","6763","6807","5459","5088","4900","4655","4231","4001","3517","2897","2621",""
"MA200-0416","29615","90","1","1.10","1.4","2023-05-28T12:15:00","120","2023/05/28","12:15:00","-15.795575499534607","35.00291333324276","0.4","15","30","64","67","132","-416","-26184","1","150","150.49","114.49","36.00","30.47","28.5","10.14","90524","30.06","DUALSPOT-UV-BLUE-GREEN-RED-IR","733997","704233","909598","15.084568","5.106796","0.012260","727806","891211","765602","10.234906","3.411163","0.003300","827092","896823","813561","8.157104","2.747792","0.011564","828312","920571","861694","6.221238","2.185183","-0.015629","718545","853112","952457","3.390831","1.041417","-0.368056","5173","5949","6347","3970","4062","4109","3484","3725","3847","3019","2845","2751","2534","1559","1127",""
"MA200-0416","29616","90","1","1.10","1.4","2023-05-28T12:15:30","120","2023/05/28","12:15:30","-15.795579135417938","35.00290499976836","0.2","15","30","64","67","208","-324","-26488","1","150","149.58","114.77","34.81","30.45","28.5","10.14","90520","30.06","DUALSPOT-UV-BLUE-GREEN-RED-IR","732879","703503","908841","15.151550","5.129705","0.010666","726762","890181","764844","10.277737","3.425069","0.009288","831078","901396","817797","8.192289","2.757329","-0.023334","828802","921353","862446","6.248945","2.192086","-0.060815","718422","853117","952498","3.408184","1.045980","-0.069737","3428","3865","4088","2766","2961","3058","2545","2274","2136","2422","1989","1755","2112","1831","1706",""
"MA200-0416","29617","90","1","1.10","1.4","2023-05-28T12:16:00","120","2023/05/28","12:16:00","-15.795619547367096","35.00292749982327","0.1","15","30","64","67","32","-620","-26447","1","150","150.62","114.72","35.91","30.45","28.5","10.16","90524","30.06","DUALSPOT-UV-BLUE-GREEN-RED-IR","730350","701559","906711","15.257690","5.168659","0.013565","724744","888119","763226","10.339851","3.444791","0.002057","829321","899778","816476","8.241588","2.772724","-0.000414","831573","924632","865648","6.284316","2.203190","0.000748","716866","851401","950614","3.428924","1.050587","-0.209886","5434","6372","6852","4013","4072","4101","3567","3559","3555","3093","3102","3107","2525","1792","1468",""
"MA200-0416","29618","90","1","1.10","1.4","2023-05-28T12:16:30","120","2023/05/28","12:16:30","-15.795627534389496","35.00294116628356","0.1","15","30","64","67","44","-239","-25868","1","150","149.99","115.18","34.80","30.42","28.5","10.14","90520","30.06","DUALSPOT-UV-BLUE-GREEN-RED-IR","731299","702992","908903","15.364065","5.206777","0.014286","725872","889831","764857","10.402405","3.465475","0.011900","830032","900868","817587","8.290767","2.788090","0.005888","832992","926438","867438","6.319984","2.213442","-0.012838","717664","852489","951838","3.448742","1.054845","-0.206714","5424","6432","6949","4026","4405","4594","3544","3665","3726","3106","2955","2873","2403","1709","1403",""
"MA200-0416","29619","90","1","1.10","1.4","2023-05-28T12:17:00","120","2023/05/28","12:17:00","-15.795608520507812","35.002925999695435","0.2","15","30","64","67","88","-632","-26684","1","150","150.23","114.80","35.43","30.41","28.6","10.15","90520","30.06","DUALSPOT-UV-BLUE-GREEN-RED-IR","729867","702135","908198","15.480131","5.249651","0.014828","725267","889553","764769","10.469774","3.486271","0.000035","829109","900174","817094","8.341140","2.803236","-0.004841","831949","925528","866685","6.358211","2.225089","-0.003161","717489","852401","951789","3.470247","1.060103","-0.123061","5938","7107","7707","4350","4351","4352","3642","3549","3501","3340","3298","3275","2616","2073","1833",""
"MA200-0416","29620","90","1","1.10","1.4","2023-05-28T12:17:30","120","2023/05/28","12:17:30","-15.795636355876923","35.00289749982767","0.3","15","30","64","67","-88","-524","-26047","1","150","149.47","114.44","35.03","30.39","28.6","10.15","90516","30.00","DUALSPOT-UV-BLUE-GREEN-RED-IR","728627","701357","907682","15.601250","5.300449","0.023025","724515","888922","764505","10.541629","3.517295","0.036161","828361","899595","816786","8.396775","2.826934","0.044206","832141","925893","867225","6.400018","2.243698","0.064296","717027","851930","951434","3.495296","1.071126","0.110668","6216","8517","9701","4654","6565","7522","4036","5616","6418","3665","5329","6227","3057","4395","4986",""
"MA200-0416","29621","90","1","1.10","1.4","2023-05-28T12:18:00","120","2023/05/28","12:18:00","-15.795594453811646","35.0029113329947","0.4","15","30","64","67","116","-244","-26147","1","150","149.40","114.00","35.40","30.38","28.7","10.18","90516","30.00","DUALSPOT-UV-BLUE-GREEN-RED-IR","726671","699991","906270","15.702101","5.342411","0.021659","723046","887511","763440","10.601995","3.541816","0.029844","827518","899024","816401","8.445239","2.847194","0.040635","830668","924522","866028","6.436884","2.260268","0.063417","716314","851237","950706","3.516578","1.079779","0.087805","5196","6962","7873","3925","5135","5742","3529","4751","5373","3244","4696","5482","2607","3415","3772",""
"MA200-0416","29622","90","1","1.10","1.4","2023-05-28T12:18:30","120","2023/05/28","12:18:30","-15.795596480369568","35.00289649958722","0.4","15","30","64","67","40","-540","-26240","1","150","149.63","114.20","35.43","30.36","28.7","10.18","90516","30.00","DUALSPOT-UV-BLUE-GREEN-RED-IR","726196","700381","907373","15.888805","5.408979","0.011612","722261","887199","763430","10.708131","3.574693","-0.000216","827825","899921","817396","8.530147","2.871948","-0.011723","831345","925678","867286","6.497524","2.277177","-0.028401","716994","852272","951940","3.552066","1.088486","-0.121572","9602","11035","11775","6889","6879","6873","6172","5800","5611","5327","4788","4497","4341","3433","3031",""
"MA200-0416","29623","90","1","1.10","1.4","2023-05-28T12:19:00","120","2023/05/28","12:19:00","-15.795673787593842","35.00291116628796","0.7","15","30","64","67","4","-420","-26084","1","150","149.83","114.80","35.03","30.35","28.8","10.21","90516","30.00","DUALSPOT-UV-BLUE-GREEN-RED-IR","724454","699299","906441","16.027996","5.458366","0.012347","721697","887015","763461","10.789727","3.600689","0.005733","826287","898622","816378","8.591164","2.890115","-0.004429","828835","923226","865082","6.545061","2.290332","-0.025569","715858","851121","950732","3.580909","1.094507","-0.233230","7121","8280","8878","5269","5500","5616","4412","4305","4251","4154","3767","3558","3509","2400","1912",""
"MA200-0416","29624","90","1","1.10","1.4","2023-05-28T12:19:30","120","2023/05/28","12:19:30","-15.79568499326706","35.002926166402176","0.1","15","30","64","67","-36","-348","-25644","1","150","149.59","114.63","34.96","30.34","28.8","10.23","90516","30.00","DUALSPOT-UV-BLUE-GREEN-RED-IR","722266","697864","905080","16.185389","5.515562","0.013901","720299","885789","762610","10.877434","3.629776","0.010648","825613","898287","816230","8.658183","2.910232","-0.002838","829439","924192","866143","6.595224","2.304971","-0.010796","715814","851226","950879","3.608821","1.101671","-0.081930","8064","9608","10406","5672","6167","6415","4854","4776","4737","4390","4200","4098","3401","2862","2625",""
"MA200-0416","29625","90","1","1.10","1.4","2023-05-28T12:20:00","120","2023/05/28","12:20:00","-15.795656144618988","35.00288049969822","0.1","15","30","64","67","40","-431","-26480","1","150","149.59","114.79","34.80","30.33","28.9","10.26","90516","30.00","DUALSPOT-UV-BLUE-GREEN-RED-IR","721711","697885","905482","16.308411","5.558641","0.011687","720155","886027","762988","10.947258","3.649789","-0.008112","824783","897695","815843","8.712935","2.927380","0.005466","828139","922985","865056","6.634141","2.314937","-0.047182","719494","855758","956007","3.634050","1.106970","-0.217520","6294","7271","7776","4509","4264","4141","3959","4091","4157","3401","2873","2590","3070","2127","1714",""
"MA200-0416","29626","90","1","1.10","1.4","2023-05-28T12:20:30","120","2023/05/28","12:20:30","-15.79565155506134","35.00292333308607","0.1","15","30","64","67","4","-392","-26356","1","150","149.97","114.50","35.47","30.32","29.0","10.27","90516","29.94","DUALSPOT-UV-BLUE-GREEN-RED-IR","721780","698164","906043","16.375528","5.583622","0.014299","719972","886058","763115","10.990761","3.664226","0.008791","825438","898598","816725","8.746827","2.936732","-0.022501","827840","922802","864976","6.660493","2.323669","0.014513","715349","850922","950653","3.648513","1.110765","-0.077318","3442","4136","4495","2816","3017","3117","2457","2188","2053","2308","2469","2556","1764","1494","1376",""
"MA200-0416","29627","90","1","1.10","1.4","2023-05-28T12:21:00","120","2023/05/28","12:21:00","-15.795624375343323","35.00290949968621","0.1","15","30","64","67","16","-360","-26619","1","150","149.61","114.95","34.65","30.31","29.0","10.26","90508","29.94","DUALSPOT-UV-BLUE-GREEN-RED-IR","721033","697616","905429","16.408319","5.596216","0.017904","719079","885063","762341","11.015350","3.674551","0.033662","824540","897766","816035","8.765638","2.943521","0.026123","828142","923239","865417","6.676200","2.328437","0.001611","715363","850983","950741","3.657913","1.114056","0.051530","1675","2134","2372","1585","2208","2520","1358","1626","1762","1370","1380","1385","1142","1326","1407",""
"MA200-0416","29628","90","1","1.10","1.4","2023-05-28T12:21:30","120","2023/05/28","12:21:30","-15.795608341693878","35.002914666431025","0.1","15","30","64","67","32","-396","-26103","1","150","150.23","114.56","35.67","30.30","29.0","10.27","0","0.00","DUALSPOT-UV-BLUE-GREEN-RED-IR","719733","696650","904395","16.467989","5.619068","0.015717","718697","884829","762230","11.052195","3.686138","0.001350","823984","897350","815741","8.797139","2.954167","0.012958","827556","922744","865012","6.698464","2.334922","-0.016390","719095","855569","955859","3.672689","1.117224","-0.220523","3059","3763","4127","2384","2408","2420","2282","2478","2576","1949","1824","1756","1801","1240","995",""
"MA200-0416","29629","90","1","1.10","1.4","2023-05-28T12:22:00","120","2023/05/28","12:22:00","-15.795557975769043","35.002938999794424","0.7","15","30","64","67","59","-444","-26184","1","150","149.34","114.84","34.50","30.30","29.0","10.27","0","0.00","DUALSPOT-UV-BLUE-GREEN-RED-IR","719500","696681","904686","16.533081","5.644571","0.019105","718335","884645","762187","11.094490","3.700883","0.017486","823562","897060","815585","8.829868","2.965110","0.016453","827292","922616","864961","6.723624","2.343326","0.021777","714803","850524","950292","3.686716","1.121007","-0.046853","3329","4341","4866","2730","3168","3387","2366","2633","2768","2198","2443","2575","1706","1531","1454",""
"MA200-0416","29630","90","1","1.10","1.4","2023-05-28T12:22:30","120","2023/05/28","12:22:30","-15.795500218868256","35.00297016627155","0.3","15","30","64","66","53","-357","-26261","1","150","149.57","114.48","35.09","30.28","29.1","10.31","90508","29.94","DUALSPOT-UV-BLUE-GREEN-RED-IR","718144","695968","904171","16.647364","5.686407","0.013695","717820","884502","762281","11.165327","3.723194","0.003565","823153","897060","815723","8.886570","2.981716","-0.008071","826627","922207","864705","6.764462","2.355980","0.002466","714733","850605","950478","3.711580","1.127481","-0.074226","5863","7003","7595","4587","4713","4777","4112","3929","3836","3578","3618","3639","3034","2577","2378",""
"MA200-0416","29631","90","1","1.10","1.4","2023-05-28T12:23:00","120","2023/05/28","12:23:00","-15.795500874519348","35.0030114997644","0.5","15","30","64","66","0","-441","-26383","1","150","149.94","114.88","35.06","30.27","29.2","10.34","90508","29.94","DUALSPOT-UV-BLUE-GREEN-RED-IR","715274","694355","902960","16.888560","5.772449","0.012090","715379","882533","761018","11.326394","3.775949","0.008738","821659","896295","815405","9.015066","3.022205","0.005165","823520","919441","862389","6.861575","2.383649","-0.016526","713477","849557","949463","3.771787","1.143891","-0.048074","12332","14414","15496","10394","11155","11535","9286","9587","9740","8481","7917","7617","7321","6538","6197",""
"MA200-0416","29632","90","1","1.10","1.4","2023-05-28T12:23:30","120","2023/05/28","12:23:30","-15.795496642589569","35.00293666636571","0.4","15","30","72","66","94","-441","-26180","1","150","150.30","114.42","35.88","30.27","29.2","10.36","90512","29.94","DUALSPOT-UV-BLUE-GREEN-RED-IR","714616","694550","903885","17.118326","5.859106","0.013762","715028","882924","761713","11.493345","3.832317","0.008976","710966","776218","706440","9.154195","3.067648","0.006428","824323","920946","864091","6.972986","2.419323","0.004482","713241","849657","949757","3.842908","1.164225","-0.037726","11794","14185","15429","10816","11646","12061","10095","10514","10726","9768","9974","10084","8683","7916","7583",""
"MA200-0416","29633","90","1","1.10","1.4","2023-05-28T12:24:00","120","2023/05/28","12:24:00","-15.795553624629974","35.00295133306645","0.4","15","30","64","66","-136","-556","-26091","1","150","149.37","115.11","34.27","30.26","29.2","10.37","90504","29.94","DUALSPOT-UV-BLUE-GREEN-RED-IR","714628","694848","904480","17.193022","5.886324","0.014777","715390","883699","762530","11.553703","3.854663","0.023168","820173","895661","815300","9.207070","3.085351","0.017145","823442","920150","863465","7.017188","2.434211","0.023879","717476","854869","955660","3.873418","1.173366","0.002344","3811","4665","5109","3887","4834","5308","3813","4289","4528","3852","4359","4628","3702","3726","3736",""
"MA200-0416","29634","90","1","1.10","1.4","2023-05-28T12:24:30","120","2023/05/28","12:24:30","-15.795616924762726","35.00296499975957","0.3","15","30","64","66","41","-408","-25775","1","150","150.36","114.68","35.68","30.26","29.3","10.39","90504","29.94","DUALSPOT-UV-BLUE-GREEN-RED-IR","714285","694933","904925","17.279274","5.920137","0.016402","710242","877708","757576","11.617517","3.877229","0.014645","820699","896627","816327","9.262646","3.104811","0.017138","823252","920302","863697","7.061148","2.447557","-0.005460","717697","855315","956247","3.902649","1.181415","-0.050588","4417","5566","6164","4125","4688","4970","4023","4528","4782","3845","3752","3703","3560","3151","2973",""
"MA200-0416","29635","90","1","1.10","1.4","2023-05-28T12:25:00","120","2023/05/28","12:25:00","-15.795731127262115","35.002950000111014","0.1","15","30","64","66","268","-636","-27144","1","150","149.59","115.34","34.26","30.25","29.3","10.38","90508","29.94","DUALSPOT-UV-BLUE-GREEN-RED-IR","710583","692086","901733","17.445156","5.980585","0.014713","711813","880367","760139","11.733137","3.916008","0.013848","817720","893934","814119","9.358048","3.135478","0.011766","821124","918391","862134","7.136809","2.471054","0.009135","711584","848299","948537","3.951227","1.195357","-0.012849","8447","10364","11364","7431","8392","8873","6867","7432","7717","6581","6881","7040","5883","5685","5599",""
"MA200-0416","29636","90","1","1.10","1.4","2023-05-28T12:25:30","120","2023/05/28","12:25:30","-15.795630693435669","35.002925666514784","0.1","15","30","64","66","-16","-512","-26344","1","150","149.90","114.64","35.26","30.24","29.3","10.37","90508","29.94","DUALSPOT-UV-BLUE-GREEN-RED-IR","711715","693510","903858","17.541922","6.017862","0.015831","713097","882288","761958","11.802684","3.939350","0.010207","818002","894539","814793","9.415144","3.153777","0.006323","821302","918828","862658","7.182486","2.485550","0.006469","716395","854198","955208","3.981220","1.203846","-0.032381","4957","6210","6863","4497","4907","5113","4134","4309","4396","3997","4124","4192","3654","3363","3237",""
"MA200-0416","29637","90","1","1.10","1.4","2023-05-28T12:26:00","120","2023/05/28","12:26:00","-15.79564219713211","35.00289966608398","0.1","15","30","64","66","12","-435","-26208","1","150","150.23","114.64","35.59","30.23","29.2","10.32","90508","29.94","DUALSPOT-UV-BLUE-GREEN-RED-IR","711476","693355","903751","17.562168","6.026767","0.022107","717149","887380","766405","11.820632","3.946483","0.025065","817795","894415","814717","9.431589","3.160339","0.031844","821864","919524","863319","7.194869","2.490097","0.030385","716364","854194","955226","3.988786","1.205967","-0.040505","1037","1469","1695","1160","1486","1649","1190","1530","1702","1083","1282","1386","922","832","793",""
"MA200-0416","29638","90","1","1.10","1.4","2023-05-28T12:26:30","120","2023/05/28","12:26:30","-15.795648217201233","35.00290199974552","0.2","15","30","64","66","-180","-372","-25736","1","150","150.03","115.47","34.55","30.23","29.1","10.28","90512","29.94","DUALSPOT-UV-BLUE-GREEN-RED-IR","717029","698785","910885","17.573856","6.030403","0.003220","716296","886421","765607","11.834748","3.952474","0.032594","817605","894248","814600","9.444427","3.165310","0.032467","821497","919183","863044","7.205238","2.493948","0.037380","716408","854327","955382","3.995540","1.208180","0.029924","594","617","630","906","1285","1475","923","1194","1331","900","1117","1232","817","894","928",""
"MA200-0416","29639","90","1","1.10","1.4","2023-05-28T12:27:00","120","2023/05/28","12:27:00","-15.795638680458069","35.00292049976997","0.3","15","30","64","66","96","-388","-26280","1","150","150.16","115.31","34.85","30.22","29.0","10.23","90512","29.94","DUALSPOT-UV-BLUE-GREEN-RED-IR","711198","693418","904116","17.624568","6.050636","0.018602","712528","881996","761917","11.870467","3.965236","0.018102","818428","895373","815744","9.472513","3.175341","0.022680","821522","919352","863259","7.225378","2.499795","-0.008822","716455","854483","955571","4.007478","1.210259","-0.385427","2583","3410","3843","2296","2714","2924","2022","2389","2575","1752","1683","1647","1446","833","568",""
"MA200-0416","29640","90","1","1.10","1.4","2023-05-28T12:27:30","120","2023/05/28","12:27:30","-15.795644879341125","35.002950333291665","0.1","15","30","64","66","-16","-496","-26436","1","150","150.23","114.72","35.51","30.22","29.0","10.21","90508","29.94","DUALSPOT-UV-BLUE-GREEN-RED-IR","709048","691457","901674","17.673446","6.068311","0.011544","715185","885414","764944","11.904492","3.977287","0.014963","817151","894073","814619","9.499866","3.184038","0.004135","819360","917051","861133","7.247062","2.506989","0.013655","715231","853088","954038","4.020547","1.213886","-0.043269","2502","2923","3143","2198","2516","2675","1979","2033","2060","1896","2032","2104","1591","1426","1355",""
"MA200-0416","29641","90","1","1.10","1.4","2023-05-28T12:28:00","120","2023/05/28","12:28:00","-15.795638680458069","35.00295216636732","0.1","15","30","64","66","4","-260","-26132","1","150","149.45","114.80","34.65","30.21","28.9","10.17","90500","29.88","DUALSPOT-UV-BLUE-GREEN-RED-IR","710205","692709","903406","17.702040","6.079612","0.018099","711430","880925","761116","11.926373","3.985489","0.022346","817602","894686","815267","9.521049","3.191935","0.027450","821275","919269","863269","7.260118","2.511662","0.030484","716459","854595","955743","4.029771","1.217112","0.046014","1462","1915","2152","1412","1754","1926","1532","1892","2074","1141","1353","1465","1122","1300","1377",""
"MA200-0416","29642","90","1","1.10","1.4","2023-05-28T12:28:30","120","2023/05/28","12:28:30","-15.79560101032257","35.00291866646148","0.1","15","30","64","66","20","-468","-26091","1","150","149.94","114.63","35.31","30.20","28.9","10.14","90500","29.94","DUALSPOT-UV-BLUE-GREEN-RED-IR","709154","691775","902275","17.725908","6.089435","0.019099","715374","885917","765478","11.946486","3.992290","0.010719","817036","894183","814839","9.537590","3.198242","0.027627","821267","919332","863381","7.274378","2.517259","0.040609","716233","854344","955512","4.037164","1.219459","0.010403","1223","1633","1849","1300","1427","1491","1197","1482","1626","1248","1590","1771","900","928","940",""
"MA200-0416","29643","90","1","1.10","1.4","2023-05-28T12:29:00","120","2023/05/28","12:29:00","-15.795560002326965","35.00291333324276","0.2","15","30","64","65","28","-464","-26196","1","150","149.63","114.64","34.99","30.19","28.9","10.13","90496","29.94","DUALSPOT-UV-BLUE-GREEN-RED-IR","707691","690422","900564","17.744170","6.095754","0.009533","713661","883854","763773","11.963633","3.999420","0.029446","815698","892807","813615","9.552336","3.202200","-0.023233","819005","916880","861105","7.285495","2.520590","-0.003919","714991","852903","953918","4.044813","1.221258","-0.121169","935","1060","1126","1108","1510","1711","1067","939","873","972","955","945","932","718","625",""
"MA200-0416","29644","90","1","1.10","1.4","2023-05-28T12:29:30","120","2023/05/28","12:29:30","-15.795563995838165","35.0029043329414","0.1","15","30","64","66","-44","-431","-26032","1","150","150.23","114.60","35.63","30.18","28.9","10.14","90496","29.88","DUALSPOT-UV-BLUE-GREEN-RED-IR","715618","698217","910803","17.758278","6.102468","0.025174","715230","885914","765583","11.977411","4.003961","0.006916","816364","893573","814335","9.563262","3.206503","0.029952","820140","918168","862366","7.294143","2.523636","0.023144","715785","853904","955038","4.048835","1.222405","-0.033156","723","1106","1307","891","944","971","791","1002","1109","757","857","910","490","449","432",""
"MA200-0416","29645","90","1","1.10","1.4","2023-05-28T12:30:00","120","2023/05/28","12:30:00","-15.795602142810822","35.00288383313455","0.3","15","30","64","65","52","-356","-26219","1","150","149.96","114.64","35.32","30.17","28.9","10.11","90496","29.88","DUALSPOT-UV-BLUE-GREEN-RED-IR","709076","691862","902524","17.768052","6.107099","0.025349","714855","885473","765247","11.989189","4.009081","0.031836","816909","894217","814987","9.573579","3.211909","0.053607","826430","925290","869066","7.302304","2.527833","0.069245","716095","854281","955460","4.051134","1.223032","-0.048817","500","770","911","761","1074","1231","747","1270","1534","714","1191","1444","280","247","233",""
"MA200-0416","29646","90","1","1.10","1.4","2023-05-28T12:30:30","120","2023/05/28","12:30:30","-15.795639336109161","35.00293749966659","0.2","15","30","64","66","172","-420","-26544","1","150","149.66","114.88","34.78","30.16","28.9","10.10","90492","29.88","DUALSPOT-UV-BLUE-GREEN-RED-IR","715088","697804","910378","17.783666","6.113664","0.020912","714799","885490","765284","12.002588","4.014541","0.028486","816238","893596","814432","9.586251","3.215479","-0.012164","825513","924313","868194","7.310528","2.530246","-0.006728","715570","853704","954848","4.057619","1.225018","0.004061","798","1108","1271","864","1163","1313","915","852","820","718","696","684","788","797","801",""
"MA200-0416","29647","90","1","1.10","1.4","2023-05-28T12:31:00","120","2023/05/28","12:31:00","-15.795596659183502","35.00293349986896","0.3","15","30","64","66","196","-412","-26684","1","150","150.49","114.68","35.81","30.15","28.9","10.10","90492","29.88","DUALSPOT-UV-BLUE-GREEN-RED-IR","713726","696688","909094","17.831586","6.131305","0.012020","714011","884707","764733","12.031985","4.024465","0.009036","815441","892847","813800","9.609950","3.222817","-0.001331","824895","923747","867670","7.326587","2.535325","0.002616","715134","853223","954312","4.064603","1.226299","-0.355575","2454","2893","3123","1900","2054","2132","1715","1701","1693","1404","1422","1432","850","499","347",""
"MA200-0416","29648","90","1","1.10","1.4","2023-05-28T12:31:30","120","2023/05/28","12:31:30","-15.795551657676697","35.0029224997852","0.0","15","30","64","65","104","-380","-26063","1","150","149.61","114.72","34.88","30.15","28.9","10.07","90492","29.88","DUALSPOT-UV-BLUE-GREEN-RED-IR","714134","697267","910001","17.879714","6.150671","0.018471","713832","884635","764717","12.062297","4.035432","0.018416","815983","893575","814572","9.632409","3.231048","0.024514","820016","918355","862690","7.344081","2.542787","0.051931","715701","853941","955183","4.075893","1.230311","0.047786","2463","3260","3678","1958","2330","2518","1625","1959","2127","1529","2146","2473","1374","1606","1707",""
"MA200-0416","29649","90","1","1.10","1.4","2023-05-28T12:32:00","120","2023/05/28","12:32:00","-15.795604825019836","35.00289983279072","0.3","15","30","64","65","-32","-404","-25980","1","150","150.70","115.09","35.61","30.12","28.8","10.03","90488","29.88","DUALSPOT-UV-BLUE-GREEN-RED-IR","713704","696940","909629","17.898976","6.158869","0.020333","713955","884901","764986","12.078606","4.041803","0.023419","815208","892791","813879","9.646338","3.237265","0.041429","824847","923823","867845","7.353838","2.545499","-0.025062","714868","852978","954130","4.081323","1.231872","-0.027718","983","1352","1545","1050","1326","1464","1004","1449","1673","850","764","718","659","612","592",""
"MA200-0416","29650","90","1","1.10","1.4","2023-05-28T12:32:30","120","2023/05/28","12:32:30","-15.795613467693329","35.002923999680206","0.2","15","30","64","65","0","-488","-26384","1","150","149.86","114.34","35.51","30.12","28.8","10.01","90484","29.88","DUALSPOT-UV-BLUE-GREEN-RED-IR","712664","695978","908444","17.913168","6.163784","0.008331","713231","884064","764313","12.093870","4.047746","0.022823","815426","893107","814206","9.660447","3.241515","-0.004929","825000","924026","868073","7.365076","2.549487","0.024276","715302","853549","954764","4.086191","1.233432","0.010732","729","812","856","989","1240","1366","1024","993","977","986","1126","1200","594","613","621",""
"MA200-0416","29651","90","1","1.10","1.4","2023-05-28T12:33:00","120","2023/05/28","12:33:00","-15.795564949512482","35.00296483305283","0.3","15","30","64","65","-72","-384","-25891","1","150","149.83","114.88","34.95","30.11","28.8","10.00","90484","29.88","DUALSPOT-UV-BLUE-GREEN-RED-IR","713516","696901","909678","17.929550","6.169512","0.010331","713705","884784","764936","12.107489","4.051078","-0.034509","815319","893054","814209","9.673101","3.246247","0.026505","824333","923365","867462","7.373330","2.551740","-0.025302","715024","853231","954414","4.090568","1.234246","-0.307872","837","962","1028","878","706","619","914","1124","1229","720","646","607","532","325","235",""
"MA200-0416","29652","90","1","1.10","1.4","2023-05-28T12:33:30","120","2023/05/28","12:33:30","-15.795538663864136","35.00292433309369","0.1","15","30","64","65","88","-452","-26196","1","150","149.76","114.88","34.89","30.10","28.8","10.00","90488","29.88","DUALSPOT-UV-BLUE-GREEN-RED-IR","712348","695912","908560","17.969312","6.185745","0.019161","712711","883675","764137","12.135932","4.062248","0.025207","814910","892785","814013","9.694886","3.253394","0.011115","824576","923729","867858","7.389677","2.557974","0.038063","715152","853476","954704","4.101657","1.237272","-0.041440","2033","2733","3100","1835","2373","2644","1574","1700","1764","1427","1792","1986","1348","1211","1152",""
"MA200-0416","29653","90","1","1.10","1.4","2023-05-28T12:34:00","120","2023/05/28","12:34:00","-15.79552936553955","35.00289983279072","0.3","15","30","64","65","-56","-536","-26068","1","150","149.56","114.75","34.80","30.10","28.8","10.01","90484","29.88","DUALSPOT-UV-BLUE-GREEN-RED-IR","711719","695565","908276","18.012866","6.200964","0.010450","712241","883297","763847","12.165866","4.072309","0.011497","814565","892569","813880","9.718484","3.261375","0.015199","824754","924078","868250","7.406967","2.563614","0.013923","714978","853351","954579","4.110014","1.238699","-0.406602","2229","2568","2746","1933","2143","2248","1707","1903","2003","1511","1625","1685","1017","572","380",""
"MA200-0416","29654","90","1","1.10","1.4","2023-05-28T12:34:30","120","2023/05/28","12:34:30","-15.795571029186249","35.00288966624066","0.1","15","30","64","65","64","-380","-26212","1","150","149.83","114.64","35.19","30.09","28.9","10.03","90484","29.88","DUALSPOT-UV-BLUE-GREEN-RED-IR","710846","695434","908745","18.175250","6.264053","0.015869","712013","883586","764360","12.255787","4.102369","0.009622","813649","891987","813537","9.786022","3.282326","0.001596","822933","922361","866755","7.454299","2.578127","-0.000221","714297","852686","953921","4.136402","1.246861","0.002617","8319","10529","11692","5814","6332","6592","4891","4942","4968","4142","4137","4135","3215","3240","3250",""
"MA200-0416","29655","90","1","1.10","1.4","2023-05-28T12:35:00","120","2023/05/28","12:35:00","-15.795617759227753","35.002914499724284","0.0","15","30","64","65","-140","-580","-26032","1","150","150.01","114.92","35.09","30.08","28.9","10.06","90480","29.81","DUALSPOT-UV-BLUE-GREEN-RED-IR","709661","695008","908717","18.332658","6.320936","0.011937","710795","882606","763765","12.346469","4.131973","0.007636","813348","892085","813828","9.855793","3.303557","-0.000520","823252","923021","867503","7.502144","2.591347","-0.022631","714416","853021","954373","4.164346","1.254489","-0.042956","8045","9522","10299","5849","6254","6458","5040","5023","5014","4177","3780","3570","3396","3036","2881",""
"MA200-0416","29656","90","1","1.10","1.4","2023-05-28T12:35:30","120","2023/05/28","12:35:30","-15.79558402299881","35.002964166458696","0.4","15","30","64","65","-272","-608","-24732","1","150","150.14","114.92","35.23","30.08","29.0","10.10","90480","29.81","DUALSPOT-UV-BLUE-GREEN-RED-IR","708201","694434","908667","18.526012","6.395529","0.015281","710596","883015","764367","12.449346","4.166706","0.010622","816509","896080","817655","9.934227","3.329676","0.011575","821935","921948","866630","7.557676","2.607626","-0.009468","713818","852509","953873","4.195925","1.262545","-0.075192","9882","12437","13784","6636","7309","7647","5666","6155","6402","4848","4636","4524","3838","3195","2917",""
"MA200-0416","29657","90","1","1.10","1.4","2023-05-28T12:36:00","120","2023/05/28","12:36:00","-15.79562783241272","35.002983999671414","0.1","15","30","64","64","-2","-530","-26158","1","150","149.66","114.59","35.07","30.07","29.1","10.11","90484","29.81","DUALSPOT-UV-BLUE-GREEN-RED-IR","704884","691981","906118","18.731378","6.473903","0.014619","708238","880691","762633","12.565546","4.204965","0.008127","814669","894550","816493","10.022674","3.355866","-0.005148","819627","919747","864746","7.625150","2.627569","-0.007260","712336","850984","952257","4.237688","1.273135","-0.076715","10526","13124","14496","7517","8086","8372","6408","6199","6094","5907","5704","5597","5091","4217","3842",""
"MA200-0416","29658","90","1","1.10","1.4","2023-05-28T12:36:30","120","2023/05/28","12:36:30","-15.795662701129913","35.00300383311696","0.2","15","30","64","64","-58","-295","-26233","1","150","149.53","114.59","34.94","30.07","29.1","10.13","0","0.00","DUALSPOT-UV-BLUE-GREEN-RED-IR","703229","691161","905721","18.914288","6.543924","0.014850","707115","879933","762247","12.669189","4.239530","0.009744","814040","894418","816583","10.104921","3.382849","0.010137","818867","919294","864497","7.687081","2.645522","-0.010577","712265","851142","952526","4.277292","1.284276","-0.029102","9375","11770","13037","6705","7333","7649","5959","6411","6639","5422","5155","5014","4828","4454","4293",""
"MA200-0416","29659","90","1","1.10","1.4","2023-05-28T12:37:00","120","2023/05/28","12:37:00","-15.795661866664886","35.00300016673282","0.1","15","30","64","64","56","-460","-26672","1","150","149.87","114.63","35.24","30.06","29.1","10.14","0","0.00","DUALSPOT-UV-BLUE-GREEN-RED-IR","701938","690540","905413","19.077538","6.608087","0.015659","706373","879516","762139","12.762767","4.273058","0.015603","813212","893869","816270","10.177844","3.407221","0.011377","818207","918863","864213","7.739204","2.662796","0.013724","711821","850809","952236","4.308477","1.291172","-0.155284","8365","10694","11928","6051","7052","7556","5281","5741","5973","4562","4917","5104","3800","2733","2277",""
"MA200-0416","29660","90","1","1.10","1.4","2023-05-28T12:37:30","120","2023/05/28","12:37:30","-15.795766532421112","35.00302016641945","0.4","15","30","64","65","-56","-316","-26032","1","150","149.80","114.76","35.03","30.05","29.2","10.17","90480","29.81","DUALSPOT-UV-BLUE-GREEN-RED-IR","703323","692371","908208","19.192152","6.652019","0.014654","707683","881531","764017","12.830484","4.296900","0.014605","810201","890897","813655","10.230323","3.423685","0.003905","820148","921294","866606","7.779514","2.674764","-0.005590","713222","852638","954348","4.332769","1.297802","-0.041115","5865","7365","8161","4374","5045","5383","3796","3901","3954","3523","3427","3377","2956","2643","2509",""
"MA200-0416","29661","90","1","1.10","1.4","2023-05-28T12:38:00","120","2023/05/28","12:38:00","-15.795765221118927","35.00302266632207","0.0","15","30","64","65","-180","-448","-25684","1","150","150.29","114.92","35.38","30.05","29.2","10.19","90480","29.81","DUALSPOT-UV-BLUE-GREEN-RED-IR","702667","692019","907944","19.266746","6.679390","0.011786","707246","881237","763856","12.878432","4.311836","0.001370","809741","890554","813452","10.268818","3.436535","0.010968","819625","920862","866248","7.807820","2.684068","0.011995","712929","852400","954145","4.350889","1.302848","-0.036153","3812","4544","4932","3093","3130","3148","2781","3015","3134","2471","2638","2726","2202","1992","1903",""
"MA200-0416","29662","90","1","1.10","1.4","2023-05-28T12:38:30","120","2023/05/28","12:38:30","-15.795779407024384","35.003004499711096","0.1","15","30","64","65","76","-456","-26652","1","150","149.73","115.03","34.70","30.04","29.3","10.20","90480","29.81","DUALSPOT-UV-BLUE-GREEN-RED-IR","702032","691641","907651","19.322938","6.701799","0.017086","706494","880502","763375","12.916085","4.325897","0.020393","809978","891024","813977","10.299156","3.446495","0.011353","820260","921748","867151","7.830350","2.690381","-0.015580","713247","852860","954685","4.365232","1.306823","-0.030116","2869","3792","4283","2426","3003","3294","2189","2382","2479","1965","1824","1751","1741","1600","1539",""
"MA200-0416","29663","90","1","1.10","1.4","2023-05-28T12:39:00","120","2023/05/28","12:39:00","-15.795770645141602","35.00301799969748","0.0","15","30","64","65","228","-456","-27172","1","150","149.86","114.80","35.06","30.03","29.4","10.23","90480","29.81","DUALSPOT-UV-BLUE-GREEN-RED-IR","702032","691899","908237","19.385738","6.727009","0.016768","706477","880741","763691","12.956201","4.340774","0.018821","809724","890930","813989","10.331302","3.457623","0.016190","819322","920844","866349","7.854473","2.698457","0.016303","712663","852219","954017","4.376898","1.309186","-0.211446","3213","4223","4760","2590","3145","3425","2324","2635","2791","2108","2311","2417","1419","941","737",""
"MA200-0416","29664","90","1","1.10","1.4","2023-05-28T12:39:30","120","2023/05/28","12:39:30","-15.795742690563202","35.00302099948749","0.1","15","30","64","64","215","-336","-27184","1","150","150.01","114.75","35.25","30.03","29.4","10.23","90480","29.81","DUALSPOT-UV-BLUE-GREEN-RED-IR","699463","689525","905268","19.432416","6.745506","0.015825","704801","878775","762058","12.989228","4.351366","0.004759","811588","893109","816037","10.357764","3.465747","-0.000096","816279","917529","863324","7.875223","2.704024","-0.030362","710938","850252","951848","4.391178","1.314430","0.049651","2389","3081","3450","2133","2227","2274","1914","1913","1912","1814","1584","1464","1738","2078","2223",""
"MA200-0416","29665","90","1","1.10","1.4","2023-05-28T12:40:00","120","2023/05/28","12:40:00","-15.795668363571167","35.003015499794856","0.1","15","30","64","65","228","-404","-26616","1","150","150.01","114.46","35.55","30.02","29.4","10.22","90480","29.81","DUALSPOT-UV-BLUE-GREEN-RED-IR","701078","691237","907640","19.461380","6.756536","0.013225","705861","880239","763398","13.014341","4.360521","0.015932","812906","894697","817552","10.378096","3.474039","0.030844","819094","920790","866422","7.891046","2.710569","0.042549","712322","851980","953781","4.401603","1.316566","-0.214277","1486","1822","2001","1626","1909","2051","1474","1936","2168","1386","1847","2088","1272","839","654",""
"MA200-0416","29666","90","1","1.10","1.4","2023-05-28T12:40:30","120","2023/05/28","12:40:30","-15.795659065246582","35.003004333237186","0.2","15","30","64","64","-332","-424","-25312","1","150","150.29","114.88","35.42","30.01","29.4","10.21","90480","29.75","DUALSPOT-UV-BLUE-GREEN-RED-IR","700559","690879","907272","19.498154","6.771187","0.015862","705552","880014","763285","13.041393","4.369505","0.007965","808282","889734","813093","10.401224","3.481072","-0.002009","818338","920021","865761","7.908437","2.715433","-0.020811","712176","851876","953675","4.412027","1.318568","-0.263737","1880","2429","2722","1745","1880","1948","1671","1648","1637","1518","1377","1304","1267","789","585",""
"MA200-0416","29667","90","1","1.10","1.4","2023-05-28T12:41:00","120","2023/05/28","12:41:00","-15.795660316944122","35.00300500006415","0.1","15","30","64","64","48","-396","-26456","1","150","149.51","114.84","34.67","30.00","29.4","10.20","90480","29.81","DUALSPOT-UV-BLUE-GREEN-RED-IR","700254","690725","907175","19.528678","6.781582","0.008397","705577","880210","763484","13.066234","4.379154","0.023069","812092","894093","817138","10.421996","3.487772","0.008944","817589","919293","865108","7.924202","2.720564","0.013430","711843","851509","953320","4.421741","1.322224","0.058893","1561","1761","1867","1603","2063","2295","1501","1604","1656","1377","1485","1541","1181","1473","1597",""
"MA200-0416","29668","90","1","1.10","1.4","2023-05-28T12:41:30","120","2023/05/28","12:41:30","-15.795630812644958","35.00299166631885","0.1","15","30","64","64","208","-300","-26072","1","150","149.95","114.44","35.51","30.00","29.4","10.22","90472","29.75","DUALSPOT-UV-BLUE-GREEN-RED-IR","699939","690556","907039","19.559106","6.794159","0.017247","705118","879788","763217","13.091208","4.387922","0.012617","812273","894384","817454","10.442327","3.494721","0.012692","817248","919030","864886","7.940173","2.726525","0.029731","712012","851784","953624","4.431864","1.324132","-0.286643","1561","2080","2356","1617","1830","1937","1475","1624","1700","1400","1684","1832","1235","750","544",""
"MA200-0416","29669","90","1","1.10","1.4","2023-05-28T12:42:00","120","2023/05/28","12:42:00","-15.79556655883789","35.00297133275308","0.3","15","30","64","64","-68","-340","-25272","1","150","149.86","114.95","34.91","29.98","29.4","10.21","90476","29.81","DUALSPOT-UV-BLUE-GREEN-RED-IR","699421","690119","906620","19.582376","6.803209","0.015365","704873","879548","763066","13.108901","4.394480","0.018996","811591","893729","816899","10.459256","3.500759","0.019873","817379","919256","865175","7.954328","2.731341","0.019489","711409","851107","952919","4.440471","1.328537","0.111312","1188","1522","1700","1140","1392","1519","1222","1436","1543","1235","1384","1462","1046","1762","2068",""
"MA200-0416","29670","90","1","1.10","1.4","2023-05-28T12:42:30","120","2023/05/28","12:42:30","-15.795618236064911","35.00295849982649","0.1","15","30","64","64","-116","-388","-26208","1","150","150.16","114.76","35.40","29.98","29.4","10.21","90472","29.81","DUALSPOT-UV-BLUE-GREEN-RED-IR","699462","690307","906920","19.613328","6.816126","0.017892","704318","878980","762640","13.131434","4.403026","0.019546","811733","893993","817197","10.476775","3.507429","0.024848","817952","919964","865867","7.966429","2.735317","0.011307","711965","851835","953759","4.447788","1.329884","-0.304036","1584","2142","2440","1455","1789","1958","1267","1564","1713","1057","1126","1162","890","531","378",""
"MA200-0416","29671","90","1","1.10","1.4","2023-05-28T12:43:00","120","2023/05/28","12:43:00","-15.795645713806152","35.00298466626555","0.1","15","30","64","64","188","-356","-26447","1","150","149.63","114.64","34.99","29.97","29.4","10.23","90468","29.75","DUALSPOT-UV-BLUE-GREEN-RED-IR","698968","689950","906592","19.645728","6.828373","0.013619","704595","879504","763117","13.153290","4.409082","-0.012250","811232","893586","816855","10.495222","3.512048","-0.035222","817118","919143","865122","7.979188","2.738631","-0.036796","711307","851076","952927","4.455291","1.331554","-0.141352","1660","2055","2266","1413","1282","1217","1335","1096","975","1116","950","863","914","666","561",""
"MA200-0416","29672","90","1","1.10","1.4","2023-05-28T12:43:30","120","2023/05/28","12:43:30","-15.795637011528015","35.002975333016366","0.2","15","30","64","64","-160","-376","-25428","1","150","149.73","114.92","34.82","29.97","29.5","10.25","90464","29.75","DUALSPOT-UV-BLUE-GREEN-RED-IR","698977","690163","907031","19.694998","6.846657","0.013013","704464","879466","763166","13.179836","4.418142","0.012124","811810","894325","817591","10.515882","3.519546","0.021799","817225","919335","865316","7.993716","2.743416","0.014686","711630","851517","953432","4.463407","1.334008","-0.000666","2518","3084","3386","1712","1929","2038","1492","1787","1936","1268","1379","1437","986","984","983",""
"MA200-0416","29673","90","1","1.10","1.4","2023-05-28T12:44:00","120","2023/05/28","12:44:00","-15.795676052570343","35.002981666242704","0.2","16","30","64","64","156","-184","-26140","1","150","149.76","114.64","35.13","29.96","29.5","10.26","90472","29.81","DUALSPOT-UV-BLUE-GREEN-RED-IR","698155","689462","906179","19.719984","6.855724","0.011175","703512","878372","762281","13.200383","4.425752","0.018117","811286","893799","817167","10.533315","3.525125","0.005946","816859","919013","865069","8.007059","2.747970","0.018448","711638","851577","953503","4.471277","1.335759","-0.143300","1280","1516","1642","1328","1606","1746","1262","1318","1346","1167","1300","1370","958","696","584",""
"MA200-0416","29674","90","1","1.10","1.4","2023-05-28T12:44:30","120","2023/05/28","12:44:30","-15.795614004135132","35.00302999978885","0.4","16","30","64","64","-15","-384","-26050","1","150","149.83","114.28","35.55","29.95","29.5","10.25","90468","29.75","DUALSPOT-UV-BLUE-GREEN-RED-IR","696312","687708","903921","19.736464","6.862652","0.017738","702421","877078","761207","13.215961","4.431154","0.011116","809616","892052","815615","10.547075","3.531336","0.038308","814579","916519","862738","8.016022","2.750891","0.008415","710063","849735","951437","4.477751","1.338028","0.034169","846","1144","1303","1010","1126","1184","999","1450","1677","786","824","843","791","891","934",""
"MA200-0416","29675","90","1","1.10","1.4","2023-05-28T12:45:00","120","2023/05/28","12:45:00","-15.79556280374527","35.003064833115786","0.5","16","30","64","64","200","-257","-26292","1","150","150.21","115.04","35.17","29.95","29.5","10.25","90468","29.75","DUALSPOT-UV-BLUE-GREEN-RED-IR","697774","689263","906107","19.765050","6.876911","0.024894","703687","878774","762741","13.236012","4.441072","0.036408","810544","893174","816697","10.562040","3.537768","0.035883","816105","918251","864457","8.028661","2.757549","0.065289","710979","850879","952793","4.485035","1.341443","0.096373","1459","2381","2873","1292","2090","2493","1079","1518","1738","1102","1899","2316","884","1356","1557",""
"MA200-0416","29676","90","1","1.10","1.4","2023-05-28T12:45:30","120","2023/05/28","12:45:30","-15.795652031898499","35.00311416666955","0.4","16","30","64","64","176","-576","-27684","1","150","149.91","115.01","34.90","29.94","29.5","10.24","90468","29.75","DUALSPOT-UV-BLUE-GREEN-RED-IR","696921","688445","905115","19.783718","6.885044","0.020247","702786","877748","761872","13.251145","4.447628","0.029556","810605","893303","816843","10.575457","3.543215","0.031861","816287","918525","864749","8.039218","2.761125","0.018710","711252","851235","953219","4.489889","1.341738","1.813965","953","1368","1590","975","1392","1603","968","1295","1460","920","1028","1084","589","118","-82",""
"MA200-0416","29677","90","1","1.10","1.4","2023-05-28T12:46:00","120","2023/05/28","12:46:00","-15.795613586902618","35.002986332867295","0.7","16","30","64","64","-84","-435","-25919","1","150","150.28","114.75","35.53","29.94","29.5","10.22","90472","29.75","DUALSPOT-UV-BLUE-GREEN-RED-IR","697424","689042","905953","19.801570","6.891186","0.007349","703397","878567","762650","13.267170","4.453111","0.010302","810214","892954","816556","10.587302","3.546726","-0.006505","816082","918372","864619","8.048878","2.764493","0.019978","710875","850823","952766","4.497539","1.344795","0.065116","913","1015","1069","1035","1144","1199","856","820","801","844","950","1006","931","1201","1317",""
"MA200-0416","29678","90","1","1.10","1.4","2023-05-28T12:46:30","120","2023/05/28","12:46:30","-15.795664489269257","35.003030833089724","0.2","16","30","64","63","28","-568","-26340","1","150","150.03","114.84","35.19","29.93","29.4","10.19","90464","29.75","DUALSPOT-UV-BLUE-GREEN-RED-IR","695479","687201","903576","19.817202","6.896673","0.009213","701848","876753","761101","13.281648","4.458034","0.010663","808865","891545","815352","10.603703","3.553467","0.031995","813496","915517","861957","8.060082","2.768463","0.023848","709492","849189","950955","4.503340","1.345395","-3.798325","799","915","978","934","1037","1088","1185","1590","1794","978","1131","1211","705","238","38",""
"MA200-0416","29679","90","1","1.10","1.4","2023-05-28T12:47:00","120","2023/05/28","12:47:00","-15.79558128118515","35.00296483305283","0.5","16","30","64","64","132","-368","-26647","1","150","150.08","114.59","35.49","29.92","29.4","10.18","90464","29.75","DUALSPOT-UV-BLUE-GREEN-RED-IR","696800","688599","905495","19.835104","6.904102","0.017275","702989","878249","762462","13.298985","4.464168","0.013269","810200","893135","816801","10.617822","3.558194","0.010202","815167","917447","863821","8.069567","2.771764","0.019680","710902","850933","952911","4.509063","1.347225","0.009764","917","1229","1396","1121","1281","1361","1023","1105","1147","830","933","987","697","720","729",""
"MA200-0416","29680","90","1","1.10","1.4","2023-05-28T12:47:30","120","2023/05/28","12:47:30","-15.795504868030548","35.00296583306044","0.4","15","30","64","64","188","-552","-26844","1","150","150.49","114.84","35.65","29.92","29.4","10.18","90464","29.69","DUALSPOT-UV-BLUE-GREEN-RED-IR","696591","688511","905473","19.867376","6.916393","0.012987","702587","877883","762187","13.320552","4.472620","0.021244","810066","893042","816769","10.633855","3.562092","-0.045480","814953","917253","863669","8.081544","2.775520","0.001838","711075","851172","953201","4.516920","1.349226","-0.076286","1650","2024","2224","1392","1757","1941","1159","907","781","1046","1056","1062","955","783","710",""
"MA200-0416","29681","90","1","1.10","1.4","2023-05-28T12:48:00","120","2023/05/28","12:48:00","-15.79561197757721","35.0030518330168","0.4","15","30","64","63","328","-248","-26316","1","150","150.11","114.61","35.50","29.91","29.4","10.13","90472","29.75","DUALSPOT-UV-BLUE-GREEN-RED-IR","694498","686591","903035","19.894122","6.926805","0.014209","704956","880962","764909","13.338233","4.478491","0.007328","809076","892066","815940","10.650070","3.569471","0.038840","813707","915944","862462","8.093004","2.779305","0.011337","709968","849893","951800","4.522949","1.351376","0.039290","1370","1722","1910","1143","1225","1267","1174","1725","2003","1003","1069","1104","734","846","893",""
"MA200-0416","29682","90","1","1.10","1.4","2023-05-28T12:48:30","120","2023/05/28","12:48:30","-15.795575320720673","35.00309500005096","0.4","15","30","64","64","-242","-661","-26376","1","150","149.70","114.68","35.02","29.90","29.3","10.10","90468","29.75","DUALSPOT-UV-BLUE-GREEN-RED-IR","694880","687378","904478","19.982226","6.961555","0.015472","705795","882328","766257","13.385077","4.494680","0.012361","809278","892539","816446","10.682533","3.578817","-0.008813","815567","918217","864681","8.115774","2.786219","-0.001069","710717","850896","952926","4.534839","1.353740","-0.218204","4512","5828","6531","3028","3426","3628","2350","2215","2147","1992","1980","1974","1448","943","728",""
"MA200-0416","29683","90","1","1.10","1.4","2023-05-28T12:49:00","120","2023/05/28","12:49:00","-15.795582950115204","35.003113833256066","0.1","15","30","64","64","-184","-292","-26096","1","150","150.09","115.20","34.90","29.90","29.3","10.08","90472","29.75","DUALSPOT-UV-BLUE-GREEN-RED-IR","694666","687790","905515","20.136466","7.021488","0.015027","701730","877641","762384","13.461311","4.520691","0.011866","809244","892784","816836","10.734989","3.596746","0.015055","814574","917299","863896","8.152115","2.797139","-0.001545","710351","850549","952598","4.554102","1.359347","-0.013010","7864","10086","11276","4905","5525","5838","3780","4265","4509","3164","3139","3125","2335","2244","2205",""
"MA200-0416","29684","90","1","1.10","1.4","2023-05-28T12:49:30","120","2023/05/28","12:49:30","-15.795671999454498","35.00307383318432","0.3","15","30","64","63","80","-640","-27191","1","150","149.62","114.88","34.74","29.89","29.3","10.07","90464","29.75","DUALSPOT-UV-BLUE-GREEN-RED-IR","691843","685340","902553","20.219796","7.053600","0.014657","699119","874627","759852","13.504576","4.534872","0.008294","807620","891198","815462","10.769465","3.606897","-0.003841","812708","915376","862153","8.176492","2.804565","0.001355","709257","849352","951275","4.569080","1.362097","-0.278168","4260","5429","6055","2791","3025","3144","2491","2425","2392","2129","2144","2152","1821","1105","802",""
"MA200-0416","29685","90","1","1.10","1.4","2023-05-28T12:50:00","120","2023/05/28","12:50:00","-15.795745968818665","35.00307966652326","0.2","15","30","64","64","-4","-328","-26288","1","150","149.87","114.71","35.16","29.88","29.3","10.06","90464","29.69","DUALSPOT-UV-BLUE-GREEN-RED-IR","692846","686747","904752","20.317494","7.091444","0.014196","700734","876936","761999","13.555452","4.552192","0.010552","807809","891646","815962","10.807482","3.618967","0.004738","813495","916439","863216","8.204418","2.812892","-0.005246","709842","850145","952221","4.584928","1.366290","-0.052831","5002","6322","7030","3287","3652","3836","2751","2850","2899","2442","2376","2341","1930","1665","1553",""
"MA200-0416","29686","90","1","1.10","1.4","2023-05-28T12:50:30","120","2023/05/28","12:50:30","-15.795668244361877","35.00307916640304","0.3","15","30","64","63","58","-445","-26333","1","150","149.87","114.67","35.20","29.87","29.3","10.05","90464","29.75","DUALSPOT-UV-BLUE-GREEN-RED-IR","691982","686195","904266","20.394026","7.121162","0.014189","703783","881004","765668","13.597965","4.567159","0.013316","807800","891798","816191","10.839671","3.630680","0.020115","813639","916723","863543","8.227606","2.820909","0.019601","709972","850360","952499","4.599396","1.370909","0.011789","3920","4959","5516","2748","3152","3356","2330","2762","2980","2028","2285","2418","1762","1833","1863",""
"MA200-0416","29687","90","1","1.10","1.4","2023-05-28T12:51:00","120","2023/05/28","12:51:00","-15.795621991157532","35.00302099948749","0.2","15","30","64","63","-20","-427","-26003","1","150","149.96","114.72","35.24","29.87","29.3","10.04","90464","29.69","DUALSPOT-UV-BLUE-GREEN-RED-IR","689877","684295","901896","20.436562","7.136904","0.011703","702684","879770","764647","13.626186","4.578180","0.021282","805984","889920","814537","10.861076","3.637725","0.008911","810664","913492","860551","8.243347","2.826279","0.017452","708326","848431","950395","4.607822","1.372845","-0.121667","2177","2623","2862","1823","2318","2568","1549","1659","1715","1376","1528","1608","1026","767","657",""
"MA200-0416","29688","90","1","1.10","1.4","2023-05-28T12:51:30","120","2023/05/28","12:51:30","-15.795604467391968","35.00304783298634","0.1","15","30","64","64","16","-508","-26195","1","150","150.49","115.25","35.24","29.86","29.3","10.03","90468","29.75","DUALSPOT-UV-BLUE-GREEN-RED-IR","691454","685987","904303","20.471132","7.150776","0.015845","699123","875402","760925","13.648604","4.586096","0.013852","807477","891692","816221","10.880931","3.645080","0.022189","813610","916892","863788","8.257748","2.830613","-0.002994","709937","850442","952631","4.616270","1.375062","-0.054881","1761","2312","2607","1441","1665","1778","1430","1732","1885","1253","1233","1223","1023","878","816",""
"MA200-0416","29689","90","1","1.10","1.4","2023-05-28T12:52:00","120","2023/05/28","12:52:00","-15.795561373233795","35.00304166646674","0.3","15","30","64","63","-80","-444","-26219","1","150","149.87","114.56","35.30","29.86","29.3","10.03","90464","29.69","DUALSPOT-UV-BLUE-GREEN-RED-IR","688158","683412","901516","20.635150","7.217664","0.016098","701773","879257","764525","13.731713","4.615701","0.013856","805570","889943","814803","10.939652","3.665768","0.016209","816147","920018","866876","8.297811","2.844423","0.018428","708521","848902","950987","4.639848","1.383060","0.027075","8409","11128","12591","5377","6216","6641","4255","4865","5172","3508","3924","4141","2875","3165","3288",""
"MA200-0416","29690","90","1","1.10","1.4","2023-05-28T12:52:30","120","2023/05/28","12:52:30","-15.795616924762726","35.00293799955398","0.1","14","30","64","63","-244","-616","-26268","1","150","149.80","115.09","34.71","29.83","29.2","10.00","90460","29.69","DUALSPOT-UV-BLUE-GREEN-RED-IR","689584","685169","904102","20.720206","7.249305","0.012747","702559","880506","765711","13.779341","4.631222","0.007841","807045","891768","816520","10.974766","3.675723","-0.009058","812091","915580","862750","8.324555","2.852177","-0.007503","709628","850317","952574","4.655691","1.386078","-0.236920","4340","5353","5898","3067","3314","3439","2533","2380","2304","2331","2241","2194","1923","1214","914",""
"MA200-0416","29691","90","1","1.10","1.4","2023-05-28T12:53:00","120","2023/05/28","12:53:00","-15.795632362365723","35.00293583306484","0.2","14","30","64","63","172","-492","-27480","1","150","149.83","114.60","35.23","29.83","29.2","10.00","90464","29.69","DUALSPOT-UV-BLUE-GREEN-RED-IR","694575","690338","911120","20.771236","7.270117","0.016098","701748","879664","765083","13.811215","4.644449","0.024987","806151","890927","815820","10.999240","3.685355","0.026952","812316","915974","863184","8.342515","2.858000","0.009201","709353","850075","952361","4.666832","1.388604","-0.127994","2615","3469","3929","2061","2783","3148","1773","2269","2520","1572","1658","1703","1358","1001","850",""
"MA200-0416","29692","90","1","1.10","1.4","2023-05-28T12:53:30","120","2023/05/28","12:53:30","-15.795564353466034","35.002963666571304","0.3","14","30","64","63","-156","-392","-25936","1","150","149.76","114.68","35.09","29.82","29.2","9.99","90460","29.69","DUALSPOT-UV-BLUE-GREEN-RED-IR","686414","682463","900959","20.838004","7.296724","0.015245","700273","877978","763711","13.847894","4.656746","0.009108","804695","889463","814573","11.027593","3.694331","0.004503","809969","913444","860818","8.362264","2.864850","0.020181","707896","848378","950468","4.677683","1.392129","0.017274","3419","4454","5011","2371","2598","2713","2052","2123","2159","1727","1958","2078","1321","1403","1437",""
"MA200-0416","29693","90","1","1.10","1.4","2023-05-28T12:54:00","120","2023/05/28","12:54:00","-15.79552435874939","35.0029788329266","0.2","14","30","64","63","46","-530","-26230","1","150","149.76","114.60","35.17","29.81","29.2","9.95","90460","29.69","DUALSPOT-UV-BLUE-GREEN-RED-IR","693712","689916","910975","20.883202","7.314365","0.014129","701654","879896","765433","13.874367","4.666031","0.012785","805356","890311","815406","11.048120","3.701591","0.016896","810896","914594","861963","8.377810","2.870136","0.016876","708523","849205","951426","4.686853","1.394210","-0.125493","2316","2946","3286","1712","1957","2081","1487","1714","1828","1360","1508","1585","1117","827","703",""
"MA200-0416","29694","90","1","1.10","1.4","2023-05-28T12:54:30","120","2023/05/28","12:54:30","-15.795556485652924","35.00296266656369","0.3","14","30","64","63","-56","-483","-26188","1","150","150.49","114.80","35.69","29.81","29.2","9.95","90460","29.69","DUALSPOT-UV-BLUE-GREEN-RED-IR","687125","683546","902652","20.923596","7.329117","0.010120","700743","878889","764646","13.900509","4.675663","0.015684","805102","890169","815333","11.067892","3.708135","0.007991","817074","921621","868622","8.393321","2.875012","0.001960","708712","849489","951743","4.695833","1.396869","-0.015516","2066","2427","2621","1688","2000","2158","1429","1522","1568","1355","1370","1378","1092","1040","1018",""
"MA200-0416","29695","90","1","1.10","1.4","2023-05-28T12:55:00","120","2023/05/28","12:55:00","-15.795532643795013","35.0029689995572","0.3","14","30","64","63","88","-380","-26400","1","150","149.61","114.27","35.34","29.80","29.2","9.95","90460","29.69","DUALSPOT-UV-BLUE-GREEN-RED-IR","690444","687013","907387","20.959942","7.343597","0.014665","698786","876547","762662","13.924368","4.683626","0.007663","803825","888850","814181","11.086823","3.714728","0.014385","808554","912106","859699","8.406692","2.879673","0.019294","707474","848047","950178","4.704603","1.399246","-0.045430","1868","2406","2697","1547","1670","1732","1375","1548","1636","1173","1323","1401","1072","939","883",""
"MA200-0416","29696","90","1","1.10","1.4","2023-05-28T12:55:30","120","2023/05/28","12:55:30","-15.795482456684113","35.00292549980804","0.2","14","30","64","63","12","-388","-26284","1","150","149.59","114.42","35.17","29.79","29.2","9.96","90460","29.69","DUALSPOT-UV-BLUE-GREEN-RED-IR","685691","682457","901488","21.000070","7.359092","0.013468","700123","878388","764347","13.950794","4.693819","0.019886","804898","890154","815410","11.108945","3.721446","-0.001674","810394","914261","861797","8.422321","2.884591","0.004104","708437","849223","951520","4.712820","1.401397","-0.056718","2059","2587","2872","1712","2148","2369","1605","1585","1575","1370","1402","1419","1003","854","791",""
"MA200-0416","29697","90","1","1.10","1.4","2023-05-28T12:56:00","120","2023/05/28","12:56:00","-15.795474886894226","35.00295466626994","0.4","14","30","64","63","-3","-550","-26161","1","150","149.57","114.52","35.05","29.78","29.3","9.97","90456","29.63","DUALSPOT-UV-BLUE-GREEN-RED-IR","691829","688779","910022","21.045518","7.375469","0.010195","700190","878659","764650","13.979362","4.703880","0.013248","804403","889742","815124","11.132147","3.730487","0.026175","815235","919829","867095","8.439741","2.890724","0.022066","707846","848619","950851","4.722669","1.403894","-0.068460","2331","2744","2967","1849","2128","2269","1682","2141","2373","1526","1755","1875","1201","995","907",""
"MA200-0416","29698","90","1","1.10","1.4","2023-05-28T12:56:30","120","2023/05/28","12:56:30","-15.795416057109833","35.00294949952513","0.5","14","30","64","63","48","-456","-26308","1","150","150.22","114.66","35.56","29.76","29.3","9.95","90452","29.63","DUALSPOT-UV-BLUE-GREEN-RED-IR","689822","686898","907669","21.082716","7.390005","0.013561","698564","876754","763077","14.008032","4.713215","0.004977","803009","888364","813893","11.156116","3.739637","0.023104","812838","917237","864704","8.458202","2.897256","0.020871","706473","847046","949134","4.734596","1.407610","0.001340","1905","2400","2668","1853","1945","1992","1735","2136","2338","1615","1843","1961","1453","1459","1462",""
"MA200-0416","29699","90","1","1.10","1.4","2023-05-28T12:57:00","120","2023/05/28","12:57:00","-15.795491993427277","35.002943499945104","0.1","14","30","64","63","-44","-548","-26819","1","150","150.49","114.76","35.73","29.76","29.2","9.93","90460","29.63","DUALSPOT-UV-BLUE-GREEN-RED-IR","690779","687971","909207","21.112126","7.402105","0.015680","699194","877693","763976","14.032735","4.723621","0.024751","803726","889238","814796","11.178205","3.746718","0.003800","814692","919467","866847","8.475678","2.903938","0.030374","707716","848570","950904","4.746639","1.411924","0.037174","1505","1988","2250","1595","2159","2444","1598","1645","1668","1527","1876","2057","1466","1686","1780",""
"MA200-0416","29700","90","1","1.10","1.4","2023-05-28T12:57:30","120","2023/05/28","12:57:30","-15.79566103219986","35.002896999707446","0.3","14","30","64","63","-32","-408","-25963","1","150","149.90","114.56","35.34","29.75","29.2","9.92","90452","29.63","DUALSPOT-UV-BLUE-GREEN-RED-IR","690867","688167","909544","21.137766","7.412786","0.016584","699201","877822","764114","14.054970","4.731180","0.009478","803270","888875","814518","11.196793","3.754168","0.027731","814384","919179","866615","8.490380","2.908695","0.008151","707554","848440","950735","4.757087","1.414342","-0.115799","1314","1775","2024","1438","1585","1659","1347","1750","1953","1287","1350","1383","1274","956","821",""
"MA200-0416","29701","90","1","1.10","1.4","2023-05-28T12:58:00","120","2023/05/28","12:58:00","-15.795661985874176","35.00288216629997","0.2","14","30","64","62","-64","-340","-26247","1","150","151.22","114.44","36.78","29.74","29.2","9.89","90456","29.63","DUALSPOT-UV-BLUE-GREEN-RED-IR","688893","686296","907182","21.166830","7.424761","0.014305","697368","875645","762308","14.079620","4.740061","0.010955","802416","888044","813817","11.217271","3.761732","0.016349","812707","917389","864991","8.505198","2.914202","0.022610","706618","847388","949610","4.765209","1.417172","0.022429","1491","1912","2139","1596","1790","1888","1485","1707","1819","1299","1502","1608","991","1074","1110",""
"MA200-0416","29702","90","1","1.10","1.4","2023-05-28T12:58:30","120","2023/05/28","12:58:30","-15.795701146125793","35.002843333175406","0.9","14","30","64","63","56","-520","-26296","1","150","149.59","114.50","35.09","29.73","29.2","9.88","90452","29.63","DUALSPOT-UV-BLUE-GREEN-RED-IR","689874","687516","908922","21.211122","7.440866","0.010525","698515","877299","763815","14.110886","4.751297","0.014643","802690","888510","814306","11.244199","3.770184","0.003138","813489","918381","865995","8.526591","2.921551","0.018230","707160","848130","950471","4.778629","1.419872","-0.200026","2272","2695","2925","2024","2373","2551","1952","1999","2023","1874","2101","2219","1637","1074","837",""
"MA200-0416","29703","90","1","1.10","1.4","2023-05-28T12:59:00","120","2023/05/28","12:59:00","-15.795582354068756","35.002887999406084","0.5","14","30","64","63","-92","-500","-26068","1","150","149.90","114.72","35.18","29.72","29.2","9.90","90452","29.63","DUALSPOT-UV-BLUE-GREEN-RED-IR","689564","687347","908827","21.250586","7.455898","0.012786","697669","876360","763088","14.138433","4.761720","0.018450","802778","888743","814589","11.269391","3.779739","0.023313","814483","919623","867204","8.543914","2.927762","0.023962","707495","848571","950982","4.789236","1.423464","0.027033","2020","2509","2774","1780","2196","2408","1823","2255","2472","1514","1771","1904","1291","1426","1483",""
"MA200-0416","29704","90","1","1.10","1.4","2023-05-28T12:59:30","120","2023/05/28","12:59:30","-15.795587658882141","35.00293583306484","0.1","14","30","64","62","79","-333","-26000","1","150","150.06","115.24","34.83","29.71","29.2","9.87","90452","29.56","DUALSPOT-UV-BLUE-GREEN-RED-IR","686774","684648","905388","21.275522","7.465519","0.014045","696083","874475","761499","14.160469","4.770471","0.022690","801399","887300","813329","11.286013","3.785175","0.009750","811215","916012","863829","8.558002","2.932060","0.001641","706004","846852","949096","4.798837","1.427366","0.068568","1271","1622","1812","1417","1862","2088","1197","1295","1345","1226","1238","1244","1163","1564","1734",""
"MA200-0416","29705","90","1","1.10","1.4","2023-05-28T13:00:00","120","2023/05/28","13:00:00","-15.795546174049377","35.00300500006415","0.1","14","30","64","63","-354","-295","-26229","1","150","149.94","114.67","35.27","29.70","29.2","9.87","90452","29.56","DUALSPOT-UV-BLUE-GREEN-RED-IR","688705","686668","908080","21.295286","7.473053","0.012654","697068","875808","762703","14.176458","4.775902","0.009580","802139","888187","814195","11.301415","3.792095","0.036232","813404","918537","866267","8.569923","2.936471","0.027537","706929","847990","950389","4.804268","1.429223","0.028569","1012","1254","1385","1033","1141","1196","1115","1628","1888","1042","1254","1365","661","735","766",""
"MA200-0416","29706","90","1","1.10","1.4","2023-05-28T13:00:30","120","2023/05/28","13:00:30","-15.795584857463837","35.002988833002746","0.2","14","30","64","63","8","-360","-26412","1","150","150.28","115.09","35.20","29.68","29.2","9.86","90448","29.56","DUALSPOT-UV-BLUE-GREEN-RED-IR","688482","686512","907983","21.315492","7.482342","0.020486","697321","876208","763116","14.196157","4.783756","0.022140","801606","887713","813794","11.316529","3.796506","-0.006542","811667","916632","864518","8.579750","2.940517","0.040238","710774","852639","955622","4.811964","1.430639","-0.271980","1031","1550","1830","1268","1654","1850","1090","1040","1015","856","1153","1308","934","562","404",""
