"Serial number","Datum ID","Session ID","Data format version","Firmware version","App version","Date / time local","Timezone offset (mins)","Date local (yyyy/MM/dd)","Time local (hh:mm:ss)","GPS lat (ddmm.mmmmm)","GPS long (dddmm.mmmmm)","GPS speed (km/h)","GPS sat count","Timebase (s)","Status","Battery remaining (%)","Accel X","Accel Y","Accel Z","Tape position","Flow setpoint (mL/min)","Flow total (mL/min)","Flow1 (mL/min)","Flow2 (mL/min)","Sample temp (C)","Sample RH (%)","Sample dewpoint (C)","Internal pressure (Pa)","Internal temp (C)","Optical config","UV Sen1","UV Sen2","UV Ref","UV ATN1","UV ATN2","UV K","Blue Sen1","Blue Sen2","Blue Ref","Blue ATN1","Blue ATN2","Blue K","Green Sen1","Green Sen2","Green Ref","Green ATN1","Green ATN2","Green K","Red Sen1","Red Sen2","Red Ref","Red ATN1","Red ATN2","Red K","IR Sen1","IR Sen2","IR Ref","IR ATN1","IR ATN2","IR K","UV BC1","UV BC2","UV BCc","Blue BC1","Blue BC2","Blue BCc","Green BC1","Green BC2","Green BCc","Red BC1","Red BC2","Red BCc","IR BC1","IR BC2","IR BCc","Readable status"
"MA200-0420","52982","83","1","1.10","1.6","2023-08-24T09:55:00","120","2023/08/24","09:55:00","-15.787196040153503","35.03527199104428","0.2","10","300","194","6","937","23450","-820","11","150","130.13","96.33","33.80","27.74","47.5","15.56","89444","27.00","DUALSPOT-UV-BLUE-GREEN-RED-IR","808438","711188","931665","0.000000","0.000000","0.000000","872114","886240","838176","0.000000","0.000000","0.000000","851385","862774","830356","0.000000","0.000000","0.000000","867915","868795","887434","0.000000","0.000000","0.000000","765157","865630","964539","0.000000","0.000000","0.000000","","","","","","","","","","","","","","","","Start up-DualSpot on-Flow unstable"
"MA200-0420","52983","83","1","1.10","1.6","2023-08-24T10:00:00","120","2023/08/24","10:00:00","-15.787111282348633","35.03529832884669","0.0","11","300","66","5","948","23452","-776","11","150","149.41","112.52","36.89","28.06","42.9","14.27","89432","27.44","DUALSPOT-UV-BLUE-GREEN-RED-IR","758564","684333","909522","0.000000","0.000000","0.000000","851662","877172","835960","0.000000","0.000000","0.000000","839851","860224","832919","0.000000","0.000000","0.000000","860674","868399","891008","0.000000","0.000000","0.000000","760935","865088","966043","0.000000","0.000000","0.000000","","","","","","","","","","","","","","","","Start up-DualSpot on"
"MA200-0420","52984","83","1","1.10","1.6","2023-08-24T10:05:00","120","2023/08/24","10:05:00","-15.78713470697403","35.0352773219347","0.0","11","300","64","4","944","23438","-811","11","150","149.63","112.48","37.15","28.37","41.1","13.89","89424","27.75","DUALSPOT-UV-BLUE-GREEN-RED-IR","735153","674703","906224","0.000000","0.000000","0.000000","840045","874736","838883","0.000000","0.000000","0.000000","824516","852269","829391","0.000000","0.000000","0.000000","852615","866391","892300","0.000000","0.000000","0.000000","755943","863194","965897","0.000000","0.000000","0.000000","","","","","","","","","","","","","","","","DualSpot on"
"MA200-0420","52985","83","1","1.10","1.6","2023-08-24T10:10:00","120","2023/08/24","10:10:00","-15.787129998207092","35.03530999273062","0.2","11","300","64","3","1004","23537","-979","11","150","150.21","112.48","37.73","28.56","39.9","13.62","89424","27.81","DUALSPOT-UV-BLUE-GREEN-RED-IR","717519","669783","909631","2.804517","1.106561","0.000000","821259","865157","835537","1.859488","0.695222","0.000000","813175","848914","830857","1.561933","0.568628","0.000000","838301","858635","888135","1.228108","0.431999","0.000000","751117","862175","967087","0.759916","0.241239","0.000000","14644","17224","14644","12255","13658","12255","11528","12511","11528","10954","11486","10954","9437","8931","9437","DualSpot on"
"MA200-0420","52986","83","1","1.10","1.6","2023-08-24T10:15:00","120","2023/08/24","10:15:00","-15.787172198295593","35.03527148813009","0.1","11","300","64","3","888","23436","-692","11","150","149.62","112.85","36.77","28.72","38.8","13.32","89420","28.00","DUALSPOT-UV-BLUE-GREEN-RED-IR","694947","659629","906505","5.661407","2.290550","0.055396","808876","861593","837919","3.666745","1.395047","0.063635","803958","847245","833920","3.071429","1.135689","0.063616","832810","859498","892801","2.408679","0.857082","0.000000","743763","857951","964611","1.489326","0.475370","0.000000","14869","18914","21663","11871","14110","15485","11105","12804","13801","10495","11599","10495","9029","8895","9029","DualSpot on"
"MA200-0420","52987","83","1","1.10","1.6","2023-08-24T10:20:00","120","2023/08/24","10:20:00","-15.78718113899231","35.035272158682346","0.0","11","300","64","2","1032","23504","-1068","11","150","149.34","113.68","35.66","28.83","38.1","13.12","89424","28.06","DUALSPOT-UV-BLUE-GREEN-RED-IR","677129","653663","909772","8.617088","3.558632","0.044695","791762","852856","835490","5.513568","2.120960","0.052850","789407","839864","831513","4.608443","1.719832","0.054757","819526","852301","889232","3.615356","1.295196","0.054490","740043","858016","967052","2.244526","0.718498","0.000000","15271","20886","24836","12043","15090","16995","11225","13599","15013","10649","12325","13261","9280","9524","9280","DualSpot on"
"MA200-0420","52988","83","1","1.10","1.6","2023-08-24T10:25:00","120","2023/08/24","10:25:00","-15.787193357944489","35.03528833016753","0.2","10","300","64","1","925","23487","-845","11","150","149.56","113.78","35.78","28.99","37.3","12.96","89420","28.25","DUALSPOT-UV-BLUE-GREEN-RED-IR","664281","648044","909724","10.533684","4.416836","0.040067","786853","854371","841662","6.877612","2.684498","0.049417","779292","834931","830469","5.775796","2.185124","0.052103","810730","848040","887949","4.551108","1.652306","0.055198","734023","854448","964933","2.842455","0.918581","0.000000","9893","14089","17118","8887","11676","13462","8517","10797","12184","8250","10014","11019","7340","7812","7340","DualSpot on"
"MA200-0420","52989","83","1","1.10","1.6","2023-08-24T10:30:00","120","2023/08/24","10:30:00","-15.787117183208466","35.035307824611664","0.2","10","300","64","0","954","23433","-770","11","150","149.74","113.43","36.30","29.20","37.0","13.01","89408","28.56","DUALSPOT-UV-BLUE-GREEN-RED-IR","649829","639722","904971","12.218204","5.191990","0.035376","772441","844846","836786","8.146475","3.224564","0.043353","771341","831833","831125","6.881792","2.640259","0.046034","804399","846047","888975","5.454540","2.007778","0.048830","729287","852251","964446","3.441648","1.127144","0.033475","8722","12541","15362","8292","11028","12820","8094","10408","11848","7990","9823","10891","7379","8025","8340","DualSpot on"
"MA200-0420","52990","83","1","1.10","1.6","2023-08-24T10:35:00","120","2023/08/24","10:35:00","-15.787189662456512","35.03527865931392","0.0","12","300","64","0","950","23470","-904","11","150","149.82","112.99","36.83","29.44","36.6","13.05","89408","28.81","DUALSPOT-UV-BLUE-GREEN-RED-IR","640253","635324","905010","13.707771","5.886722","0.031392","763621","840744","836881","9.307008","3.723651","0.037335","764144","828991","831829","7.904293","3.064386","0.038978","798894","844508","890392","6.299952","2.344332","0.041382","725620","851142","965096","4.012199","1.324114","0.020238","7743","11080","13591","7614","10046","11668","7512","9561","10858","7506","9168","10153","7053","7471","7677","DualSpot on"
"MA200-0420","52991","83","1","1.10","1.6","2023-08-24T10:40:00","120","2023/08/24","10:40:00","-15.787154138088226","35.03527098894119","0.0","12","300","64","0","875","23416","-575","11","150","150.21","113.07","37.14","29.68","36.2","13.11","89408","29.06","DUALSPOT-UV-BLUE-GREEN-RED-IR","632053","631873","906288","15.134377","6.569130","0.029495","755885","837462","837752","10.428249","4.217610","0.034931","756355","825210","831521","8.893321","3.483536","0.036323","792059","841403","890071","7.121547","2.676967","0.038126","720149","847794","963173","4.571058","1.521781","0.022594","7410","10792","13385","7351","9859","11563","7261","9369","10727","7289","8985","10007","6904","7434","7699","DualSpot on"
"MA200-0420","52992","83","1","1.10","1.6","2023-08-24T10:45:00","120","2023/08/24","10:45:00","-15.787236154079437","35.035269659012556","0.2","12","300","64","0","787","23441","-475","11","150","150.35","112.77","37.58","29.92","35.8","13.16","89396","29.31","DUALSPOT-UV-BLUE-GREEN-RED-IR","623606","627755","906305","16.487652","7.227611","0.027314","747972","833546","837805","11.488164","4.693971","0.032285","749826","822440","832106","9.826590","3.887999","0.033797","786495","839302","890674","7.895254","2.997025","0.035473","716327","846122","963125","5.094799","1.710157","0.020936","7048","10291","12823","6967","9397","11075","6870","8935","10287","6883","8544","9561","6487","7002","7262","DualSpot on"
"MA200-0420","52993","83","1","1.10","1.6","2023-08-24T10:50:00","120","2023/08/24","10:50:00","-15.787168681621552","35.035305660218","0.1","12","300","64","0","1184","23464","-820","11","150","149.67","111.93","37.74","30.12","35.3","13.09","89384","29.50","DUALSPOT-UV-BLUE-GREEN-RED-IR","615094","623280","905782","17.800506","7.884849","0.026146","739940","829155","837355","12.515008","5.167425","0.030770","741573","817464","830413","10.731151","4.291077","0.032526","778444","834284","888198","8.643998","3.317208","0.035104","714666","846868","965804","5.603279","1.902975","0.028369","6889","10229","12886","6800","9301","11059","6709","8868","10306","6711","8512","9634","6345","7138","7545","DualSpot on"
"MA200-0420","52994","83","1","1.10","1.6","2023-08-24T10:55:00","120","2023/08/24","10:55:00","-15.787203550338745","35.03530215844512","0.1","12","300","64","0","1083","23441","-770","11","150","149.47","112.85","36.62","30.35","34.8","13.10","0","0.00","DUALSPOT-UV-BLUE-GREEN-RED-IR","606919","618805","905016","19.055878","8.521950","0.026500","737245","830486","842580","13.500813","5.631363","0.032281","734824","813869","830000","11.601474","4.685113","0.034362","772100","830841","887308","9.365411","3.630220","0.037909","709921","843832","964115","6.101413","2.085477","0.026864","6533","10218","13199","6475","9391","11478","6402","8933","10647","6413","8575","9943","6166","6961","7375","DualSpot on"
"MA200-0420","52995","83","1","1.10","1.6","2023-08-24T11:00:00","120","2023/08/24","11:00:00","-15.787136673927307","35.03532849252224","0.0","13","300","64","20","1084","23360","-867","11","150","149.89","115.72","34.17","30.94","34.1","13.28","0","0.00","DUALSPOT-UV-BLUE-GREEN-RED-IR","597320","613607","904663","20.598018","9.321953","0.028172","722775","818953","835334","14.617189","6.160044","0.034937","731894","815012","834873","12.578864","5.128683","0.037804","764729","826733","886026","10.174873","3.979839","0.042442","708058","844643","967068","6.662678","2.290963","0.040186","7827","13752","18650","7151","11470","14616","7012","10778","13370","7018","10265","12352","6775","8401","9253","DualSpot on"
"MA200-0420","52996","83","1","1.10","1.6","2023-08-24T11:05:00","120","2023/08/24","11:05:00","-15.787169516086578","35.0353066585958","0.2","13","300","64","23","1175","23350","-812","11","150","149.95","115.36","34.59","32.13","32.3","13.49","89392","33.75","DUALSPOT-UV-BLUE-GREEN-RED-IR","589970","610828","908340","22.253326","10.186607","0.025966","716015","816261","837261","15.787345","6.722744","0.032469","733474","821286","845227","13.603394","5.593437","0.034225","759648","825097","887503","11.012537","4.344454","0.038801","701623","840231","964021","7.263197","2.502711","0.029151","8427","14682","19963","7519","12060","15427","7373","11155","13796","7284","10575","12720","7271","8552","9225","DualSpot on"
"MA200-0420","52997","83","1","1.10","1.6","2023-08-24T11:10:00","120","2023/08/24","11:10:00","-15.787196040153503","35.035300992429256","0.3","13","300","64","26","1100","23444","-756","11","150","150.21","114.76","35.46","33.07","30.2","13.27","89416","34.63","DUALSPOT-UV-BLUE-GREEN-RED-IR","581944","606430","908445","23.635880","10.912762","0.023915","707866","811180","836174","16.805178","7.215962","0.029692","718413","808249","835247","14.490303","6.004743","0.031816","753091","821330","886306","11.744616","4.669257","0.035746","698050","838823","964176","7.794121","2.689424","0.022354","7076","12028","16276","6575","10311","13123","6416","9630","11905","6400","9190","11031","6462","7356","7826","DualSpot on"
"MA200-0420","52998","83","1","1.10","1.6","2023-08-24T11:15:00","120","2023/08/24","11:15:00","-15.787157773971558","35.03527398779988","0.1","13","300","64","29","1200","23433","-829","11","150","149.82","114.45","35.37","33.78","28.8","13.18","89404","35.25","DUALSPOT-UV-BLUE-GREEN-RED-IR","574495","601896","907070","24.772332","11.517281","0.023178","705646","812308","840927","17.686562","7.644277","0.028391","710716","802938","832715","15.264766","6.367396","0.030743","750446","821373","888937","12.389404","4.954117","0.033679","694220","836764","963431","8.266235","2.856248","0.021759","5832","10039","13695","5708","8978","11466","5617","8513","10585","5652","8080","9699","5762","6589","7026","DualSpot on"
"MA200-0420","52999","83","1","1.10","1.6","2023-08-24T11:20:00","120","2023/08/24","11:20:00","-15.787138164043427","35.03527332469821","0.0","13","300","64","31","1229","23475","-825","11","150","150.02","113.74","36.27","34.31","27.7","13.04","89408","35.63","DUALSPOT-UV-BLUE-GREEN-RED-IR","567553","597816","906656","25.946934","12.154491","0.021921","698162","807349","839540","18.589800","8.094080","0.026824","704227","798931","831726","16.059563","6.746804","0.028735","743991","817205","887059","13.047031","5.255340","0.032358","692481","837143","965582","8.737003","3.033624","0.024899","6065","10318","14065","5886","9192","11742","5801","8684","10772","5800","8331","10038","5781","6831","7389","DualSpot on"
"MA200-0420","53000","83","1","1.10","1.6","2023-08-24T11:25:00","120","2023/08/24","11:25:00","-15.78715866804123","35.03527982532978","0.0","13","300","64","33","1245","23491","-1029","11","150","150.15","113.54","36.61","34.79","27.0","13.03","89412","36.06","DUALSPOT-UV-BLUE-GREEN-RED-IR","562877","595786","909137","27.045104","12.763111","0.021314","688694","799777","835279","19.445616","8.526991","0.025877","699565","796722","832486","16.816286","7.113035","0.027632","740094","815700","887991","13.674273","5.545119","0.030806","688776","834929","964689","9.181812","3.206245","0.025942","5681","9764","13413","5588","8765","11247","5533","8305","10336","5542","7941","9576","5472","6586","7184","DualSpot on"
"MA200-0420","53001","83","1","1.10","1.6","2023-08-24T11:30:00","120","2023/08/24","11:30:00","-15.787166059017181","35.035264659672976","0.1","13","300","64","35","1179","23479","-866","11","150","149.34","113.35","35.99","35.27","26.7","13.28","89400","36.56","DUALSPOT-UV-BLUE-GREEN-RED-IR","555990","591336","907947","28.150024","13.386875","0.021219","686945","801039","840246","20.290244","8.959744","0.025803","693381","792712","831314","17.563536","7.478911","0.027648","734901","812623","887206","14.295082","5.834767","0.030941","687199","835315","966772","9.629780","3.378214","0.025290","5725","10179","14218","5524","8913","11593","5473","8439","10639","5494","8074","9852","5520","6674","7298","DualSpot on"
"MA200-0420","53002","83","1","1.10","1.6","2023-08-24T11:35:00","120","2023/08/24","11:35:00","-15.787207663059235","35.03526449203491","0.0","13","300","64","36","1233","23500","-866","11","150","150.42","113.27","37.15","35.60","25.8","13.04","89408","36.81","DUALSPOT-UV-BLUE-GREEN-RED-IR","548567","586163","905625","29.238052","14.008759","0.020102","679513","795586","838122","21.127834","9.394870","0.024257","686884","788178","829632","18.305282","7.848175","0.025973","728360","808042","884756","14.910645","6.124391","0.028462","681925","831068","963570","10.064873","3.551904","0.024958","5642","9831","13685","5481","8682","11245","5436","8251","10364","5452","7821","9472","5366","6530","7166","DualSpot on"
"MA200-0420","53003","83","1","1.10","1.6","2023-08-24T11:40:00","120","2023/08/24","11:40:00","-15.787216007709503","35.03526432439685","0.0","12","300","64","38","1166","23491","-750","11","150","150.15","113.39","36.75","35.82","25.1","12.76","89392","36.94","DUALSPOT-UV-BLUE-GREEN-RED-IR","543465","583482","907138","30.338028","14.633965","0.019539","674649","793009","839099","21.964522","9.834597","0.024105","684196","787974","832499","19.040646","8.218445","0.025909","729396","811743","891357","15.514229","6.413523","0.028935","682044","833237","967726","10.478893","3.721059","0.027454","5697","9991","13991","5470","8869","11624","5384","8363","10626","5340","7892","9690","5100","6429","7160","DualSpot on"
"MA200-0420","53004","83","1","1.10","1.6","2023-08-24T11:45:00","120","2023/08/24","11:45:00","-15.787208557128906","35.03528082370758","0.1","12","300","64","40","1241","23483","-920","11","150","150.01","113.39","36.62","36.00","24.9","12.82","89392","37.06","DUALSPOT-UV-BLUE-GREEN-RED-IR","535919","577873","903893","31.378890","15.243294","0.019519","666377","786147","835329","22.749236","10.252854","0.023832","678211","783683","830891","19.729412","8.571699","0.025840","721838","805677","887128","16.077818","6.686285","0.028644","676385","828211","963399","10.865536","3.882505","0.028820","5391","9773","13913","5130","8467","11205","5043","8009","10287","4986","7473","9243","4763","6158","6934","DualSpot on"
"MA200-0420","53005","83","1","1.10","1.6","2023-08-24T11:50:00","120","2023/08/24","11:50:00","-15.787187993526459","35.03526199236512","0.0","12","300","64","41","1195","23529","-833","11","150","149.76","113.90","35.85","36.10","24.8","12.87","89392","37.13","DUALSPOT-UV-BLUE-GREEN-RED-IR","532690","576640","907093","32.339942","15.810345","0.019514","663548","785562","838120","23.504532","10.658957","0.024012","675034","782579","832560","20.399360","8.916390","0.025975","720267","806177","890128","16.635820","6.959055","0.029293","675330","828702","965574","11.249039","4.047224","0.032248","4955","9289","13434","4915","8396","11284","4883","7981","10387","4915","7632","9586","4703","6417","7381","DualSpot on"
"MA200-0420","53006","83","1","1.10","1.6","2023-08-24T11:55:00","120","2023/08/24","11:55:00","-15.787149429321289","35.03527965769172","0.3","12","300","64","42","1225","23487","-925","11","150","149.87","116.45","33.42","36.17","24.5","12.73","89380","37.13","DUALSPOT-UV-BLUE-GREEN-RED-IR","526437","572243","905654","33.358296","16.415867","0.020340","658096","781944","837869","24.296476","11.090277","0.025637","669079","778277","831075","21.101062","9.283603","0.028208","714535","802135","888208","17.216052","7.246773","0.032349","671460","825813","963870","11.647320","4.218294","0.037587","5136","10641","15976","5041","9567","13368","5002","9122","12358","4998","8637","11282","4777","7150","8497","DualSpot on"
"MA200-0420","53007","83","1","1.10","1.6","2023-08-24T12:00:00","120","2023/08/24","12:00:00","-15.787200331687927","35.0352689884603","0.0","12","300","64","43","1233","23579","-808","11","150","150.08","116.71","33.38","36.18","24.6","12.76","89368","37.13","DUALSPOT-UV-BLUE-GREEN-RED-IR","519245","566962","903674","34.508012","17.115734","0.020033","650829","776303","835689","25.149550","11.554204","0.024859","663241","774278","830031","21.851388","9.673519","0.027208","709358","798867","887269","17.832310","7.548890","0.031028","668118","823638","963029","12.052906","4.394506","0.037310","5786","12316","18743","5418","10304","14456","5337","9699","13164","5297","9081","11859","4854","7375","8821","DualSpot on"
"MA200-0420","53008","83","1","1.10","1.6","2023-08-24T12:05:00","120","2023/08/24","12:05:00","-15.787163138389587","35.03526632487774","0.1","12","300","64","45","1208","23516","-916","11","150","150.02","116.74","33.27","36.33","24.5","12.82","89368","37.31","DUALSPOT-UV-BLUE-GREEN-RED-IR","514765","564673","906548","35.698392","17.844150","0.019507","646418","774039","837380","26.037308","12.049383","0.024600","659488","772702","831771","22.628522","10.088942","0.027065","706429","798049","889221","18.471970","7.873011","0.031157","665689","822638","963706","12.488495","4.587523","0.037413","5988","12859","19725","5637","11033","15681","5526","10366","14259","5497","9773","12950","5212","8104","9783","DualSpot on"
"MA200-0420","53009","83","1","1.10","1.6","2023-08-24T12:10:00","120","2023/08/24","12:10:00","-15.787214159965515","35.035251662135124","0.1","13","300","64","46","1204","23604","-904","11","150","149.56","116.19","33.37","36.47","24.3","12.87","89372","37.44","DUALSPOT-UV-BLUE-GREEN-RED-IR","510764","562474","908697","36.716136","18.472226","0.019013","644052","773893","840880","26.816530","12.482843","0.023745","655859","770903","832894","23.317544","10.455729","0.026052","704186","797812","891499","19.044876","8.159697","0.029668","663953","822339","965009","12.887165","4.760514","0.034731","5144","11055","17040","4971","9629","13686","4923","9125","12542","4946","8619","11372","4793","7242","8676","DualSpot on"
"MA200-0420","53010","83","1","1.10","1.6","2023-08-24T12:15:00","120","2023/08/24","12:15:00","-15.787199914455414","35.035274155437946","0.1","13","300","64","47","1179","23520","-858","11","150","150.34","116.07","34.27","36.60","24.0","12.77","89360","37.63","DUALSPOT-UV-BLUE-GREEN-RED-IR","505449","558655","908142","37.696592","19.089714","0.018479","637756","768855","839000","27.573522","12.913080","0.023030","651137","767715","832504","23.990592","10.822715","0.025291","699488","794626","890493","19.605282","8.447663","0.028841","660426","819698","963569","13.272148","4.932531","0.033882","4961","10583","16351","4834","9307","13246","4814","8891","12241","4843","8430","11146","4633","7012","8419","DualSpot on"
"MA200-0420","53011","83","1","1.10","1.6","2023-08-24T12:20:00","120","2023/08/24","12:20:00","-15.78715693950653","35.03526582196355","0.0","12","300","64","48","1233","23525","-733","11","150","150.54","116.23","34.31","36.70","23.7","12.65","89364","37.63","DUALSPOT-UV-BLUE-GREEN-RED-IR","501538","556199","909478","38.623616","19.677998","0.018150","633761","766450","839910","28.311388","13.337193","0.022667","647530","765724","833310","24.648656","11.183842","0.024803","696166","792925","891190","20.157190","8.734075","0.028391","658095","818547","963947","13.660862","5.107624","0.033425","4684","10072","15667","4706","9164","13136","4700","8739","12094","4763","8376","11137","4671","7129","8597","DualSpot on"
"MA200-0420","53012","83","1","1.10","1.6","2023-08-24T12:25:00","120","2023/08/24","12:25:00","-15.787175059318542","35.03525849059224","0.0","12","300","64","50","1254","23491","-787","11","150","150.08","115.44","34.64","36.84","23.8","12.83","89352","37.75","DUALSPOT-UV-BLUE-GREEN-RED-IR","496024","551891","907982","39.567384","20.292294","0.017840","628444","762300","838947","29.043474","13.762195","0.022030","642169","761586","831805","25.298664","11.543984","0.024068","690819","788922","889156","20.699468","9.017725","0.027459","654149","815316","961741","14.035557","5.278114","0.032263","4801","10416","16326","4701","9095","13052","4674","8631","11952","4712","8215","10919","4534","6875","8286","DualSpot on"
"MA200-0420","53013","83","1","1.10","1.6","2023-08-24T12:30:00","120","2023/08/24","12:30:00","-15.787193536758423","35.03524782508612","0.1","12","300","64","52","1260","23548","-756","11","150","149.62","115.60","34.02","36.97","23.7","12.85","89348","37.94","DUALSPOT-UV-BLUE-GREEN-RED-IR","490378","547315","905748","40.468236","20.883084","0.017726","621823","756477","836010","29.753744","14.182504","0.022142","637047","757576","830425","25.935492","11.903784","0.024275","685118","784352","886538","21.234082","9.301599","0.027720","653959","816741","965069","14.413055","5.450292","0.032552","4577","10199","16193","4555","9158","13350","4573","8779","12347","4640","8370","11279","4562","7069","8594","DualSpot on"
"MA200-0420","53014","83","1","1.10","1.6","2023-08-24T12:35:00","120","2023/08/24","12:35:00","-15.787159323692322","35.035261157900095","0.0","12","300","64","53","1220","23566","-887","11","150","150.15","116.35","33.80","36.96","23.3","12.59","89336","37.81","DUALSPOT-UV-BLUE-GREEN-RED-IR","486240","544151","905123","41.245328","21.391614","0.017516","617744","753468","835896","30.397232","14.567153","0.022045","633246","754942","830299","26.517242","12.237427","0.024288","682090","782645","886964","21.727050","9.568287","0.027913","651749","815447","965127","14.758480","5.614370","0.034302","3922","8837","14133","4100","8437","12428","4151","8196","11662","4250","7916","10801","4147","6781","8399","DualSpot on"
"MA200-0420","53015","83","1","1.10","1.6","2023-08-24T12:40:00","120","2023/08/24","12:40:00","-15.787198662757874","35.03524865582585","0.1","12","300","64","55","1196","23540","-760","11","150","150.42","114.88","35.54","36.96","23.3","12.62","89336","37.75","DUALSPOT-UV-BLUE-GREEN-RED-IR","483995","543014","908021","42.032876","21.921634","0.016909","615750","752941","838657","31.047758","14.962702","0.020962","630308","753270","831308","27.102910","12.581090","0.023097","679711","781641","888298","22.224982","9.844248","0.026409","649554","814116","965201","15.102562","5.784822","0.032683","4026","8759","13919","4197","8251","12021","4232","8028","11317","4348","7790","10527","4184","6700","8262","DualSpot on"
"MA200-0420","53016","83","1","1.10","1.6","2023-08-24T12:45:00","120","2023/08/24","12:45:00","-15.787172853946686","35.03524932637811","0.0","12","300","64","56","1168","23504","-851","11","150","150.21","114.77","35.44","36.97","23.3","12.58","89332","37.88","DUALSPOT-UV-BLUE-GREEN-RED-IR","478971","538713","905425","42.786696","22.432190","0.016710","610324","748164","836598","31.689520","15.357435","0.020766","628989","753520","834450","27.686930","12.924949","0.022743","674481","777381","885913","22.727386","10.123909","0.026021","645713","810817","963003","15.463333","5.960748","0.031376","3857","8461","13534","4145","8256","12122","4224","8055","11408","4391","7916","10747","4391","6934","8529","DualSpot on"
"MA200-0420","53017","83","1","1.10","1.6","2023-08-24T12:50:00","120","2023/08/24","12:50:00","-15.787153482437134","35.03526598960161","0.0","12","300","64","58","1280","23560","-812","11","150","150.02","114.22","35.80","36.97","23.0","12.42","89324","37.81","DUALSPOT-UV-BLUE-GREEN-RED-IR","476585","537384","908226","43.594376","22.981774","0.016341","608144","747399","839150","32.346118","15.762551","0.020215","623832","749149","832503","28.281784","13.274406","0.022004","674318","778951","890182","23.232108","10.402965","0.024985","641883","807476","960695","15.817116","6.132303","0.029835","4153","9017","14439","4261","8389","12312","4323","8104","11448","4433","7820","10567","4326","6694","8193","DualSpot on"
"MA200-0420","53018","83","1","1.10","1.6","2023-08-24T12:55:00","120","2023/08/24","12:55:00","-15.787184059619904","35.03527832776308","0.1","12","300","64","38","1241","23654","-654","11","150","150.15","114.26","35.89","36.43","23.4","12.20","89280","35.50","DUALSPOT-UV-BLUE-GREEN-RED-IR","472118","533783","907301","44.431284","23.551708","0.016049","603127","743282","838077","33.043304","16.186075","0.019572","618881","745192","831189","28.915272","13.645188","0.021458","669138","774838","888221","23.780926","10.708428","0.024560","639320","805757","960530","16.201035","6.327785","0.031152","4302","9327","14995","4523","8748","12804","4603","8577","12128","4819","8539","11586","4693","7608","9476","DualSpot on"
"MA200-0420","53019","83","1","1.10","1.6","2023-08-24T13:00:00","120","2023/08/24","13:00:00","-15.787180006504059","35.035295493900776","0.2","12","300","64","38","1236","23556","-708","11","150","149.62","114.36","35.26","35.71","23.5","11.70","0","0.00","DUALSPOT-UV-BLUE-GREEN-RED-IR","468414","530907","907506","45.242928","24.114968","0.016095","600477","741840","840129","33.731908","16.625599","0.020115","615475","742888","831848","29.545386","14.032529","0.022146","666422","773436","889368","24.321782","11.021562","0.025334","639218","807013","963878","16.566605","6.523477","0.033105","4168","9383","15335","4463","9241","13884","4574","9120","13233","4744","8910","12362","4465","7753","9889","DualSpot on"
"MA200-0420","53020","83","1","1.10","1.6","2023-08-24T13:05:00","120","2023/08/24","13:05:00","-15.787203669548035","35.03525698930025","0.1","11","300","64","36","1256","23644","-776","11","150","149.44","114.85","34.59","35.04","23.9","11.39","0","0.00","DUALSPOT-UV-BLUE-GREEN-RED-IR","464748","527943","907160","45.989516","24.634690","0.016058","596763","738963","840280","34.371584","17.030382","0.019952","612078","740424","832036","30.127790","14.389220","0.022049","663684","771921","890174","24.820008","11.307532","0.025166","635865","803863","961837","16.880520","6.701507","0.035203","3818","8825","14602","4129","8675","13141","4210","8561","12540","4352","8295","11594","3818","7190","9410","DualSpot on"
"MA200-0420","53021","83","1","1.10","1.6","2023-08-24T13:10:00","120","2023/08/24","13:10:00","-15.787167012691498","35.035272158682346","0.4","11","300","64","36","1180","23568","-768","11","150","149.52","114.86","34.67","34.51","24.0","10.99","89252","33.44","DUALSPOT-UV-BLUE-GREEN-RED-IR","461243","524927","906028","46.624840","25.090802","0.016066","593153","735910","839826","34.929324","17.394706","0.020004","608828","737890","831861","30.638032","14.709809","0.022045","660454","769560","889714","25.261132","11.567643","0.025240","635297","804077","963616","17.160854","6.862167","0.034942","3248","7727","12946","3599","7790","11948","3688","7677","11362","3853","7527","10632","3409","6474","8516","DualSpot on"
"MA200-0420","53022","83","1","1.10","1.6","2023-08-24T13:15:00","120","2023/08/24","13:15:00","-15.787164628505707","35.035268161445856","0.0","11","300","64","35","1220","23612","-788","11","150","149.47","114.97","34.50","34.10","24.6","11.01","0","0.00","DUALSPOT-UV-BLUE-GREEN-RED-IR","460180","524627","909458","47.234644","25.524444","0.015853","588236","731245","837417","35.475032","17.743016","0.019530","604878","734515","830617","31.140604","15.020726","0.021589","656421","766248","888172","25.697648","11.820953","0.024659","633810","803223","964162","17.445752","7.021883","0.033958","3115","7383","12402","3518","7485","11454","3629","7483","11074","3809","7367","10398","3461","6468","8493","DualSpot on"
"MA200-0420","53023","83","1","1.10","1.6","2023-08-24T13:20:00","120","2023/08/24","13:20:00","-15.78717416524887","35.035254158079624","0.0","11","300","64","35","1233","23566","-820","11","150","149.47","115.64","33.83","33.82","25.0","11.03","0","0.00","DUALSPOT-UV-BLUE-GREEN-RED-IR","457689","522633","909915","47.828668","25.953686","0.015946","585203","728809","837573","36.009612","18.094858","0.019863","602361","732796","831251","31.632966","15.332113","0.021899","654328","765118","889099","26.125474","12.074546","0.025114","633312","803619","966148","17.732372","7.180578","0.033836","3017","7452","12714","3426","7709","12035","3534","7641","11504","3711","7520","10793","3462","6552","8655","DualSpot on"
"MA200-0420","53024","83","1","1.10","1.6","2023-08-24T13:25:00","120","2023/08/24","13:25:00","-15.78717166185379","35.0352993234992","0.1","12","300","64","34","1241","23562","-691","11","150","149.82","115.60","34.22","33.60","25.2","10.95","89228","32.69","DUALSPOT-UV-BLUE-GREEN-RED-IR","455395","520847","910545","48.399064","26.365436","0.015695","582799","727089","838406","36.518868","18.429634","0.019479","600163","731366","832106","32.102376","15.628455","0.021437","652819","764645","890723","26.535642","12.318011","0.024581","626195","795570","957944","18.012700","7.333702","0.032629","2898","7067","12055","3265","7252","11313","3371","7189","10811","3559","7137","10237","3387","6250","8216","DualSpot on"
"MA200-0420","53025","83","1","1.10","1.6","2023-08-24T13:30:00","120","2023/08/24","13:30:00","-15.787173509597778","35.03524149209261","0.2","12","300","64","34","1200","23576","-724","11","150","149.38","114.69","34.69","33.34","25.3","10.81","89236","32.44","DUALSPOT-UV-BLUE-GREEN-RED-IR","451530","517216","907806","48.954360","26.762790","0.015338","579018","723581","837064","37.016944","18.754924","0.018951","596707","728376","831097","32.560386","15.916766","0.020855","649831","762385","890196","26.933202","12.553687","0.023861","628477","799437","964047","18.281262","7.482214","0.031933","2843","6728","11414","3219","6952","10786","3315","6901","10330","3477","6816","9732","3271","5981","7859","DualSpot on"
"MA200-0420","53026","83","1","1.10","1.6","2023-08-24T13:35:00","120","2023/08/24","13:35:00","-15.787198841571808","35.03527465835214","0.1","12","300","64","33","1183","23525","-579","11","150","149.89","115.64","34.25","33.21","25.5","10.84","89232","32.38","DUALSPOT-UV-BLUE-GREEN-RED-IR","448426","514498","906663","49.516512","27.168446","0.015367","579264","725195","841714","37.521652","19.083576","0.018903","593301","725487","830230","33.030854","16.212381","0.020823","646078","759239","888680","27.345676","12.797556","0.023840","626212","797640","963405","18.571648","7.637901","0.031187","2855","6957","11943","3235","7114","11128","3377","7166","10818","3578","7144","10280","3507","6350","8336","DualSpot on"
"MA200-0420","53027","83","1","1.10","1.6","2023-08-24T13:40:00","120","2023/08/24","13:40:00","-15.787190198898315","35.03524649515748","0.1","12","300","64","33","1175","23541","-729","11","150","150.21","115.64","34.57","33.21","25.8","11.03","89240","32.50","DUALSPOT-UV-BLUE-GREEN-RED-IR","447683","514391","910183","50.068008","27.572476","0.015249","574652","720618","839119","38.016344","19.409758","0.018708","592407","725635","832817","33.487476","16.499632","0.020461","645573","759893","891556","27.746228","13.034872","0.023402","626393","798987","966474","18.862678","7.792616","0.030221","2801","6864","11843","3171","6994","10982","3278","6898","10413","3475","6886","9909","3515","6251","8177","DualSpot on"
"MA200-0420","53028","83","1","1.10","1.6","2023-08-24T13:45:00","120","2023/08/24","13:45:00","-15.78720337152481","35.03527699038386","0.3","12","300","68","33","1164","23508","-600","12","150","149.84","113.42","36.41","33.26","26.0","11.14","89228","32.56","DUALSPOT-UV-BLUE-GREEN-RED-IR","769890","689238","906749","0.000000","0.000000","0.000000","862669","887371","842039","0.000000","0.000000","0.000000","840732","861347","831214","0.000000","0.000000","0.000000","858249","866977","887835","0.000000","0.000000","0.000000","754061","862156","962542","0.000000","0.000000","0.000000","","","","","","","","","","","","","","","","Tape advance-DualSpot on"
"MA200-0420","53029","83","1","1.10","1.6","2023-08-24T13:50:00","120","2023/08/24","13:50:00","-15.787232995033264","35.03528865799308","0.1","12","300","68","32","1125","23616","-687","12","150","150.49","113.56","36.93","33.19","25.7","10.94","89224","32.44","DUALSPOT-UV-BLUE-GREEN-RED-IR","755352","683182","905090","0.000000","0.000000","0.000000","852049","882328","840928","0.000000","0.000000","0.000000","835781","861127","833976","0.000000","0.000000","0.000000","856470","868980","892317","0.000000","0.000000","0.000000","749552","859159","960712","0.000000","0.000000","0.000000","","","","","","","","","","","","","","","","Tape advance-DualSpot on"
"MA200-0420","53030","83","1","1.10","1.6","2023-08-24T13:55:00","120","2023/08/24","13:55:00","-15.787121653556824","35.03529166430235","0.2","12","300","64","32","1164","23588","-840","12","150","149.76","113.03","36.72","33.17","25.5","10.79","89216","32.44","DUALSPOT-UV-BLUE-GREEN-RED-IR","748247","682735","910196","1.511594","0.631433","0.000000","841834","877120","839394","1.021713","0.409692","0.000000","828429","858022","833791","0.861983","0.340962","0.000000","850507","866474","892056","0.669446","0.260186","0.000000","751007","862956","966389","0.393325","0.148550","0.000000","7854","10099","7854","6700","8270","6700","6331","7708","6331","5942","7108","5942","4861","5650","4861","DualSpot on"
"MA200-0420","53031","83","1","1.10","1.6","2023-08-24T14:00:00","120","2023/08/24","14:00:00","-15.787238836288452","35.03526882454753","0.1","12","300","64","32","1150","23504","-658","12","150","150.28","113.51","36.77","33.14","25.8","10.92","89220","32.38","DUALSPOT-UV-BLUE-GREEN-RED-IR","738038","678866","910545","2.924612","1.238784","0.000000","833473","873576","839398","2.019274","0.817328","0.000000","821170","854818","833525","1.710051","0.682765","0.000000","844080","863391","891245","1.335401","0.522258","0.000000","747887","861404","966166","0.787902","0.302696","0.000000","7311","9701","7311","6515","8218","6515","6203","7717","6203","5886","7150","5886","4856","5856","4856","DualSpot on"
"MA200-0420","53032","83","1","1.10","1.6","2023-08-24T14:05:00","120","2023/08/24","14:05:00","-15.787194907665253","35.03531015664339","0.0","13","300","64","31","1191","23637","-670","12","150","150.28","113.15","37.13","33.16","25.8","10.98","89220","32.44","DUALSPOT-UV-BLUE-GREEN-RED-IR","723167","670388","904805","4.330452","1.863855","0.088681","826177","870884","840326","3.006650","1.232976","0.107827","814977","852578","834267","2.553769","1.031345","0.000000","834093","856573","886570","2.001626","0.790620","0.000000","741362","855985","961566","1.190532","0.459453","0.000000","7297","9889","11847","6468","8299","9572","6190","7795","6190","5907","7252","5907","4970","5898","4970","DualSpot on"
"MA200-0420","53033","83","1","1.10","1.6","2023-08-24T14:10:00","120","2023/08/24","14:10:00","-15.787162959575653","35.03528916090727","0.0","13","300","64","31","1148","23556","-692","12","150","149.44","112.61","36.82","33.17","25.9","11.02","89220","32.50","DUALSPOT-UV-BLUE-GREEN-RED-IR","714004","666888","905712","5.705684","2.487081","0.071197","819050","868183","841196","3.981847","1.649559","0.086255","808374","849802","834453","3.390959","1.381897","0.094770","828361","854060","886348","2.665967","1.060296","0.000000","742659","859588","967193","1.595537","0.619203","0.000000","7172","9940","12079","6419","8386","9777","6172","7903","9094","5918","7347","5918","5023","6060","5023","DualSpot on"
"MA200-0420","53034","83","1","1.10","1.6","2023-08-24T14:15:00","120","2023/08/24","14:15:00","-15.787117838859558","35.0352753251791","0.1","12","300","64","31","1166","23570","-600","12","150","149.74","112.65","37.09","33.15","25.4","10.74","89212","32.44","DUALSPOT-UV-BLUE-GREEN-RED-IR","708043","665593","909175","6.926496","3.059455","0.062313","809010","861850","838418","4.883456","2.051097","0.077422","800638","845374","832927","4.169027","1.719975","0.084526","826888","855603","890298","3.288990","1.324352","0.098725","738609","856860","965617","1.981214","0.777290","0.000000","6365","9064","11199","5933","8025","9540","5734","7567","8854","5548","7142","8216","4782","5954","4782","DualSpot on"
"MA200-0420","53035","83","1","1.10","1.6","2023-08-24T14:20:00","120","2023/08/24","14:20:00","-15.787141680717468","35.03529482707381","0.0","13","300","64","30","1180","23532","-720","12","150","149.95","112.64","37.31","33.03","25.3","10.56","89208","32.25","DUALSPOT-UV-BLUE-GREEN-RED-IR","701369","663234","910926","8.069536","3.609928","0.055873","804100","860650","840515","5.744142","2.441937","0.068260","795977","843953","834292","4.917211","2.052682","0.075278","819132","850463","887258","3.891293","1.584332","0.086917","737604","857474","967806","2.346243","0.931050","0.000000","5960","8665","10854","5664","7765","9318","5514","7402","8755","5364","6990","8106","4527","5756","4527","DualSpot on"
"MA200-0420","53036","83","1","1.10","1.6","2023-08-24T14:25:00","120","2023/08/24","14:25:00","-15.78721672296524","35.035282488912344","0.1","13","300","64","30","1162","23591","-716","12","150","149.57","112.57","37.00","32.97","25.4","10.57","89204","32.25","DUALSPOT-UV-BLUE-GREEN-RED-IR","693522","659669","911078","9.209969","4.162460","0.050352","797429","857563","840872","6.615693","2.838474","0.060795","789701","840831","833999","5.675364","2.389985","0.066801","813511","847575","886602","4.503210","1.849103","0.077560","730840","851536","962670","2.730510","1.091423","0.000000","5950","8770","11096","5739","7944","9601","5591","7568","9005","5453","7178","8380","4768","6054","4768","DualSpot on"
"MA200-0420","53037","83","1","1.10","1.6","2023-08-24T14:30:00","120","2023/08/24","14:30:00","-15.787189662456512","35.03528565913439","0.0","13","300","64","30","1145","23500","-258","12","150","149.59","112.74","36.84","32.90","25.5","10.59","89200","32.13","DUALSPOT-UV-BLUE-GREEN-RED-IR","684122","654576","909248","10.369846","4.735489","0.046775","788475","852019","838882","7.512394","3.252369","0.056050","782331","836585","832747","6.461841","2.744013","0.061306","811348","848404","889935","5.142854","2.126605","0.069680","730808","853528","966534","3.134985","1.261081","0.102629","6042","9135","11734","5896","8327","10184","5791","7977","9591","5692","7556","8871","5011","6432","7389","DualSpot on"
"MA200-0420","53038","83","1","1.10","1.6","2023-08-24T14:35:00","120","2023/08/24","14:35:00","-15.787139296531677","35.035282488912344","0.1","13","300","64","29","1133","23616","-829","12","150","149.50","112.28","37.22","32.83","25.4","10.42","0","0.00","DUALSPOT-UV-BLUE-GREEN-RED-IR","673281","647842","905096","11.509953","5.313442","0.043078","784283","851447","841894","8.401009","3.676098","0.052159","778227","835689","834889","7.243029","3.107166","0.057087","803700","843338","887159","5.778289","2.414158","0.066724","725730","849469","963690","3.539962","1.442294","0.104901","5964","9121","11829","5866","8440","10443","5776","8101","9848","5677","7751","9240","5038","6802","8014","DualSpot on"
"MA200-0420","53039","83","1","1.10","1.6","2023-08-24T14:40:00","120","2023/08/24","14:40:00","-15.787124991416931","35.03528616204858","0.1","13","300","64","29","1020","23612","-871","12","150","150.08","112.52","37.56","32.72","25.3","10.28","0","0.00","DUALSPOT-UV-BLUE-GREEN-RED-IR","669567","647715","910045","12.613640","5.880432","0.039827","776223","846508","840437","9.261217","4.089427","0.047545","771422","831724","833848","7.999687","3.462417","0.052181","797374","839545","885622","6.397317","2.693662","0.059162","722369","847373","962969","3.928075","1.613432","0.089756","5761","8866","11577","5667","8157","10126","5583","7852","9583","5519","7465","8880","4818","6364","7442","DualSpot on"
"MA200-0420","53040","83","1","1.10","1.6","2023-08-24T14:45:00","120","2023/08/24","14:45:00","-15.78717052936554","35.03526932373643","0.0","12","300","64","29","1041","23554","-762","12","150","149.89","112.60","37.29","32.68","25.3","10.27","0","0.00","DUALSPOT-UV-BLUE-GREEN-RED-IR","661400","642967","908267","13.646044","6.421642","0.038406","768138","841102","838427","10.070002","4.486591","0.046225","764795","827647","832615","8.711649","3.802513","0.050488","796850","841640","890240","6.982376","2.962640","0.057688","722769","849612","967092","4.299246","1.776016","0.082522","5385","8525","11315","5324","7896","9962","5249","7572","9371","5213","7237","8729","4604","6091","7137","DualSpot on"
"MA200-0420","53041","83","1","1.10","1.6","2023-08-24T14:50:00","120","2023/08/24","14:50:00","-15.787145972251892","35.035268656909466","0.0","12","300","64","28","1079","23625","-791","12","150","149.50","112.52","36.98","32.58","25.3","10.18","0","0.00","DUALSPOT-UV-BLUE-GREEN-RED-IR","653140","637895","905966","14.649998","6.958832","0.037182","765711","841851","842487","10.867240","4.880326","0.043908","757945","823237","830961","9.415504","4.140651","0.047990","790005","837005","887722","7.562788","3.230547","0.054726","719082","847002","965696","4.663730","1.939149","0.082017","5240","8532","11511","5252","7893","10046","5193","7591","9474","5175","7268","8829","4525","6162","7328","DualSpot on"
"MA200-0420","53042","83","1","1.10","1.6","2023-08-24T14:55:00","120","2023/08/24","14:55:00","-15.787242829799652","35.03527465835214","0.1","12","300","64","28","1079","23566","-754","12","150","150.02","112.80","37.22","32.52","25.5","10.22","89216","31.75","DUALSPOT-UV-BLUE-GREEN-RED-IR","648429","636458","909262","15.734703","7.546188","0.035075","756695","835501","839812","11.735872","5.319618","0.042047","754574","822821","833709","10.186842","4.518085","0.045607","782254","831592","884627","8.201137","3.528943","0.051502","714637","843663","963638","5.074831","2.121625","0.073359","5648","9268","12605","5708","8749","11270","5677","8418","10603","5677","8043","9829","5091","6848","8110","DualSpot on"
"MA200-0420","53043","83","1","1.10","1.6","2023-08-24T15:00:00","120","2023/08/24","15:00:00","-15.787213504314423","35.035251662135124","0.0","12","300","64","27","1112","23612","-712","12","150","149.84","112.70","37.13","32.42","25.5","10.18","89208","31.63","DUALSPOT-UV-BLUE-GREEN-RED-IR","638355","629616","904795","16.808536","8.135017","0.033487","746060","827178","835000","12.577211","5.746842","0.039691","746639","817226","831099","10.930404","4.885661","0.043464","780581","832538","888222","8.815988","3.820321","0.049482","709725","839667","960784","5.467067","2.300558","0.073002","5596","9314","12802","5534","8529","11050","5477","8218","10434","5473","7873","9708","4861","6731","8090","DualSpot on"
"MA200-0420","53044","83","1","1.10","1.6","2023-08-24T15:05:00","120","2023/08/24","15:05:00","-15.787137806415558","35.03529416024685","0.2","12","300","64","27","1108","23520","-695","12","150","150.08","112.52","37.56","32.37","25.8","10.28","89204","31.63","DUALSPOT-UV-BLUE-GREEN-RED-IR","630582","625715","905932","18.156220","8.885529","0.031220","745822","830953","843038","13.564104","6.250633","0.036517","740656","814225","831583","11.796221","5.312185","0.039328","774714","829395","887823","9.529324","4.156217","0.044214","711141","843514","967141","5.927458","2.503878","0.060497","7035","11735","16241","6502","9942","12883","6388","9427","11917","6360","8971","10991","5715","7561","8911","DualSpot on"
"MA200-0420","53045","83","1","1.10","1.6","2023-08-24T15:10:00","120","2023/08/24","15:10:00","-15.78713446855545","35.035283993929625","0.1","12","300","64","27","1100","23591","-841","12","150","149.63","112.28","37.34","32.31","25.8","10.27","89200","31.56","DUALSPOT-UV-BLUE-GREEN-RED-IR","621900","620744","905470","19.487014","9.625031","0.029249","738171","826426","842775","14.561052","6.762542","0.034603","733810","810260","831152","12.671773","5.748838","0.037692","769492","826932","888224","10.249009","4.499059","0.042466","707770","841667","967098","6.393701","2.716011","0.061024","6961","11631","16188","6582","10162","13266","6473","9707","12393","6430","9210","11386","5800","7935","9512","DualSpot on"
"MA200-0420","53046","83","1","1.10","1.6","2023-08-24T15:15:00","120","2023/08/24","15:15:00","-15.787213623523712","35.03529215976596","0.1","12","300","64","27","1028","23552","-684","12","150","150.62","112.52","38.10","32.26","25.8","10.20","89196","31.50","DUALSPOT-UV-BLUE-GREEN-RED-IR","616698","618841","909302","20.752040","10.354309","0.028128","728484","819242","839613","15.507125","7.262058","0.033059","730509","809922","834358","13.506555","6.173174","0.035539","768311","828591","893017","10.937448","4.834100","0.040168","703500","838616","965569","6.841900","2.921935","0.056098","6603","11242","15862","6232","9719","12789","6159","9246","11844","6138","8822","10948","5564","7550","9030","DualSpot on"
"MA200-0420","53047","83","1","1.10","1.6","2023-08-24T15:20:00","120","2023/08/24","15:20:00","-15.787109792232513","35.03531065955758","0.0","13","300","64","26","1066","23612","-725","12","150","150.21","112.48","37.73","32.15","25.6","10.01","89188","31.31","DUALSPOT-UV-BLUE-GREEN-RED-IR","610708","615686","910567","21.871056","11.005444","0.027276","723430","816844","841126","16.384113","7.734177","0.032589","721368","802759","830328","14.283409","6.579058","0.035584","758686","820857","887494","11.584296","5.155213","0.040029","697863","833777","961897","7.264747","3.119634","0.056207","5843","10136","14484","5780","9276","12401","5734","8931","11661","5769","8538","10758","5251","7319","8876","DualSpot on"
"MA200-0420","53048","83","1","1.10","1.6","2023-08-24T15:25:00","120","2023/08/24","15:25:00","-15.787162780761719","35.035286493599415","0.0","13","300","64","26","1058","23600","-895","12","150","150.00","112.27","37.74","31.97","25.7","9.90","0","0.00","DUALSPOT-UV-BLUE-GREEN-RED-IR","600050","607696","904512","22.963970","11.648071","0.026270","717679","813520","841603","17.238276","8.197338","0.031266","716889","800652","831459","15.042465","6.977956","0.034064","755512","820032","889400","12.213915","5.469203","0.038226","696239","833578","963516","7.669338","3.312724","0.055410","5717","10002","14412","5640","9098","12234","5613","8775","11512","5626","8347","10554","5034","7147","8754","DualSpot on"
"MA200-0420","53049","83","1","1.10","1.6","2023-08-24T15:30:00","120","2023/08/24","15:30:00","-15.787170231342316","35.0352978259325","0.0","14","300","64","26","1016","23604","-658","12","150","149.59","112.33","37.26","31.88","26.0","9.98","0","0.00","DUALSPOT-UV-BLUE-GREEN-RED-IR","597739","607983","910889","24.053662","12.300888","0.025884","711701","809794","841603","18.079454","8.661217","0.030964","711484","797370","831338","15.785653","7.372448","0.033555","751046","817634","889580","12.829546","5.781108","0.038177","694175","832832","964462","8.066540","3.503192","0.054626","5698","10291","15098","5551","9229","12612","5493","8790","11679","5498","8398","10777","4939","7141","8831","DualSpot on"
"MA200-0420","53050","83","1","1.10","1.6","2023-08-24T15:35:00","120","2023/08/24","15:35:00","-15.78712946176529","35.03530399128795","0.0","14","300","64","26","1080","23620","-572","12","150","150.01","112.52","37.49","31.86","26.1","10.01","0","0.00","DUALSPOT-UV-BLUE-GREEN-RED-IR","590389","603232","909941","25.186958","12.984947","0.024865","704969","805228","840886","18.944956","9.140465","0.029626","709137","797604","834990","16.551191","7.782566","0.032287","744373","812901","887277","13.462162","6.103498","0.036557","690576","830284","963475","8.482388","3.702155","0.051433","5915","10718","15828","5702","9477","12996","5648","9082","12131","5640","8628","11106","5162","7414","9158","DualSpot on"
"MA200-0420","53051","83","1","1.10","1.6","2023-08-24T15:40:00","120","2023/08/24","15:40:00","-15.78715866804123","35.03529682382941","0.0","15","300","64","25","1040","23540","-888","12","150","149.63","112.60","37.03","31.80","25.9","9.88","0","0.00","DUALSPOT-UV-BLUE-GREEN-RED-IR","581683","596703","906037","26.247216","13.640789","0.024657","700988","803584","843147","19.776562","9.610438","0.029477","702087","792300","832784","17.290564","8.185714","0.032128","742845","813681","890957","14.081106","6.422950","0.036326","690370","831847","967191","8.893208","3.900905","0.051312","5530","10403","15676","5475","9409","13128","5451","9039","12264","5514","8655","11289","5096","7498","9374","DualSpot on"
"MA200-0420","53052","83","1","1.10","1.6","2023-08-24T15:45:00","120","2023/08/24","15:45:00","-15.787146806716919","35.03529532626271","0.0","15","300","64","24","1132","23584","-944","12","150","149.60","112.73","36.87","31.63","25.7","9.59","89192","30.75","DUALSPOT-UV-BLUE-GREEN-RED-IR","575701","592762","905678","27.233852","14.260666","0.024200","690181","793772","836655","20.557584","10.063545","0.029308","697234","789283","832831","17.988690","8.574746","0.031882","739186","811850","891709","14.663462","6.732232","0.036525","684534","826358","962653","9.274525","4.093232","0.053099","5140","9874","15078","5136","9110","12921","5141","8759","12055","5182","8415","11159","4725","7286","9310","DualSpot on"
"MA200-0420","53053","83","1","1.10","1.6","2023-08-24T15:50:00","120","2023/08/24","15:50:00","-15.787202417850494","35.03528032451868","0.0","15","300","64","24","1128","23608","-892","12","150","149.47","112.56","36.90","31.48","25.9","9.57","89200","30.63","DUALSPOT-UV-BLUE-GREEN-RED-IR","570988","590097","907498","28.260612","14.914070","0.023561","686412","792148","838879","21.375086","10.538001","0.028213","689799","783328","829984","18.719040","8.986109","0.030983","731048","805261","887413","15.281153","7.061413","0.035183","683574","826844","965264","9.680477","4.300334","0.051664","5357","10399","16033","5383","9530","13563","5386","9254","12825","5505","8948","11907","5037","7839","10078","DualSpot on"
"MA200-0420","53054","83","1","1.10","1.6","2023-08-24T15:55:00","120","2023/08/24","15:55:00","-15.787174344062805","35.03527748957276","0.0","14","300","64","24","1016","23584","-568","12","150","150.02","112.76","37.26","31.36","26.1","9.62","89200","30.50","DUALSPOT-UV-BLUE-GREEN-RED-IR","563310","584425","904891","29.323498","15.594078","0.022732","683982","792089","842863","22.201924","11.017052","0.026991","686725","782446","832476","19.458320","9.398905","0.029375","729461","805870","891004","15.900240","7.391022","0.033531","679230","823276","963033","10.090996","4.505895","0.047780","5536","10719","16606","5436","9531","13564","5443","9197","12705","5508","8875","11799","5085","7706","9821","DualSpot on"
"MA200-0420","53055","83","1","1.10","1.6","2023-08-24T16:00:00","120","2023/08/24","16:00:00","-15.787127673625946","35.035299491137266","0.0","14","300","64","24","1056","23600","-760","12","150","149.95","112.72","37.23","31.26","26.3","9.62","89196","30.38","DUALSPOT-UV-BLUE-GREEN-RED-IR","559879","583006","908850","30.373742","16.271931","0.022144","676419","786019","840514","23.028764","11.505802","0.026577","680122","777337","830522","20.196966","9.819205","0.028935","722836","800805","888374","16.521967","7.725477","0.032767","678455","824019","965928","10.505360","4.715051","0.046574","5472","10692","16716","5438","9730","14017","5440","9371","13090","5533","9011","12066","5135","7847","10055","DualSpot on"
"MA200-0420","53056","83","1","1.10","1.6","2023-08-24T16:05:00","120","2023/08/24","16:05:00","-15.787136852741241","35.03528215363622","0.1","15","300","64","23","1079","23554","-808","12","150","149.50","112.72","36.78","31.13","26.5","9.65","89196","30.25","DUALSPOT-UV-BLUE-GREEN-RED-IR","551437","576503","905354","31.506198","17.011058","0.021739","667880","778799","836982","23.885280","12.010389","0.025886","677171","776568","833282","20.960112","10.250810","0.028116","720872","801004","891649","17.160762","8.068112","0.031964","673897","820250","963551","10.933220","4.927973","0.044701","5901","11803","18729","5633","10170","14758","5621","9742","13686","5685","9346","12593","5302","8086","10371","DualSpot on"
"MA200-0420","53057","83","1","1.10","1.6","2023-08-24T16:10:00","120","2023/08/24","16:10:00","-15.7871253490448","35.035289492458105","0.0","14","300","64","23","1052","23608","-908","12","150","149.89","113.39","36.50","30.99","26.7","9.61","89184","30.06","DUALSPOT-UV-BLUE-GREEN-RED-IR","544929","572269","906840","32.852086","17.905818","0.021330","662893","776000","838808","24.845686","12.586019","0.025597","671978","773390","833916","21.805644","10.736734","0.027856","711628","793261","886375","17.858970","8.445205","0.031500","672011","819783","965218","11.388180","5.157692","0.044752","6971","14399","23297","6279","11691","17248","6191","11053","15769","6177","10365","14122","5605","8792","11430","DualSpot on"
"MA200-0420","53058","83","1","1.10","1.6","2023-08-24T16:15:00","120","2023/08/24","16:15:00","-15.787103295326233","35.035294491797686","0.0","14","300","64","23","1088","23608","-828","12","150","149.94","113.35","36.59","30.84","27.0","9.65","89200","29.94","DUALSPOT-UV-BLUE-GREEN-RED-IR","537040","566720","907431","34.377356","18.945714","0.020723","656387","771651","839469","25.911132","13.226143","0.024605","663378","766575","831053","22.746952","11.275934","0.026625","708030","792159","888891","18.647824","8.868522","0.029928","666503","815272","962426","11.921013","5.421060","0.041393","7903","16692","27482","6968","12968","19225","6894","12234","17482","6982","11606","15800","6566","10054","12963","DualSpot on"
"MA200-0420","53059","83","1","1.10","1.6","2023-08-24T16:20:00","120","2023/08/24","16:20:00","-15.787147343158722","35.03527332469821","0.0","14","300","64","22","1000","23633","-758","12","150","149.44","113.39","36.05","30.69","27.1","9.63","89208","29.75","DUALSPOT-UV-BLUE-GREEN-RED-IR","532385","563652","909251","35.450580","19.689736","0.020491","651848","768806","840816","26.766732","13.753691","0.024619","658780","763654","831646","23.517908","11.732225","0.026884","704081","790056","889799","19.309304","9.235023","0.030420","664278","814334","963578","12.375664","5.652778","0.042511","5559","12122","20321","5593","10848","16402","5644","10508","15350","5852","10200","14184","5601","8979","11819","DualSpot on"
"MA200-0420","53060","83","1","1.10","1.6","2023-08-24T16:25:00","120","2023/08/24","16:25:00","-15.787127494812012","35.03526249155402","0.0","14","300","64","22","1000","23600","-1062","12","150","149.41","113.18","36.22","30.57","27.4","9.65","0","0.00","DUALSPOT-UV-BLUE-GREEN-RED-IR","526385","558866","907352","36.382232","20.340576","0.020023","645892","764058","839802","27.563702","14.253925","0.024150","653082","759270","830506","24.249582","12.170371","0.026237","698281","785732","888065","19.943944","9.591729","0.029735","660781","811772","962771","12.816811","5.882927","0.041985","4834","10554","17806","5219","10238","15612","5366","10042","14754","5625","9880","13822","5444","8876","11787","DualSpot on"
"MA200-0420","53061","83","1","1.10","1.6","2023-08-24T16:30:00","120","2023/08/24","16:30:00","-15.787170708179474","35.03527565672994","0.1","14","300","64","21","1125","23529","-900","12","150","150.34","113.27","37.07","30.41","27.6","9.61","0","0.00","DUALSPOT-UV-BLUE-GREEN-RED-IR","521216","554874","906765","37.299768","20.988904","0.019465","639972","759220","838693","28.355352","14.757780","0.023392","648425","755987","830594","24.977062","12.613404","0.025418","694205","783258","888497","20.574662","9.953487","0.028827","658673","810889","963966","13.260365","6.116499","0.040012","4757","10271","17367","5181","10075","15387","5332","9921","14603","5586","9790","13729","5470","8801","11653","DualSpot on"
"MA200-0420","53062","83","1","1.10","1.6","2023-08-24T16:35:00","120","2023/08/24","16:35:00","-15.78718215227127","35.03527382388711","0.1","14","300","64","21","1060","23584","-816","12","150","149.63","112.95","36.67","30.19","27.6","9.45","89224","29.19","DUALSPOT-UV-BLUE-GREEN-RED-IR","515702","550450","905508","38.228868","21.653798","0.019233","634344","754731","838060","29.160396","15.276377","0.023112","646349","755697","834086","25.715576","13.070829","0.025224","688022","778360","886244","21.217164","10.326300","0.028529","655048","808084","962977","13.707966","6.360969","0.040856","4831","10649","18249","5283","10483","16204","5428","10355","15449","5706","10199","14459","5535","9312","12582","DualSpot on"
"MA200-0420","53063","83","1","1.10","1.6","2023-08-24T16:40:00","120","2023/08/24","16:40:00","-15.787144005298615","35.03528616204858","0.0","14","300","64","21","1020","23540","-976","12","150","150.15","112.84","37.31","29.92","27.8","9.32","89228","28.88","DUALSPOT-UV-BLUE-GREEN-RED-IR","513011","548944","909023","39.138792","22.313660","0.018782","631838","753772","841219","29.936862","15.784134","0.022515","641291","751780","833472","26.427504","13.517164","0.024488","687789","780095","891441","21.835664","10.689327","0.027611","652390","806333","963145","14.132336","6.593736","0.039099","4736","10387","17882","5101","10088","15650","5238","9931","14845","5499","9761","13848","5253","8714","11742","DualSpot on"
"MA200-0420","53064","83","1","1.10","1.6","2023-08-24T16:45:00","120","2023/08/24","16:45:00","-15.787167429924011","35.03524166345596","0.2","14","300","64","20","1068","23524","-460","12","150","149.38","112.56","36.82","29.68","28.2","9.32","89236","28.63","DUALSPOT-UV-BLUE-GREEN-RED-IR","508625","545439","908633","39.955388","22.912704","0.018633","627076","749908","840927","30.655690","16.260445","0.022377","636915","748455","833251","27.089236","13.936925","0.024336","684252","777899","891991","22.413090","11.033839","0.027607","651506","806656","965674","14.532669","6.817602","0.039362","4261","9556","16676","4734","9590","15076","4880","9465","14323","5146","9387","13500","4968","8493","11609","DualSpot on"
"MA200-0420","53065","83","1","1.10","1.6","2023-08-24T16:50:00","120","2023/08/24","16:50:00","-15.787160158157349","35.03526332601905","0.1","14","300","64","20","1012","23537","-875","12","150","149.56","112.48","37.08","29.50","28.5","9.34","89240","28.44","DUALSPOT-UV-BLUE-GREEN-RED-IR","503992","541598","907577","40.754940","23.501098","0.018263","621761","745295","839706","31.367342","16.730061","0.021749","632242","744765","832639","27.748828","14.354126","0.023624","679139","773916","890455","22.991962","11.375815","0.026554","648971","805022","965888","14.944912","7.044674","0.037423","4175","9320","16328","4690","9388","14758","4868","9341","14133","5163","9252","13257","5119","8554","11617","DualSpot on"
"MA200-0420","53066","83","1","1.10","1.6","2023-08-24T16:55:00","120","2023/08/24","16:55:00","-15.787159502506256","35.03527915850282","0.0","14","300","64","19","1036","23596","-1000","12","150","149.41","112.36","37.05","29.33","28.8","9.33","89244","28.31","DUALSPOT-UV-BLUE-GREEN-RED-IR","497422","535775","903665","41.634396","24.151566","0.017954","614359","738424","836373","32.160870","17.258544","0.021379","625369","738641","829730","28.494010","14.828505","0.023160","671456","767196","886260","23.656402","11.772841","0.026118","643614","800169","962656","15.436943","7.312034","0.035744","4597","10312","18207","5235","10574","16758","5506","10630","16191","5933","10751","15525","6117","10081","13648","DualSpot on"
"MA200-0420","53067","83","1","1.10","1.6","2023-08-24T17:00:00","120","2023/08/24","17:00:00","-15.787156641483307","35.035262160003185","0.0","14","300","64","19","1008","23700","-736","12","150","149.50","112.48","37.02","29.18","28.9","9.26","0","0.00","DUALSPOT-UV-BLUE-GREEN-RED-IR","493422","532637","904169","42.498788","24.796082","0.017703","609942","734957","836812","32.936722","17.779218","0.021042","621859","736426","831064","29.215902","15.290534","0.022750","668753","766117","888441","24.305306","12.158789","0.025411","642335","800313","965362","15.918518","7.574909","0.034981","4513","10226","18228","5113","10427","16659","5328","10362","15889","5787","10460","15136","5980","9920","13496","DualSpot on"
"MA200-0420","53068","83","1","1.10","1.6","2023-08-24T17:05:00","120","2023/08/24","17:05:00","-15.78720498085022","35.03527549281716","0.2","14","300","64","19","1066","23483","-466","12","150","149.95","112.52","37.43","28.98","28.9","9.09","0","0.00","DUALSPOT-UV-BLUE-GREEN-RED-IR","489713","529688","904744","43.315160","25.412446","0.017416","606051","731969","837500","33.663328","18.272122","0.020629","618454","734142","832122","29.890888","15.730048","0.022380","665951","764727","890035","24.905760","12.523076","0.025038","640692","799811","967143","16.357655","7.821434","0.034754","4261","9671","17351","4787","9761","15667","4980","9748","15044","5353","9763","14223","5451","9200","12634","DualSpot on"
"MA200-0420","53069","83","1","1.10","1.6","2023-08-24T17:10:00","120","2023/08/24","17:10:00","-15.78718101978302","35.035286493599415","0.1","14","300","64","18","1016","23541","-712","12","150","150.01","112.15","37.86","28.72","29.1","8.99","89240","27.56","DUALSPOT-UV-BLUE-GREEN-RED-IR","487996","529058","910382","44.275596","26.139568","0.016987","600115","726722","836192","34.481012","18.830078","0.020078","613197","729816","831339","30.647560","16.222624","0.021652","660212","760114","888287","25.572578","12.930000","0.024257","637752","797856","967391","16.841168","8.091432","0.033095","5030","11280","20289","5404","10925","17567","5601","10801","16650","5965","10783","15711","6022","9962","13605","DualSpot on"
"MA200-0420","53070","83","1","1.10","1.6","2023-08-24T17:15:00","120","2023/08/24","17:15:00","-15.787141680717468","35.035269156098366","0.0","14","300","64","18","1032","23568","-976","12","150","149.82","112.16","37.66","28.46","29.4","8.91","89240","27.31","DUALSPOT-UV-BLUE-GREEN-RED-IR","478803","520975","908280","45.938864","27.445870","0.016737","596313","724867","840965","35.680392","19.652462","0.019586","605883","723893","830402","31.732750","16.926652","0.021003","652648","754313","886629","26.528332","13.502113","0.023167","632977","794503","967042","17.551102","8.474396","0.030759","8709","20375","37687","7927","16189","26320","8032","15521","24083","8548","15242","22180","8841","14206","19215","DualSpot on"
"MA200-0420","53071","83","1","1.10","1.6","2023-08-24T17:20:00","120","2023/08/24","17:20:00","-15.787197709083557","35.035278990864754","0.1","14","300","64","17","1045","23625","-820","12","150","150.59","112.17","38.43","28.21","29.7","8.83","89232","27.13","DUALSPOT-UV-BLUE-GREEN-RED-IR","470511","513122","904155","47.241228","28.520978","0.016523","587751","716556","837256","36.689104","20.367300","0.019245","601829","721300","832610","32.668622","17.550050","0.020544","649616","753309","890036","27.381964","14.021952","0.022441","627587","790204","965298","18.231342","8.838369","0.028615","6819","16433","31081","6666","13791","22681","6926","13469","21063","7635","13572","19804","8471","13232","17711","DualSpot on"
"MA200-0420","53072","83","1","1.10","1.6","2023-08-24T17:25:00","120","2023/08/24","17:25:00","-15.787150204181671","35.03527599200606","0.1","14","300","64","17","1080","23604","-948","12","150","149.41","111.78","37.63","27.96","30.0","8.75","89228","26.75","DUALSPOT-UV-BLUE-GREEN-RED-IR","468296","511700","910051","48.371856","29.452800","0.016277","586434","716761","842937","37.596724","21.017130","0.019117","597078","717492","832925","33.508510","18.119434","0.020540","645237","750381","890757","28.142094","14.492733","0.022526","625157","789185","967165","18.816448","9.160978","0.029454","5941","14545","27941","6019","12802","21402","6238","12563","20010","6822","12552","18636","7312","11977","16403","DualSpot on"
"MA200-0420","53073","83","1","1.10","1.6","2023-08-24T17:30:00","120","2023/08/24","17:30:00","-15.787124633789062","35.035290993750095","0.1","14","300","64","16","996","23616","-888","12","150","149.41","111.45","37.96","27.66","30.3","8.65","89240","26.44","DUALSPOT-UV-BLUE-GREEN-RED-IR","462654","506337","907320","49.270616","30.198266","0.015985","580369","710875","840793","38.374252","21.583542","0.018826","591368","712297","831084","34.239920","18.623562","0.020204","639464","745467","888689","28.807678","14.917343","0.022363","621742","786620","966919","19.331748","9.457975","0.029766","4736","11535","22299","5171","11062","18633","5448","11026","17678","5991","11222","16840","6459","10930","15213","DualSpot on"
"MA200-0420","53074","83","1","1.10","1.6","2023-08-24T17:35:00","120","2023/08/24","17:35:00","-15.787190675735474","35.03527148813009","0.0","15","300","64","16","1041","23550","-883","12","150","149.59","111.42","38.17","27.41","30.6","8.60","0","0.00","DUALSPOT-UV-BLUE-GREEN-RED-IR","455442","499680","906150","50.718552","31.392364","0.015516","572545","703555","839329","39.556972","22.440582","0.018215","584825","706868","831064","35.349072","19.383454","0.019488","632293","739874","887724","29.820874","15.557989","0.021422","616732","783124","967052","20.153388","9.919746","0.027681","7632","18376","35828","7869","16647","28155","8264","16530","26565","9123","16840","25259","10301","16901","23299","DualSpot on"
"MA200-0420","53075","83","1","1.10","1.6","2023-08-24T17:40:00","120","2023/08/24","17:40:00","-15.787141561508179","35.035280488431454","0.0","15","300","68","16","996","23608","-836","13","150","149.81","113.97","35.83","27.14","31.3","8.67","0","0.00","DUALSPOT-UV-BLUE-GREEN-RED-IR","753366","687143","908879","0.000000","0.000000","0.000000","849193","883690","842037","0.000000","0.000000","0.000000","830710","859563","832445","0.000000","0.000000","0.000000","852152","868127","890902","0.000000","0.000000","0.000000","751296","862827","965349","0.000000","0.000000","0.000000","","","","","","","","","","","","","","","","Tape advance-DualSpot on"
"MA200-0420","53076","83","1","1.10","1.6","2023-08-24T17:45:00","120","2023/08/24","17:45:00","-15.787257611751556","35.03521982580423","0.3","15","300","68","15","1000","23588","-792","13","150","150.02","114.10","35.92","26.89","31.7","8.67","89240","25.63","DUALSPOT-UV-BLUE-GREEN-RED-IR","729711","678772","908452","0.000000","0.000000","0.000000","825592","869876","834756","0.000000","0.000000","0.000000","817799","855108","832921","0.000000","0.000000","0.000000","841788","864661","891182","0.000000","0.000000","0.000000","747083","862181","967031","0.000000","0.000000","0.000000","","","","","","","","","","","","","","","","Tape advance-DualSpot on"
"MA200-0420","53077","83","1","1.10","1.6","2023-08-24T17:50:00","120","2023/08/24","17:50:00","-15.787197828292847","35.035266660153866","0.1","14","300","64","14","1048","23628","-867","13","150","149.41","113.68","35.72","26.66","32.1","8.65","89232","25.38","DUALSPOT-UV-BLUE-GREEN-RED-IR","709397","671048","908031","2.785284","1.099258","0.000000","816473","870210","840851","1.838078","0.690234","0.000000","805363","850425","833138","1.556681","0.573432","0.000000","831443","860818","891130","1.227505","0.437833","0.000000","738135","856108","962710","0.750040","0.257090","0.000000","14390","18073","14390","11986","14323","11986","11368","13326","11368","10833","12296","10833","9216","10053","9216","DualSpot on"
"MA200-0420","53078","83","1","1.10","1.6","2023-08-24T17:55:00","120","2023/08/24","17:55:00","-15.787193536758423","35.035235326737165","0.1","14","300","64","13","1032","23596","-792","13","150","149.41","113.91","35.49","26.47","32.5","8.65","89236","25.25","DUALSPOT-UV-BLUE-GREEN-RED-IR","691146","663870","908061","5.403614","2.182241","0.065607","796513","858220","835046","3.626290","1.385444","0.078907","793336","845688","833307","3.088280","1.153969","0.083163","820432","855995","890108","2.454659","0.885795","0.000000","732361","853626","962455","1.516389","0.524386","0.000000","13500","17920","20915","11637","14519","16302","11162","13578","15020","10807","12661","10807","9397","10519","9397","DualSpot on"
"MA200-0420","53079","83","1","1.10","1.6","2023-08-24T18:00:00","120","2023/08/24","18:00:00","-15.787230491638184","35.035263162106276","0.0","14","300","64","13","1020","23484","-548","13","150","150.01","114.01","36.00","26.28","32.7","8.60","89244","25.06","DUALSPOT-UV-BLUE-GREEN-RED-IR","675918","658329","909939","7.834499","3.224640","0.048295","790474","860568","843095","5.341713","2.071118","0.056694","778963","837947","830492","4.572536","1.731509","0.059532","808734","850200","888091","3.657748","1.335339","0.061284","730555","855753","967528","2.285432","0.798491","0.000000","12523","17008","20145","11154","14120","15999","10808","13320","14850","10586","12528","13645","9422","10637","9422","DualSpot on"
"MA200-0420","53080","83","1","1.10","1.6","2023-08-24T18:05:00","120","2023/08/24","18:05:00","-15.787151515483856","35.0352429933846","0.0","13","300","64","12","1045","23625","-1412","13","150","150.15","114.61","35.53","26.11","33.0","8.57","89244","24.88","DUALSPOT-UV-BLUE-GREEN-RED-IR","656311","647678","904482","10.184975","4.261669","0.041345","772450","849454","838064","7.053205","2.771509","0.048931","768504","834155","831631","6.068049","2.326744","0.051940","798630","845980","887780","4.883344","1.801284","0.054033","720983","848811","962442","3.081056","1.085444","0.065347","12045","17141","20807","11070","14611","16904","10833","13907","15818","10728","13155","14573","9697","11280","12142","DualSpot on"
"MA200-0420","53081","83","1","1.10","1.6","2023-08-24T18:10:00","120","2023/08/24","18:10:00","-15.78715968132019","35.035265155136585","0.3","14","300","64","11","941","23662","-750","13","150","149.69","113.51","36.18","25.96","33.3","8.56","89244","24.75","DUALSPOT-UV-BLUE-GREEN-RED-IR","643215","643099","908069","12.579529","5.352932","0.034011","762449","846639","841199","8.723835","3.474182","0.039745","755794","827431","829835","7.516472","2.916985","0.041592","787853","840653","886269","6.066992","2.260035","0.042177","718988","850686","967256","3.852621","1.363870","0.044034","12391","17713","21656","10911","14396","16702","10594","13542","15412","10462","12719","14059","9495","10749","11435","DualSpot on"
"MA200-0420","53082","83","1","1.10","1.6","2023-08-24T18:15:00","120","2023/08/24","18:15:00","-15.787248492240906","35.03526982292533","0.1","14","300","64","11","980","23604","-1164","13","150","149.51","113.98","35.53","25.84","33.4","8.54","0","0.00","DUALSPOT-UV-BLUE-GREEN-RED-IR","627545","635942","908647","15.119267","6.542515","0.031078","744674","835033","835772","10.438830","4.208694","0.036913","745371","823168","830579","8.994081","3.528008","0.038877","778959","837213","886795","7.267409","2.731000","0.040327","709956","844234","962596","4.634544","1.644433","0.040971","13087","19667","24686","11153","15327","18146","10762","14279","16548","10565","13300","14946","9582","11032","11829","DualSpot on"
"MA200-0420","53083","83","1","1.10","1.6","2023-08-24T18:20:00","120","2023/08/24","18:20:00","-15.787120521068573","35.03527048975229","0.1","14","300","64","10","1016","23636","-1204","13","150","149.57","113.92","35.66","25.73","33.7","8.56","0","0.00","DUALSPOT-UV-BLUE-GREEN-RED-IR","611451","626892","905563","17.380642","7.636287","0.028368","735875","832372","838776","11.986048","4.886403","0.033601","738045","821379","833475","10.333667","4.090739","0.034986","773530","836891","890320","8.361496","3.166145","0.036290","703141","839951","960205","5.354374","1.905016","0.036514","11659","18017","22999","10068","14090","16858","9762","13102","15291","9635","12243","13833","8827","10209","10972","DualSpot on"
"MA200-0420","53084","83","1","1.10","1.6","2023-08-24T18:25:00","120","2023/08/24","18:25:00","-15.787163615226746","35.0352543219924","0.0","12","300","64","9","1028","23552","-851","13","150","149.38","113.82","35.55","25.62","33.9","8.56","89244","24.44","DUALSPOT-UV-BLUE-GREEN-RED-IR","599944","620851","905294","19.257286","8.578663","0.027150","726287","827555","839058","13.333364","5.499539","0.032809","729266","817026","833339","11.514776","4.608158","0.034873","765464","832927","889694","9.341285","3.570998","0.036744","702118","842193","965162","6.012611","2.153205","0.040569","9684","15568","20295","8775","12784","15598","8615","12082","14395","8636","11424","13149","8078","9751","10684","DualSpot on"
"MA200-0420","53085","83","1","1.10","1.6","2023-08-24T18:30:00","120","2023/08/24","18:30:00","-15.787107706069946","35.03527982532978","0.0","12","300","64","9","975","23537","-608","13","150","149.95","113.62","36.33","25.52","34.1","8.54","89244","24.31","DUALSPOT-UV-BLUE-GREEN-RED-IR","589987","616848","909321","21.372356","9.665413","0.024598","717785","824521","841749","14.831328","6.190440","0.029111","718250","810539","831553","12.820855","5.186177","0.030592","755164","826947","887322","10.427279","4.022649","0.031531","696139","838810","963968","6.743202","2.429569","0.033016","10933","17571","23052","9773","14099","17199","9543","13210","15701","9589","12473","14285","8982","10627","11554","DualSpot on"
"MA200-0420","53086","83","1","1.10","1.6","2023-08-24T18:35:00","120","2023/08/24","18:35:00","-15.787168383598328","35.035273157060146","0.1","12","300","64","8","1068","23604","-1268","13","150","149.69","113.74","35.95","25.43","34.2","8.51","89240","24.25","DUALSPOT-UV-BLUE-GREEN-RED-IR","573379","606148","904012","23.647094","10.835026","0.022684","703406","814680","837687","16.373251","6.906429","0.027362","709912","807120","832951","14.154619","5.779279","0.028793","749229","825732","890076","11.527973","4.483094","0.030034","688327","833230","960245","7.483742","2.709473","0.031401","11746","19110","25338","10049","14765","18206","9735","13698","16432","9708","12850","14850","9095","10877","11888","DualSpot on"
"MA200-0420","53087","83","1","1.10","1.6","2023-08-24T18:40:00","120","2023/08/24","18:40:00","-15.787208259105682","35.03526232764125","0.0","12","300","64","32","970","23529","-887","13","150","150.02","114.22","35.80","26.18","33.9","9.04","89280","27.19","DUALSPOT-UV-BLUE-GREEN-RED-IR","565716","602873","907224","25.345658","11.731815","0.022107","697095","812947","841268","17.699362","7.543512","0.027202","702219","803430","833676","15.337336","6.321374","0.028705","738288","818258","885832","12.521860","4.912345","0.030623","688040","836556","966589","8.184288","2.970840","0.028111","8734","14713","19866","8607","13192","16598","8597","12571","15358","8730","12029","14159","8568","10199","11128","DualSpot on"
"MA200-0420","53088","83","1","1.10","1.6","2023-08-24T18:45:00","120","2023/08/24","18:45:00","-15.78713047504425","35.0352664925158","0.0","12","300","64","35","1040","23472","-836","13","150","150.02","113.84","36.18","26.99","32.9","9.32","89296","28.13","DUALSPOT-UV-BLUE-GREEN-RED-IR","559818","600576","910857","26.801414","12.515709","0.021104","686568","805447","838117","18.854262","8.102957","0.025398","695690","800414","834520","16.371544","6.798647","0.026626","734140","817715","888658","13.401463","5.295974","0.028423","682616","833266","965144","8.828671","3.215960","0.026770","7511","12724","17292","7520","11461","14431","7542","10950","13371","7752","10636","12521","7907","9463","10354","DualSpot on"
"MA200-0420","53089","83","1","1.10","1.6","2023-08-24T18:50:00","120","2023/08/24","18:50:00","-15.787170708179474","35.03526632487774","0.1","12","300","64","37","1048","23444","-788","13","150","149.76","113.39","36.37","27.66","32.0","9.44","89292","28.75","DUALSPOT-UV-BLUE-GREEN-RED-IR","551020","595093","909717","28.258834","13.307049","0.020065","682751","805705","843081","20.000082","8.659800","0.023803","687124","794917","832676","17.391626","7.271690","0.024943","725619","812169","885943","14.269619","5.675200","0.026304","678807","831932","965887","9.463726","3.454045","0.022198","7549","12780","17436","7491","11350","14297","7469","10798","13191","7681","10461","12297","7823","9145","9904","DualSpot on"
"MA200-0420","53090","83","1","1.10","1.6","2023-08-24T18:55:00","120","2023/08/24","18:55:00","-15.78712522983551","35.03529365733266","0.1","12","300","64","39","991","23487","-1012","13","150","149.76","113.82","35.93","28.19","31.1","9.50","89288","29.19","DUALSPOT-UV-BLUE-GREEN-RED-IR","539923","586986","904798","29.752678","14.136021","0.019857","671450","796748","838270","21.096324","9.203719","0.023866","680734","791540","832978","18.361738","7.730912","0.025222","725220","815396","892745","15.087591","6.040861","0.027149","672646","827448","962862","10.064499","3.681418","0.023715","7708","13550","18837","7139","11221","14380","7076","10610","13180","7209","10209","12212","7373","8839","9684","DualSpot on"
"MA200-0420","53091","83","1","1.10","1.6","2023-08-24T19:00:00","120","2023/08/24","19:00:00","-15.787148177623749","35.035270653665066","0.0","12","300","64","40","1091","23600","-1175","13","150","149.35","113.38","35.97","28.62","30.4","9.53","89296","29.56","DUALSPOT-UV-BLUE-GREEN-RED-IR","532954","583485","907702","31.371720","15.053837","0.019193","665707","794512","840893","22.270046","9.798302","0.023170","670831","784247","829437","19.401076","8.231994","0.024460","715004","807757","887949","15.969681","6.443331","0.026527","668909","826123","963785","10.718742","3.934130","0.023879","8387","14989","21079","7674","12255","15855","7610","11567","14483","7805","11227","13541","8060","9815","10833","DualSpot on"
"MA200-0420","53092","83","1","1.10","1.6","2023-08-24T19:05:00","120","2023/08/24","19:05:00","-15.787131011486053","35.03526282683015","0.0","12","300","64","41","1096","23492","-1036","13","150","150.02","113.98","36.04","28.99","29.8","9.55","89308","29.88","DUALSPOT-UV-BLUE-GREEN-RED-IR","526382","578975","906315","32.460648","15.677494","0.018817","658342","789053","838916","23.148294","10.252954","0.023052","668279","784401","832830","20.192214","8.622961","0.024547","708267","803048","885544","16.642740","6.757632","0.026763","667199","826492","966125","11.214767","4.133194","0.026662","5611","10165","14418","5712","9353","12247","5762","9007","11425","5924","8750","10682","6079","7716","8672","DualSpot on"
"MA200-0420","53093","83","1","1.10","1.6","2023-08-24T19:10:00","120","2023/08/24","19:10:00","-15.787124991416931","35.03528732433915","0.1","12","300","64","42","1012","23548","-920","13","150","149.63","114.10","35.53","29.27","29.3","9.52","89304","30.06","DUALSPOT-UV-BLUE-GREEN-RED-IR","520711","575369","906367","33.553058","16.308575","0.018617","652767","785623","839046","24.013968","10.705253","0.022913","662532","780642","832089","20.966220","9.009566","0.024536","708682","806316","891922","17.301246","7.069604","0.027086","662096","822454","963346","11.695244","4.330600","0.028782","5623","10433","14982","5624","9438","12505","5632","9034","11598","5790","8810","10896","5882","7762","8867","DualSpot on"
"MA200-0420","53094","83","1","1.10","1.6","2023-08-24T19:15:00","120","2023/08/24","19:15:00","-15.78715032339096","35.03524332866073","0.0","12","300","64","43","1079","23562","-1125","13","150","150.01","115.92","34.09","29.46","28.9","9.49","89308","30.19","DUALSPOT-UV-BLUE-GREEN-RED-IR","508377","566754","904050","35.675576","17.551864","0.018534","642136","777903","836605","25.358150","11.394551","0.022655","653356","774467","830153","22.121320","9.571756","0.024219","698938","799340","888035","18.246306","7.499241","0.026355","659465","822511","965915","12.355152","4.592914","0.029034","10755","21418","31745","8596","14987","20202","8273","13689","17820","8179","12642","15756","7952","10747","12401","DualSpot on"
"MA200-0420","53095","83","1","1.10","1.6","2023-08-24T19:20:00","120","2023/08/24","19:20:00","-15.787155449390411","35.03525833040476","0.1","12","300","64","44","1108","23564","-1504","13","150","149.81","115.79","34.01","29.62","28.6","9.47","89316","30.31","DUALSPOT-UV-BLUE-GREEN-RED-IR","503249","564534","909096","37.262768","18.510396","0.018174","638089","777083","840764","26.485330","11.998048","0.022678","649611","773778","833606","23.115696","10.078203","0.024460","692582","795521","887329","19.081600","7.899204","0.027151","653696","818163","963195","12.954403","4.842062","0.030783","8051","16552","24943","7216","13153","18069","7129","12361","16405","7237","11797","15018","7229","10232","12024","DualSpot on"
"MA200-0420","53096","83","1","1.10","1.6","2023-08-24T19:25:00","120","2023/08/24","19:25:00","-15.787128031253815","35.03526399284601","0.0","13","300","64","46","1033","23512","-1029","13","150","150.21","115.80","34.41","29.73","28.3","9.42","89312","30.38","DUALSPOT-UV-BLUE-GREEN-RED-IR","496739","560500","910783","38.752072","19.412212","0.017427","632385","774137","842737","27.623726","12.615084","0.021819","640458","766591","830257","24.137272","10.608528","0.023673","687804","793572","888932","19.953938","8.324055","0.026213","651022","817744","965328","13.587414","5.113968","0.030676","7553","15394","23265","7287","13294","18343","7324","12796","17088","7557","12388","15845","7636","11039","13093","DualSpot on"
"MA200-0420","53097","83","1","1.10","1.6","2023-08-24T19:30:00","120","2023/08/24","19:30:00","-15.787144005298615","35.0352538228035","0.0","14","300","64","47","983","23558","-804","13","150","149.96","115.20","34.76","29.80","28.1","9.37","89312","30.38","DUALSPOT-UV-BLUE-GREEN-RED-IR","487548","552870","905100","39.992480","20.160182","0.016706","622423","765498","837976","28.641440","13.167686","0.020834","634500","762846","830190","25.059620","11.088194","0.022536","682492","790585","889044","20.744540","8.713517","0.025147","646865","815134","964696","14.161690","5.367988","0.030268","6324","12638","19056","6549","11784","16239","6647","11456","15272","6885","11240","14394","6963","10208","12188","DualSpot on"
"MA200-0420","53098","83","1","1.10","1.6","2023-08-24T19:35:00","120","2023/08/24","19:35:00","-15.787129998207092","35.03523399308324","0.0","14","300","64","48","1008","23500","-1012","13","150","149.50","114.97","34.53","29.79","28.0","9.34","89324","30.31","DUALSPOT-UV-BLUE-GREEN-RED-IR","481440","549554","909709","41.756588","21.264976","0.016491","616836","763075","841672","29.983100","13.924085","0.020707","626191","756989","829099","26.244380","11.728370","0.022517","674774","785512","887833","21.741350","9.220457","0.025124","641921","811962","963944","14.854027","5.681211","0.030329","9012","18792","28941","8651","16239","22818","8555","15392","20915","8698","14729","19169","8412","12671","15309","DualSpot on"
"MA200-0420","53099","83","1","1.10","1.6","2023-08-24T19:40:00","120","2023/08/24","19:40:00","-15.787175357341766","35.03525749221444","0.0","14","300","64","50","1037","23529","-945","13","150","149.63","115.05","34.58","29.78","28.0","9.33","89332","30.31","DUALSPOT-UV-BLUE-GREEN-RED-IR","475777","545584","910206","42.995032","22.044426","0.016091","606565","753660","836041","30.992642","14.495810","0.020141","620684","753443","829326","27.159022","12.223999","0.021853","669646","782480","887948","22.520108","9.617925","0.024389","638369","809928","963960","15.408192","5.933273","0.029528","6322","13239","20517","6505","12257","17311","6600","11899","16237","6791","11532","15066","6728","10183","12345","DualSpot on"
"MA200-0420","53100","83","1","1.10","1.6","2023-08-24T19:45:00","120","2023/08/24","19:45:00","-15.78719699382782","35.03523866087198","0.1","14","300","64","52","1084","23604","-1132","13","150","149.69","114.85","34.84","29.77","28.1","9.34","89340","30.31","DUALSPOT-UV-BLUE-GREEN-RED-IR","471386","542590","911374","44.056772","22.726388","0.015836","601919","750693","837042","31.881450","15.008458","0.019762","616203","750684","830002","27.964644","12.670345","0.021517","664521","779138","887325","23.216018","9.979556","0.023934","635110","807898","963812","15.904922","6.167684","0.029912","5429","11496","17960","5737","10907","15506","5823","10635","14622","6079","10413","13680","6041","9398","11524","DualSpot on"
"MA200-0420","53101","83","1","1.10","1.6","2023-08-24T19:50:00","120","2023/08/24","19:50:00","-15.787175238132477","35.03524499759078","0.0","14","300","64","53","1104","23512","-1008","13","150","150.02","115.32","34.69","29.81","28.1","9.37","89336","30.31","DUALSPOT-UV-BLUE-GREEN-RED-IR","462235","534366","905040","45.292700","23.538764","0.015710","596254","746700","837463","32.865234","15.584885","0.019570","611529","747999","831209","28.854364","13.166729","0.021181","661408","778294","889982","23.979018","10.381132","0.023741","632547","807086","965363","16.459587","6.426910","0.028915","6294","13753","21824","6324","12317","17722","6405","11878","16472","6637","11612","15411","6718","10437","12820","DualSpot on"
"MA200-0420","53102","83","1","1.10","1.6","2023-08-24T19:55:00","120","2023/08/24","19:55:00","-15.787181317806244","35.035235825926065","0.1","14","300","64","55","1025","23541","-941","13","150","149.69","114.77","34.92","29.83","28.0","9.37","89340","30.31","DUALSPOT-UV-BLUE-GREEN-RED-IR","455251","529300","906106","46.966088","24.630798","0.015043","589569","742234","838744","34.159848","16.345219","0.018758","604714","743357","831333","30.006704","13.813448","0.020333","655534","774936","890658","24.958994","10.896879","0.022609","628595","804996","965968","17.156990","6.752928","0.027358","8563","18367","29179","8362","16141","23278","8335","15375","21380","8566","14817","19661","8488","13041","15997","DualSpot on"
"MA200-0420","53103","83","1","1.10","1.6","2023-08-24T20:00:00","120","2023/08/24","20:00:00","-15.78718101978302","35.035233329981565","0.1","13","300","64","57","1048","23600","-1020","13","150","150.28","114.73","35.55","29.83","28.0","9.37","89344","30.31","DUALSPOT-UV-BLUE-GREEN-RED-IR","451301","526119","905562","47.781616","25.176346","0.014863","585067","738601","838195","34.866244","16.771660","0.018538","599978","739532","830139","30.653568","14.186969","0.020114","651225","771819","889775","25.521784","11.201414","0.022369","625462","802665","965036","17.567082","6.949848","0.027118","4175","9014","14404","4564","8893","12906","4680","8724","12207","4921","8595","11469","4993","7738","9536","DualSpot on"
"MA200-0420","53104","83","1","1.10","1.6","2023-08-24T20:05:00","120","2023/08/24","20:05:00","-15.787131011486053","35.03524799272418","0.1","13","300","64","58","1012","23588","-959","13","150","149.63","114.73","34.89","29.83","28.0","9.37","89348","30.25","DUALSPOT-UV-BLUE-GREEN-RED-IR","450525","526528","911193","48.562912","25.709506","0.014939","580238","734476","837017","35.552116","17.191122","0.018616","595859","736385","829643","31.285060","14.555442","0.020202","646553","768196","888304","26.076374","11.505225","0.022592","622336","800312","964162","17.976124","7.149454","0.027864","3999","8974","14570","4431","8911","13105","4569","8766","12418","4849","8734","11802","4980","7990","9978","DualSpot on"
"MA200-0420","53105","83","1","1.10","1.6","2023-08-24T20:10:00","120","2023/08/24","20:10:00","-15.787111580371857","35.03522915765643","0.1","13","300","64","60","1016","23537","-854","13","150","149.38","114.14","35.24","29.83","28.0","9.33","89352","30.25","DUALSPOT-UV-BLUE-GREEN-RED-IR","443569","519733","904465","49.379088","26.272136","0.014680","575960","731021","836656","36.252108","17.624562","0.018256","595450","737856","834486","31.930400","14.935834","0.019755","643344","766325","888883","26.638062","11.815686","0.022030","619972","798973","964519","18.394650","7.356094","0.027162","4200","9378","15265","4546","9118","13444","4694","8962","12713","4937","8839","11949","5122","8191","10237","DualSpot on"
"MA200-0420","53106","83","1","1.10","1.6","2023-08-24T20:15:00","120","2023/08/24","20:15:00","-15.787196040153503","35.03521882370114","0.0","13","300","64","63","1075","23550","-954","13","150","150.15","114.53","35.61","29.80","28.0","9.30","89360","30.19","DUALSPOT-UV-BLUE-GREEN-RED-IR","443221","520396","910211","50.093176","26.776340","0.014611","576303","733199","842538","36.890836","18.028326","0.018132","590937","733972","833013","32.517444","15.290968","0.019710","638100","761770","886195","27.156406","12.107491","0.021870","616405","795841","962586","18.772934","7.545772","0.026953","3662","8315","13659","4134","8404","12486","4255","8279","11850","4540","8220","11181","4613","7440","9339","DualSpot on"
"MA200-0420","53107","83","1","1.10","1.6","2023-08-24T20:20:00","120","2023/08/24","20:20:00","-15.787165641784668","35.03523765876889","0.0","13","300","68","65","1170","23545","-983","14","150","149.76","113.35","36.41","29.77","28.0","9.28","89364","30.19","DUALSPOT-UV-BLUE-GREEN-RED-IR","764005","687082","904564","0.000000","0.000000","0.000000","854392","880599","836858","0.000000","0.000000","0.000000","840125","862192","832983","0.000000","0.000000","0.000000","856175","866298","887280","0.000000","0.000000","0.000000","757568","867288","966977","0.000000","0.000000","0.000000","","","","","","","","","","","","","","","","Tape advance-DualSpot on"
"MA200-0420","53108","83","1","1.10","1.6","2023-08-24T20:25:00","120","2023/08/24","20:25:00","-15.787119150161743","35.03524732589722","0.1","14","300","68","66","1068","23452","-788","14","150","149.89","115.68","34.21","29.72","27.9","9.22","89368","30.06","DUALSPOT-UV-BLUE-GREEN-RED-IR","752777","684943","908799","0.000000","0.000000","0.000000","846496","879589","840182","0.000000","0.000000","0.000000","828928","856567","831121","0.000000","0.000000","0.000000","853590","868360","892385","0.000000","0.000000","0.000000","752237","863984","965182","0.000000","0.000000","0.000000","","","","","","","","","","","","","","","","Tape advance-DualSpot on"
"MA200-0420","53109","83","1","1.10","1.6","2023-08-24T20:30:00","120","2023/08/24","20:30:00","-15.787161648273468","35.03525582700968","0.0","14","300","64","68","984","23572","-488","14","150","150.08","115.32","34.76","29.66","28.0","9.22","89368","30.00","DUALSPOT-UV-BLUE-GREEN-RED-IR","735633","676606","904596","1.843357","0.760890","0.000000","832410","871746","837011","1.298036","0.513666","0.000000","821824","854965","833185","1.107029","0.433516","0.000000","842551","861733","888539","0.873486","0.335827","0.000000","746026","859724","962314","0.529602","0.197978","0.000000","9388","12857","9388","8344","10955","8344","7969","10354","7969","7599","9693","7599","6415","7956","6415","DualSpot on"
"MA200-0420","53110","83","1","1.10","1.6","2023-08-24T20:35:00","120","2023/08/24","20:35:00","-15.787151336669922","35.03525332733989","0.0","14","300","64","70","1004","23587","-762","14","150","150.46","115.73","34.73","29.62","28.0","9.18","89376","29.94","DUALSPOT-UV-BLUE-GREEN-RED-IR","722997","671766","904839","3.599523","1.508293","0.116257","822260","867518","837148","2.541727","1.016122","0.000000","812995","851207","833057","2.172882","0.857150","0.000000","835622","859110","888724","1.718408","0.663244","0.000000","742001","857798","962048","1.045442","0.393405","0.000000","8913","12639","15327","7966","10724","7966","7646","10126","7646","7324","9457","7324","6226","7860","6226","DualSpot on"
"MA200-0420","53111","83","1","1.10","1.6","2023-08-24T20:40:00","120","2023/08/24","20:40:00","-15.78719437122345","35.03523666039109","0.1","14","300","64","72","1054","23575","-758","14","150","150.47","115.84","34.64","29.53","28.0","9.12","89384","29.81","DUALSPOT-UV-BLUE-GREEN-RED-IR","713119","668803","907500","5.254589","2.235109","0.085492","814717","865689","839584","3.745443","1.517558","0.106252","802448","845386","830873","3.207673","1.280117","0.118208","831964","859639","892276","2.546498","0.993207","0.000000","741073","859493","965905","1.558921","0.591802","0.000000","8392","12325","15237","7703","10732","12795","7416","10138","11946","7172","9557","7172","6192","8001","6192","DualSpot on"
"MA200-0420","53112","83","1","1.10","1.6","2023-08-24T20:45:00","120","2023/08/24","20:45:00","-15.78719848394394","35.035313826054335","0.1","14","300","64","74","1058","23595","-1187","14","150","149.47","115.17","34.30","29.31","28.2","9.00","89392","29.50","DUALSPOT-UV-BLUE-GREEN-RED-IR","696733","662665","909165","7.771845","3.343635","0.058749","800530","860254","841169","5.695683","2.335465","0.071808","790274","840995","832485","4.933062","1.993101","0.079884","816115","850513","887865","3.981549","1.568121","0.091143","731943","853918","963248","2.530622","0.970052","0.000000","12837","18983","23624","12553","17678","21240","12437","17258","20526","12501","16817","19621","11786","15405","11786","DualSpot on"
"MA200-0420","53113","83","1","1.10","1.6","2023-08-24T20:50:00","120","2023/08/24","20:50:00","-15.787157416343689","35.035253655165434","0.0","14","300","64","76","970","23512","-729","14","150","150.08","115.17","34.92","28.88","28.4","8.74","89404","29.00","DUALSPOT-UV-BLUE-GREEN-RED-IR","683116","656386","908750","9.705961","4.254425","0.051124","790264","855782","841900","7.073885","2.943629","0.061950","781374","837173","832980","6.126546","2.509027","0.068390","808480","847317","888031","4.937376","1.965155","0.077107","729126","853592","965193","3.118036","1.210821","0.117128","9864","15321","19579","8871","12912","15792","8603","12267","14808","8326","11408","13445","7125","9632","11224","DualSpot on"
"MA200-0420","53114","83","1","1.10","1.6","2023-08-24T20:55:00","120","2023/08/24","20:55:00","-15.78722071647644","35.035283993929625","0.1","14","300","64","78","1037","23562","-1083","14","150","150.64","115.39","35.26","28.50","28.7","8.60","89408","28.63","DUALSPOT-UV-BLUE-GREEN-RED-IR","667080","648057","906526","11.825565","5.277561","0.043250","776663","848109","839982","8.575772","3.617471","0.052182","774299","835732","836313","7.429394","3.080719","0.057462","804077","847848","892554","5.990219","2.409587","0.065032","724307","851184","965067","3.768980","1.481198","0.098658","10789","17044","22085","9649","14168","17464","9374","13461","16357","9154","12646","14996","7880","10712","12545","DualSpot on"
"MA200-0420","53115","83","1","1.10","1.6","2023-08-24T21:00:00","120","2023/08/24","21:00:00","-15.787203669548035","35.035310324281454","0.1","14","300","64","79","1048","23592","-940","14","150","150.21","115.48","34.73","28.19","29.0","8.49","89404","28.31","DUALSPOT-UV-BLUE-GREEN-RED-IR","649668","641090","910183","14.852638","6.750160","0.035749","756431","836479","837173","10.860485","4.647832","0.042923","752820","821953","830083","9.475876","3.981932","0.046927","787665","838987","889849","7.727136","3.144287","0.052626","714975","846402","964566","4.995569","1.982338","0.074622","15396","24904","32825","14666","21993","27474","14712","21543","26493","15089","21223","25431","14837","20157","23656","DualSpot on"
"MA200-0420","53116","83","1","1.10","1.6","2023-08-24T21:05:00","120","2023/08/24","21:05:00","-15.78727501630783","35.03530465811491","0.0","14","300","64","81","1033","23520","-762","14","150","149.90","114.97","34.93","27.94","29.4","8.47","89404","28.06","DUALSPOT-UV-BLUE-GREEN-RED-IR","624752","628419","909673","18.711818","8.692745","0.029445","737204","829493","843059","14.136424","6.187281","0.034878","734261","815040","834737","12.529935","5.387102","0.037863","766778","829232","890277","10.466495","4.363126","0.042369","700722","839782","965933","7.143020","2.905202","0.057593","19715","32668","43906","21123","32675","41667","22054","33402","41960","23904","35011","42951","26092","36911","44329","DualSpot on"
"MA200-0420","53117","83","1","1.10","1.6","2023-08-24T21:10:00","120","2023/08/24","21:10:00","-15.78723520040512","35.03527082130313","0.1","14","300","64","83","1050","23641","-979","14","150","149.89","114.93","34.96","27.74","29.8","8.50","89400","27.88","DUALSPOT-UV-BLUE-GREEN-RED-IR","605919","618829","910752","21.895130","10.351460","0.026258","713431","813752","837642","16.779572","7.465108","0.030691","713664","802475","831343","14.977302","6.538707","0.032889","751987","823024","892317","12.648064","5.350203","0.036209","686508","830767","962467","8.844837","3.635651","0.046477","16268","27869","38272","17049","27098","35151","17679","27349","34843","19044","28328","35135","20685","29189","35124","DualSpot on"
"MA200-0420","53118","83","1","1.10","1.6","2023-08-24T21:15:00","120","2023/08/24","21:15:00","-15.787202179431915","35.03528982773423","0.0","14","300","64","85","1044","23576","-920","14","150","150.02","115.09","34.93","27.59","30.1","8.52","89396","27.69","DUALSPOT-UV-BLUE-GREEN-RED-IR","585700","606052","906091","24.781208","11.927326","0.024469","697808","805465","839302","19.191024","8.683092","0.028561","699154","795154","832864","17.215208","7.637779","0.030572","733353","811085","887716","14.645380","6.293802","0.033725","677609","827069","964983","10.405964","4.336034","0.043289","14729","26498","37419","15533","25849","34374","16144","26123","34080","17411","27102","34405","18949","28010","34482","DualSpot on"
"MA200-0420","53119","83","1","1.10","1.6","2023-08-24T21:20:00","120","2023/08/24","21:20:00","-15.787212193012238","35.035271156579256","0.0","13","300","64","88","1004","23556","-851","14","150","150.67","114.85","35.82","27.42","30.4","8.48","89396","27.56","DUALSPOT-UV-BLUE-GREEN-RED-IR","571203","598194","908104","27.513500","13.457592","0.022136","683524","797920","841376","21.507548","9.874548","0.025363","685983","788664","835028","19.374000","8.716855","0.026987","721035","805590","889923","16.583040","7.220741","0.029309","669256","823683","967693","11.930847","5.028082","0.036907","13973","25093","35740","14952","24659","32898","15605","25011","32705","16926","25963","32933","18547","26990","33140","DualSpot on"
"MA200-0420","53120","83","1","1.10","1.6","2023-08-24T21:25:00","120","2023/08/24","21:25:00","-15.787197828292847","35.035274155437946","0.0","13","300","64","90","1000","23608","-1068","14","150","150.15","114.89","35.26","27.26","30.5","8.43","89384","27.38","DUALSPOT-UV-BLUE-GREEN-RED-IR","558143","590675","909696","30.005204","14.898338","0.021235","670407","790362","842803","23.619662","10.994241","0.024405","670158","777813","831897","21.341064","9.727880","0.025940","709882","800256","891711","18.349508","8.087888","0.028198","658103","815985","964790","13.316105","5.669029","0.035238","12738","24001","35108","13628","23542","32175","14214","23806","31841","15425","24674","31964","16843","25394","31734","DualSpot on"
"MA200-0420","53121","83","1","1.10","1.6","2023-08-24T21:30:00","120","2023/08/24","21:30:00","-15.78722769021988","35.0352689884603","0.1","14","300","64","92","1020","23550","-1016","14","150","150.15","114.53","35.61","27.13","30.7","8.40","89384","27.19","DUALSPOT-UV-BLUE-GREEN-RED-IR","545796","582695","909361","32.213066","16.222538","0.020231","652758","775984","835973","25.480440","12.019388","0.023298","658986","771004","832238","23.072136","10.651454","0.024738","699350","794352","892129","19.896418","8.877031","0.026956","650987","812229","965929","14.523987","6.250581","0.033772","11322","21839","32509","12044","21339","29639","12548","21530","29233","13550","22231","29224","14732","22811","28915","DualSpot on"
"MA200-0420","53122","83","1","1.10","1.6","2023-08-24T21:35:00","120","2023/08/24","21:35:00","-15.787152469158173","35.03530166298151","0.1","13","300","64","94","1092","23640","-780","14","150","150.08","114.93","35.15","26.98","30.9","8.36","89384","27.00","DUALSPOT-UV-BLUE-GREEN-RED-IR","535286","575217","907428","33.952348","17.304844","0.019982","646948","773952","840738","26.943098","12.851213","0.023072","649212","764173","831033","24.421644","11.395443","0.024597","689824","787981","890531","21.091476","9.503536","0.026794","644248","807503","964650","15.433548","6.699142","0.033672","8888","18083","27641","9434","17541","24935","9748","17571","24414","10432","17880","23988","11055","17825","23017","DualSpot on"
"MA200-0420","53123","83","1","1.10","1.6","2023-08-24T21:40:00","120","2023/08/24","21:40:00","-15.787230789661407","35.035264156758785","0.1","13","300","64","96","995","23591","-1041","14","150","150.08","114.97","35.11","26.82","31.1","8.32","89384","26.81","DUALSPOT-UV-BLUE-GREEN-RED-IR","528484","570809","908450","35.345020","18.192802","0.019563","639599","768874","840826","28.101800","13.524165","0.022588","642983","760380","831807","25.480666","11.989746","0.024043","685234","786122","892822","22.019828","9.998796","0.026234","641761","807141","967477","16.118420","7.041275","0.032896","7115","14853","23060","7471","14207","20456","7647","14051","19743","8101","14150","19182","8321","13611","17714","DualSpot on"
"MA200-0420","53124","83","1","1.10","1.6","2023-08-24T21:45:00","120","2023/08/24","21:45:00","-15.787168860435486","35.03528966009617","0.0","14","300","64","96","1052","23564","-1064","14","150","150.27","114.82","35.45","26.62","31.3","8.25","89392","26.56","DUALSPOT-UV-BLUE-GREEN-RED-IR","520416","564915","907184","36.737064","19.083980","0.018803","632074","763481","840663","29.264070","14.206569","0.021756","636366","756006","832033","26.542662","12.594370","0.023218","678017","781156","891630","22.944562","10.498545","0.025296","637520","804493","967644","16.797740","7.385496","0.031768","7120","14765","23028","7504","14269","20653","7678","14159","20011","8080","14142","19257","8264","13564","17722","DualSpot on"
"MA200-0420","53125","83","1","1.10","1.6","2023-08-24T21:50:00","120","2023/08/24","21:50:00","-15.787245154380798","35.035265658050776","0.2","14","300","64","97","1096","23612","-1044","14","150","150.21","114.56","35.65","26.27","31.6","8.08","89384","26.13","DUALSPOT-UV-BLUE-GREEN-RED-IR","512281","558989","906386","38.230360","20.053024","0.018187","623552","757008","839752","30.518382","14.953055","0.021016","628636","750470","831470","27.698796","13.259707","0.022369","670175","775709","890360","23.965474","11.055516","0.024324","628629","796207","961410","17.556560","7.776241","0.030770","7656","15964","25129","8117","15521","22634","8378","15493","22026","8941","15673","21437","9253","15310","20125","DualSpot on"
"MA200-0420","53126","83","1","1.10","1.6","2023-08-24T21:55:00","120","2023/08/24","21:55:00","-15.787153601646423","35.03529566153884","0.1","14","300","64","97","991","23625","-891","14","150","150.15","114.89","35.26","25.95","32.1","8.03","89388","25.75","DUALSPOT-UV-BLUE-GREEN-RED-IR","505728","554120","906030","39.487888","20.895978","0.018120","616696","751765","839347","31.576132","15.599628","0.020971","622458","746065","831343","28.674594","13.836002","0.022358","663998","771463","889766","24.825874","11.539032","0.024503","624876","793845","961777","18.197448","8.113580","0.030962","6429","14042","22599","6825","13594","20204","7051","13570","19648","7513","13758","19182","7792","13365","17849","DualSpot on"
"MA200-0420","53127","83","1","1.10","1.6","2023-08-24T22:00:00","120","2023/08/24","22:00:00","-15.787189841270447","35.0352978259325","0.1","14","300","64","97","1000","23584","-1016","14","150","149.47","114.88","34.59","25.68","32.6","8.00","89396","25.50","DUALSPOT-UV-BLUE-GREEN-RED-IR","502846","552873","910808","40.584876","21.642754","0.017984","609515","745646","837311","32.504390","16.174328","0.020849","616685","741691","830684","29.525700","14.346537","0.022311","658260","767238","888683","25.577066","11.965746","0.024434","621933","792203","962563","18.750438","8.405018","0.030735","5608","12681","20762","5990","12317","18584","6150","12254","18023","6560","12377","17491","6724","11770","15870","DualSpot on"
"MA200-0420","53128","83","1","1.10","1.6","2023-08-24T22:05:00","120","2023/08/24","22:05:00","-15.787204384803772","35.03529832884669","0.1","14","300","64","97","1012","23637","-1012","14","150","149.89","114.97","34.92","25.47","32.9","7.98","89396","25.25","DUALSPOT-UV-BLUE-GREEN-RED-IR","497524","548620","909682","41.522636","22.290528","0.017663","608535","746650","842574","33.295318","16.670435","0.020449","612254","738464","830701","30.251924","14.784628","0.021769","653975","764365","888531","26.212770","12.327742","0.023762","618856","789974","962260","19.211292","8.649450","0.029973","4790","10896","17972","5100","10532","15979","5244","10416","15359","5547","10400","14709","5599","9778","13201","DualSpot on"
"MA200-0420","53129","83","1","1.10","1.6","2023-08-24T22:10:00","120","2023/08/24","22:10:00","-15.787210524082184","35.035229325294495","0.0","14","300","64","97","1016","23548","-988","14","150","149.50","114.85","34.65","25.19","33.2","7.88","89384","25.00","DUALSPOT-UV-BLUE-GREEN-RED-IR","492034","543977","907686","42.417628","22.921570","0.017544","602868","741697","841094","34.052732","17.154090","0.020331","607867","735126","830494","30.948366","15.214465","0.021742","649597","761183","887966","26.821980","12.680652","0.023702","616861","788974","963329","19.647396","8.887701","0.030380","4577","10697","17892","4888","10348","15889","5034","10299","15390","5321","10218","14609","5304","9605","13158","DualSpot on"
"MA200-0420","53130","83","1","1.10","1.6","2023-08-24T22:15:00","120","2023/08/24","22:15:00","-15.787232995033264","35.0352978259325","0.2","14","300","64","97","1008","23520","-1028","14","150","150.47","114.93","35.54","24.95","33.7","7.87","89372","24.69","DUALSPOT-UV-BLUE-GREEN-RED-IR","488053","540949","908243","43.292708","23.541866","0.017071","598739","738568","841522","34.792692","17.629936","0.019726","603852","732164","830621","31.626006","15.633959","0.021012","645459","758213","887566","27.415200","13.027371","0.022944","614795","787848","964220","20.076354","9.122654","0.029169","4472","10250","17137","4773","9924","15216","4895","9798","14591","5178","9786","13958","5214","9234","12582","DualSpot on"
"MA200-0420","53131","83","1","1.10","1.6","2023-08-24T22:20:00","120","2023/08/24","22:20:00","-15.787170350551605","35.03531815856695","0.1","13","300","64","97","966","23625","-1029","14","150","150.21","115.13","35.09","24.78","34.2","7.93","89368","24.56","DUALSPOT-UV-BLUE-GREEN-RED-IR","483981","537821","908871","44.193752","24.190938","0.016989","594630","735484","842252","35.566964","18.134522","0.019654","600461","729954","831847","32.336476","16.081690","0.021026","642748","756909","889368","28.038948","13.400063","0.023106","613267","787503","966235","20.533608","9.376236","0.029287","4597","10865","18447","4985","10661","16565","5123","10594","16007","5435","10657","15436","5548","10096","13918","DualSpot on"
"MA200-0420","53132","83","1","1.10","1.6","2023-08-24T22:25:00","120","2023/08/24","22:25:00","-15.78723531961441","35.03529282659292","0.0","14","300","64","97","1004","23580","-980","14","150","150.28","114.69","35.59","24.70","34.6","8.03","89372","24.44","DUALSPOT-UV-BLUE-GREEN-RED-IR","478809","533283","906570","45.016252","24.786282","0.016613","588949","730222","840037","36.266252","18.590604","0.019119","595562","725758","830388","32.982082","16.484808","0.020293","638109","753249","887977","28.603778","13.731047","0.022055","610081","784951","965222","20.949634","9.598446","0.027260","4212","9826","16705","4519","9501","14740","4673","9404","14132","4940","9331","13385","5067","8723","11814","DualSpot on"
"MA200-0420","53133","83","1","1.10","1.6","2023-08-24T22:30:00","120","2023/08/24","22:30:00","-15.787237346172333","35.03526582196355","0.1","13","300","64","97","1075","23633","-987","14","150","149.95","115.24","34.71","24.63","34.8","8.06","89380","24.44","DUALSPOT-UV-BLUE-GREEN-RED-IR","474554","529634","905519","45.795908","25.361420","0.016696","584277","726012","838882","36.926796","19.030740","0.019347","594850","726484","834478","33.585788","16.870878","0.020634","638021","754704","892596","29.136524","14.050980","0.022567","607032","782411","964118","21.339108","9.809441","0.027955","3973","9733","16881","4249","9401","14879","4349","9235","14166","4637","9248","13542","4721","8492","11701","DualSpot on"
"MA200-0420","53134","83","1","1.10","1.6","2023-08-24T22:35:00","120","2023/08/24","22:35:00","-15.787194907665253","35.03525932505727","0.1","13","300","64","98","1041","23683","-995","14","150","149.89","115.28","34.60","24.53","34.8","7.97","89384","24.25","DUALSPOT-UV-BLUE-GREEN-RED-IR","471907","527665","907286","46.549828","25.925206","0.016562","582282","725044","841405","37.566260","19.462536","0.019211","589118","720989","831292","34.173972","17.251810","0.020496","631374","748351","887837","29.651810","14.364731","0.022465","606101","782512","966290","21.715428","10.018879","0.028242","3841","9569","16771","4112","9250","14775","4235","9139","14139","4484","9097","13431","4560","8455","11791","DualSpot on"
"MA200-0420","53135","83","1","1.10","1.6","2023-08-24T22:40:00","120","2023/08/24","22:40:00","-15.787126660346985","35.035283993929625","0.1","13","300","64","97","1133","23566","-958","14","150","149.87","114.88","34.99","24.39","35.1","7.97","89376","24.13","DUALSPOT-UV-BLUE-GREEN-RED-IR","468476","524810","907466","47.300836","26.487888","0.016245","578344","721621","841071","38.208328","19.895730","0.018769","586042","718667","831812","34.763976","17.635520","0.020059","629233","747351","889459","30.172734","14.682938","0.021940","600700","776829","961330","22.097450","10.231592","0.027451","3839","9444","16578","4143","9177","14646","4263","9103","14087","4549","9123","13459","4645","8491","11808","DualSpot on"
"MA200-0420","53136","83","1","1.10","1.6","2023-08-24T22:45:00","120","2023/08/24","22:45:00","-15.787130296230316","35.03526399284601","0.2","13","300","64","97","992","23640","-955","14","150","149.53","114.47","35.07","24.27","35.3","7.96","89376","24.00","DUALSPOT-UV-BLUE-GREEN-RED-IR","463895","520707","905466","48.063452","27.058048","0.015963","573391","716981","839300","38.855764","20.333642","0.018454","581876","715061","830857","35.362112","18.022578","0.019627","624354","743065","887223","30.699668","15.004585","0.021500","597808","774474","960442","22.489934","10.448215","0.026660","3913","9550","16812","4193","9258","14818","4338","9164","14180","4618","9202","13585","4789","8630","11962","DualSpot on"
"MA200-0420","53137","83","1","1.10","1.6","2023-08-24T22:50:00","120","2023/08/24","22:50:00","-15.787142395973206","35.035286989063025","0.1","13","300","64","97","945","23620","-1079","14","150","149.94","115.01","34.94","24.10","35.4","7.83","89364","23.75","DUALSPOT-UV-BLUE-GREEN-RED-IR","460457","517723","905447","48.806412","27.627010","0.015941","570018","714163","839696","39.495024","20.775158","0.018452","578755","712648","831335","35.952700","18.414214","0.019693","621544","741184","887830","31.222358","15.330141","0.021573","599602","778077","967098","22.873868","10.669695","0.027435","3794","9565","17093","4120","9368","15192","4263","9306","14601","4559","9348","13968","4663","8855","12521","DualSpot on"
"MA200-0420","53138","83","1","1.10","1.6","2023-08-24T22:55:00","120","2023/08/24","22:55:00","-15.787146925926208","35.03530532494187","0.1","13","300","64","97","1000","23592","-851","14","150","150.67","115.28","35.38","23.91","35.7","7.81","89356","23.56","DUALSPOT-UV-BLUE-GREEN-RED-IR","457491","515261","906263","49.544580","28.193600","0.015681","566256","710852","839502","40.131372","21.214540","0.018093","575571","710130","831589","36.539652","18.803800","0.019307","618797","739382","888560","31.743206","15.653936","0.021082","594629","772857","962714","23.258350","10.890759","0.026723","3760","9405","16858","4092","9205","14940","4227","9141","14350","4532","9180","13703","4658","8727","12310","DualSpot on"
"MA200-0420","53139","83","1","1.10","1.6","2023-08-24T23:00:00","120","2023/08/24","23:00:00","-15.787126541137695","35.03528865799308","0.2","13","300","64","98","940","23596","-1132","14","150","149.71","114.74","34.97","23.86","36.2","7.97","89352","23.56","DUALSPOT-UV-BLUE-GREEN-RED-IR","455260","513494","907976","50.218552","28.725308","0.015687","564027","709306","841133","40.720268","21.628912","0.018082","573482","708811","833102","37.088584","19.173204","0.019262","616092","737426","888966","32.231164","15.964573","0.021201","592945","771917","963578","23.630116","11.103146","0.026350","3449","8931","16257","3804","8785","14427","3971","8771","13907","4266","8913","13473","4526","8485","11994","DualSpot on"
"MA200-0420","53140","83","1","1.10","1.6","2023-08-24T23:05:00","120","2023/08/24","23:05:00","-15.787146151065826","35.035309325903654","0.0","13","300","68","97","900","23616","-683","15","150","149.38","113.51","35.87","23.92","36.8","8.25","89356","23.63","DUALSPOT-UV-BLUE-GREEN-RED-IR","769919","689842","909160","0.000000","0.000000","0.000000","853789","876508","836392","0.000000","0.000000","0.000000","836504","854952","829696","0.000000","0.000000","0.000000","854316","860709","885203","0.000000","0.000000","0.000000","760395","867188","965876","0.000000","0.000000","0.000000","","","","","","","","","","","","","","","","Tape advance-DualSpot on"
"MA200-0420","53141","83","1","1.10","1.6","2023-08-24T23:10:00","120","2023/08/24","23:10:00","-15.787180840969086","35.0352689884603","0.1","12","300","68","97","980","23608","-712","15","150","149.63","114.57","35.05","23.95","36.6","8.21","89352","23.69","DUALSPOT-UV-BLUE-GREEN-RED-IR","756124","685297","910435","0.000000","0.000000","0.000000","843535","872884","837561","0.000000","0.000000","0.000000","833309","857482","836028","0.000000","0.000000","0.000000","847982","858933","886601","0.000000","0.000000","0.000000","757662","867046","967734","0.000000","0.000000","0.000000","","","","","","","","","","","","","","","","Tape advance-DualSpot on"
"MA200-0420","53142","83","1","1.10","1.6","2023-08-24T23:15:00","120","2023/08/24","23:15:00","-15.78715854883194","35.03529832884669","0.1","12","300","64","97","1100","23596","-916","15","150","149.71","114.06","35.65","23.88","36.6","8.14","89344","23.56","DUALSPOT-UV-BLUE-GREEN-RED-IR","740625","678654","908881","1.909151","0.807889","0.000000","830825","866476","836018","1.338284","0.556361","0.000000","821789","851366","833972","1.147092","0.471651","0.000000","844571","860175","891144","0.915607","0.368870","0.000000","751442","862993","965246","0.566120","0.210879","0.000000","9830","13312","9830","8697","11570","8697","8349","10985","8349","8053","10382","8053","6933","8264","6933","DualSpot on"
"MA200-0420","53143","83","1","1.10","1.6","2023-08-24T23:20:00","120","2023/08/24","23:20:00","-15.787140965461731","35.035279992967844","0.1","12","300","64","98","940","23592","-976","15","150","149.81","114.43","35.38","23.82","36.8","8.17","89340","23.50","DUALSPOT-UV-BLUE-GREEN-RED-IR","725339","671368","906170","3.692297","1.585727","0.113381","824336","866025","840144","2.612892","1.099938","0.000000","811585","846166","832693","2.243103","0.931847","0.000000","835507","855403","889386","1.795158","0.727839","0.000000","746429","860195","964094","1.116834","0.418153","0.000000","9153","12913","15744","8257","11389","8257","7952","10799","7952","7711","10179","7711","6723","8184","6723","DualSpot on"
"MA200-0420","53144","83","1","1.10","1.6","2023-08-24T23:25:00","120","2023/08/24","23:25:00","-15.78714519739151","35.03528015688062","0.0","12","300","64","97","1120","23588","-1044","15","150","149.63","113.74","35.88","23.79","36.9","8.18","89344","23.50","DUALSPOT-UV-BLUE-GREEN-RED-IR","710604","663986","903186","5.417724","2.364246","0.079909","810154","857090","836014","3.856531","1.644086","0.104452","800899","840144","830599","3.317062","1.392048","0.115086","825504","849378","886332","2.661779","1.090242","0.000000","740451","856234","961686","1.667909","0.627410","0.000000","8909","12743","15712","8105","11242","13573","7838","10647","12679","7644","10132","7644","6768","8146","6768","DualSpot on"
"MA200-0420","53145","83","1","1.10","1.6","2023-08-24T23:30:00","120","2023/08/24","23:30:00","-15.787197470664978","35.035290490835905","0.2","12","300","64","98","1008","23529","-1454","15","150","150.08","114.06","36.02","23.68","36.8","8.06","89348","23.31","DUALSPOT-UV-BLUE-GREEN-RED-IR","703320","662997","908770","7.068268","3.128664","0.064457","805835","858184","841605","5.059701","2.181798","0.083383","796216","840127","834371","4.359581","1.849490","0.092538","823313","851325","891562","3.507617","1.449781","0.105748","740812","859497","967321","2.203651","0.835001","0.000000","8499","12464","15612","7820","11066","13526","7588","10543","12720","7440","10013","11826","6561","8050","6561","DualSpot on"
"MA200-0420","53146","83","1","1.10","1.6","2023-08-24T23:35:00","120","2023/08/24","23:35:00","-15.787111282348633","35.035290490835905","0.1","12","300","64","97","1060","23660","-1044","15","150","149.40","114.68","34.72","23.60","37.0","8.07","89348","23.31","DUALSPOT-UV-BLUE-GREEN-RED-IR","689964","656133","906625","8.741817","3.927326","0.058490","794511","851822","840054","6.286987","2.741724","0.075295","786595","834893","833144","5.425390","2.325487","0.083681","815451","847329","890727","4.372140","1.823158","0.096629","735634","856347","965907","2.756689","1.051291","0.000000","8571","13510","17539","7933","11954","15064","7715","11381","14131","7563","10788","13095","6736","8702","6736","DualSpot on"
