"Serial number","Datum ID","Session ID","Data format version","Firmware version","App version","Date / time local","Timezone offset (mins)","Date local (yyyy/MM/dd)","Time local (hh:mm:ss)","GPS lat (ddmm.mmmmm)","GPS long (dddmm.mmmmm)","GPS speed (km/h)","GPS sat count","Timebase (s)","Status","Battery remaining (%)","Accel X","Accel Y","Accel Z","Tape position","Flow setpoint (mL/min)","Flow total (mL/min)","Flow1 (mL/min)","Flow2 (mL/min)","Sample temp (C)","Sample RH (%)","Sample dewpoint (C)","Internal pressure (Pa)","Internal temp (C)","Optical config","UV Sen1","UV Sen2","UV Ref","UV ATN1","UV ATN2","UV K","Blue Sen1","Blue Sen2","Blue Ref","Blue ATN1","Blue ATN2","Blue K","Green Sen1","Green Sen2","Green Ref","Green ATN1","Green ATN2","Green K","Red Sen1","Red Sen2","Red Ref","Red ATN1","Red ATN2","Red K","IR Sen1","IR Sen2","IR Ref","IR ATN1","IR ATN2","IR K","UV BC1","UV BC2","UV BCc","Blue BC1","Blue BC2","Blue BCc","Green BC1","Green BC2","Green BCc","Red BC1","Red BC2","Red BCc","IR BC1","IR BC2","IR BCc","Readable status"
"MA200-0416","59925","123","1","1.10","1.6","2023-08-24T10:55:00","120","2023/08/24","10:55:00","-15.787209212779999","35.03528366237879","0.3","12","300","66","32","-1364","24304","-1624","0","150","149.54","118.76","30.79","29.85","39.2","14.48","89412","30.56","DUALSPOT-UV-BLUE-GREEN-RED-IR","783159","705447","907366","0.000000","0.000000","0.000000","760423","894401","782704","0.000000","0.000000","0.000000","835503","880791","816296","0.000000","0.000000","0.000000","830234","906708","867967","0.000000","0.000000","0.000000","704044","832283","951395","0.000000","0.000000","0.000000","","","","","","","","","","","","","","","","Start up-DualSpot on"
"MA200-0416","59926","123","1","1.10","1.6","2023-08-24T11:00:00","120","2023/08/24","11:00:00","-15.786994516849518","35.03527748957276","0.1","13","300","64","13","-1220","24324","-1092","0","150","150.22","118.71","31.51","30.96","36.6","14.40","89412","31.13","DUALSPOT-UV-BLUE-GREEN-RED-IR","761659","698928","906305","0.000000","0.000000","0.000000","724412","862226","758034","0.000000","0.000000","0.000000","823622","876768","815282","0.000000","0.000000","0.000000","812768","894376","858065","0.000000","0.000000","0.000000","698779","829945","950346","0.000000","0.000000","0.000000","","","","","","","","","","","","","","","","DualSpot on"
"MA200-0416","59927","123","1","1.10","1.6","2023-08-24T11:05:00","120","2023/08/24","11:05:00","-15.78715866804123","35.03527615964413","0.0","13","300","64","12","-1200","24379","-1137","0","150","149.64","118.07","31.57","31.27","34.9","13.94","89392","30.69","DUALSPOT-UV-BLUE-GREEN-RED-IR","737766","689575","902085","2.728782","0.880863","0.000000","714493","861035","760936","1.761502","0.526589","0.000000","813126","874299","816211","1.403123","0.395709","0.000000","807958","896060","862075","1.061537","0.276601","0.000000","694145","828551","950560","0.693994","0.193095","0.000000","13575","16389","13575","11060","12366","11060","9866","10407","9866","9020","8790","9020","8211","8545","8211","DualSpot on"
"MA200-0416","59928","123","1","1.10","1.6","2023-08-24T11:10:00","120","2023/08/24","11:10:00","-15.78720909357071","35.03527332469821","0.3","13","300","64","11","-1236","24380","-1116","0","150","149.96","117.70","32.26","31.50","33.3","13.44","89404","30.81","DUALSPOT-UV-BLUE-GREEN-RED-IR","725107","687772","906677","4.983154","1.652034","0.054307","706127","860086","763906","3.327820","1.025366","0.056948","800161","867986","813494","2.676503","0.785779","0.000000","802075","895678","864173","2.040001","0.561642","0.000000","690016","827262","950870","1.322738","0.378523","0.000000","11249","14040","15423","9865","11461","12172","8982","10038","8982","8340","8864","8340","7462","8029","7462","DualSpot on"
"MA200-0416","59929","123","1","1.10","1.6","2023-08-24T11:15:00","120","2023/08/24","11:15:00","-15.787058293819427","35.035289492458105","0.3","13","300","64","10","-1288","24464","-1088","0","150","149.59","117.13","32.46","31.63","32.2","12.99","89392","30.88","DUALSPOT-UV-BLUE-GREEN-RED-IR","713487","684936","908920","6.844118","2.313089","0.043605","697036","856818","764447","4.694116","1.476526","0.046495","792781","866614","815147","3.807441","1.147210","0.047193","797584","896149","866983","2.922425","0.830543","0.000000","687333","827363","952586","1.889953","0.548208","0.000000","9332","11960","13302","8647","10302","11061","8016","9243","9772","7558","8310","7558","6765","7301","6765","DualSpot on"
"MA200-0416","59930","123","1","1.10","1.6","2023-08-24T11:20:00","120","2023/08/24","11:20:00","-15.787071943283081","35.03530265763402","0.2","13","300","64","9","-1192","24300","-967","0","150","149.70","117.02","32.67","31.70","31.4","12.67","0","0.00","DUALSPOT-UV-BLUE-GREEN-RED-IR","700974","680883","909751","8.705475","2.995300","0.037086","688561","854040","765502","6.061172","1.940411","0.039693","784146","863731","815476","4.941748","1.517748","0.039871","783782","886046","859545","3.809733","1.107931","0.037907","683407","825868","952528","2.456886","0.721358","0.000000","9342","12264","13796","8660","10525","11403","8047","9415","10021","7607","8517","8891","6767","7403","6767","DualSpot on"
"MA200-0416","59931","123","1","1.10","1.6","2023-08-24T11:25:00","120","2023/08/24","11:25:00","-15.787090241909027","35.03530299291015","0.1","13","300","64","8","-1258","24445","-1175","0","150","149.70","116.91","32.79","31.84","30.9","12.58","0","0.00","DUALSPOT-UV-BLUE-GREEN-RED-IR","687493","675000","907875","10.442432","3.659736","0.034376","678697","848857","764346","7.352033","2.397090","0.037994","774878","859631","814574","6.019582","1.883035","0.038631","782500","889714","865480","4.660773","1.384085","0.039131","677982","822357","950143","3.004627","0.894863","0.051748","8726","11901","13613","8185","10324","11358","7654","9248","9973","7303","8448","8932","6545","7391","7750","DualSpot on"
"MA200-0416","59932","123","1","1.10","1.6","2023-08-24T11:30:00","120","2023/08/24","11:30:00","-15.787109792232513","35.0352674908936","0.3","13","300","64","7","-1328","24388","-948","0","150","149.54","117.27","32.27","32.04","30.7","12.65","0","0.00","DUALSPOT-UV-BLUE-GREEN-RED-IR","675831","670495","907977","12.169083","4.340606","0.033060","669977","844763","764073","8.615235","2.847611","0.035594","766937","856787","814763","7.078919","2.241593","0.035577","775673","886986","865163","5.498738","1.651203","0.033575","677368","824783","954529","3.556205","1.065237","0.041858","8647","12392","14468","7985","10349","11516","7499","9224","10024","7168","8304","8791","6570","7375","7719","DualSpot on"
"MA200-0416","59933","123","1","1.10","1.6","2023-08-24T11:35:00","120","2023/08/24","11:35:00","-15.787065744400024","35.03530599176884","0.2","13","300","64","5","-1344","24548","-1132","0","150","149.45","118.26","31.19","32.16","29.9","12.36","0","0.00","DUALSPOT-UV-BLUE-GREEN-RED-IR","666100","667497","909977","13.841047","5.013790","0.032678","662837","842377","765402","9.855574","3.301018","0.037268","759668","854437","815518","8.120215","2.605408","0.039841","764428","878969","859694","6.325979","1.922017","0.040690","674233","824001","955288","4.096859","1.236905","0.055191","8304","12677","15162","7775","10777","12289","7310","9684","10806","7018","8711","9450","6386","7689","8252","DualSpot on"
"MA200-0416","59934","123","1","1.10","1.6","2023-08-24T11:40:00","120","2023/08/24","11:40:00","-15.787154972553253","35.03522899001837","0.7","12","300","64","4","-1184","24488","-1060","0","150","149.33","118.46","30.87","32.24","29.3","12.09","0","0.00","DUALSPOT-UV-BLUE-GREEN-RED-IR","650645","658413","903821","15.513256","5.702518","0.030850","651123","833855","761195","11.092287","3.768843","0.036617","752827","852360","816572","9.154860","2.979338","0.039811","759702","878240","861354","7.141078","2.201420","0.043852","667382","818477","950531","4.623569","1.410243","0.059352","8291","13104","15902","7739","11234","13033","7251","10056","11410","6903","9080","10051","6211","7844","8560","DualSpot on"
"MA200-0416","59935","123","1","1.10","1.6","2023-08-24T11:45:00","120","2023/08/24","11:45:00","-15.78714382648468","35.0352538228035","0.0","12","300","64","3","-1392","24316","-720","0","150","149.89","118.48","31.41","32.31","29.1","12.08","0","0.00","DUALSPOT-UV-BLUE-GREEN-RED-IR","641635","655197","905500","17.090610","6.372860","0.028680","644496","831259","762229","12.249182","4.214179","0.033301","746002","849815","817046","10.120690","3.334981","0.036270","754871","877025","862468","7.907445","2.468485","0.039671","660513","812732","945436","5.122532","1.578167","0.054703","7819","12534","15337","7238","10509","12225","6767","9399","10693","6489","8529","9455","5883","7467","8173","DualSpot on"
"MA200-0416","59936","123","1","1.10","1.6","2023-08-24T11:50:00","120","2023/08/24","11:50:00","-15.787070631980896","35.03528333082795","0.2","12","300","64","1","-1162","24375","-1233","0","150","149.34","118.50","30.84","32.33","29.2","12.12","89364","31.50","DUALSPOT-UV-BLUE-GREEN-RED-IR","632996","651679","906214","18.522384","6.993198","0.027888","637332","827486","762037","13.340435","4.644388","0.033086","736278","843579","813874","11.044859","3.682035","0.036155","749837","875360","863093","8.649229","2.732509","0.040431","661495","816557","951467","5.608558","1.743043","0.054534","7096","11816","14679","6826","10342","12220","6474","9344","10779","6280","8590","9657","5729","7469","8254","DualSpot on"
"MA200-0416","59937","123","1","1.10","1.6","2023-08-24T11:55:00","120","2023/08/24","11:55:00","-15.787111282348633","35.035273157060146","0.2","12","300","64","1","-1295","24416","-1025","0","150","149.42","117.99","31.42","32.35","28.9","11.97","89348","31.50","DUALSPOT-UV-BLUE-GREEN-RED-IR","624429","648059","907073","19.986446","7.645229","0.026082","631180","824889","763073","14.446886","5.095613","0.031207","732822","844387","817654","11.982066","4.047149","0.034338","744535","873321","863462","9.399266","3.010172","0.038798","658563","815563","951939","6.100425","1.914100","0.050547","7287","12188","15224","6951","10645","12658","6594","9647","11204","6377","8865","10037","5823","7604","8419","DualSpot on"
"MA200-0416","59938","123","1","1.10","1.6","2023-08-24T12:00:00","120","2023/08/24","12:00:00","-15.787098109722137","35.03526232764125","0.2","12","300","64","0","-1280","24412","-1164","0","150","150.25","118.18","32.07","32.34","29.0","12.03","89344","31.50","DUALSPOT-UV-BLUE-GREEN-RED-IR","614647","643709","907764","21.622482","8.390915","0.024340","624319","821639","763754","15.621525","5.575603","0.028190","723279","838432","814955","12.958108","4.427522","0.030760","739058","871150","863800","10.175126","3.293651","0.033302","655333","814277","952050","6.601772","2.086189","0.042308","8131","13658","17164","7368","11096","13166","6856","9848","11400","6586","8869","9962","5926","7496","8222","DualSpot on"
"MA200-0416","59939","123","1","1.10","1.6","2023-08-24T12:05:00","120","2023/08/24","12:05:00","-15.787097096443176","35.03526432439685","0.0","12","300","64","0","-1208","24240","-1092","0","150","149.35","118.38","30.97","32.46","29.0","12.16","89344","31.69","DUALSPOT-UV-BLUE-GREEN-RED-IR","602343","636401","904318","23.281434","9.155418","0.023902","615183","815383","761727","16.836482","6.078845","0.028339","717457","836860","816642","13.977043","4.825252","0.030690","730879","865918","861168","10.986319","3.591477","0.034099","649976","810429","949319","7.136902","2.270517","0.044419","8231","14497","18559","7608","12044","14551","7146","10661","12514","6875","9647","10993","6315","8313","9246","DualSpot on"
"MA200-0416","59940","123","1","1.10","1.6","2023-08-24T12:10:00","120","2023/08/24","12:10:00","-15.787164092063904","35.03526499122381","0.1","13","300","64","0","-1172","24248","-1152","0","150","149.53","117.92","31.61","32.57","28.8","12.14","89340","31.81","DUALSPOT-UV-BLUE-GREEN-RED-IR","596578","635067","908526","24.705760","9.830051","0.022677","610030","813491","763404","17.899664","6.530202","0.026757","709560","832091","814935","14.877158","5.185407","0.028948","728429","866958","864540","11.709574","3.862345","0.031782","648249","810818","951372","7.622993","2.441657","0.041408","7094","12536","16133","6684","10586","12827","6337","9460","11131","6153","8597","9801","5758","7564","8414","DualSpot on"
"MA200-0416","59941","123","1","1.10","1.6","2023-08-24T12:15:00","120","2023/08/24","12:15:00","-15.787050664424896","35.03524566069245","0.2","13","300","64","0","-1240","24300","-936","0","150","149.59","117.71","31.88","32.69","28.6","12.12","89336","31.94","DUALSPOT-UV-BLUE-GREEN-RED-IR","584889","626992","902947","26.069752","10.492683","0.021884","601152","806331","760067","18.929730","6.976640","0.025745","701976","827489","813291","15.748266","5.540937","0.027868","719729","860363","860253","12.414774","4.130458","0.030366","646611","811235","953481","8.095199","2.611909","0.040570","6806","12208","15847","6487","10381","12654","6144","9258","10949","6010","8437","9647","5604","7460","8344","DualSpot on"
"MA200-0416","59942","123","1","1.10","1.6","2023-08-24T12:20:00","120","2023/08/24","12:20:00","-15.787072777748108","35.03525782376528","0.2","12","300","64","0","-1164","24404","-1120","0","150","149.53","118.00","31.52","32.77","28.2","11.98","89340","32.00","DUALSPOT-UV-BLUE-GREEN-RED-IR","580045","625824","906959","27.347020","11.124413","0.021551","597318","805647","762766","19.924390","7.417017","0.025672","696930","825586","814363","16.601940","5.899489","0.028325","716303","859878","862103","13.110857","4.402559","0.031340","644359","810869","954669","8.571682","2.784113","0.040041","6357","11770","15482","6248","10356","12791","6006","9443","11337","5918","8659","10046","5640","7631","8588","DualSpot on"
"MA200-0416","59943","123","1","1.10","1.6","2023-08-24T12:25:00","120","2023/08/24","12:25:00","-15.786991894245148","35.035298489034176","0.0","12","300","64","0","-1264","24304","-788","0","150","149.90","118.06","31.84","32.88","28.4","12.15","89336","32.13","DUALSPOT-UV-BLUE-GREEN-RED-IR","570343","619298","903467","28.648362","11.785954","0.020964","593780","805261","765820","20.910090","7.860172","0.024709","693278","825284","816939","17.442008","6.253755","0.026819","715391","862284","866847","13.790289","4.669445","0.029616","639466","807036","951788","9.028473","2.952112","0.038864","6474","12204","16209","6189","10318","12806","5907","9238","11099","5773","8410","9759","5405","7371","8326","DualSpot on"
"MA200-0416","59944","123","1","1.10","1.6","2023-08-24T12:30:00","120","2023/08/24","12:30:00","-15.787060499191284","35.03524615988135","0.1","12","300","64","0","-1264","24228","-1140","0","150","150.21","118.34","31.88","33.01","28.2","12.18","89312","32.25","DUALSPOT-UV-BLUE-GREEN-RED-IR","566897","619251","909162","29.883938","12.425293","0.020473","586777","799883","764022","21.871436","8.300590","0.024247","686660","821254","815819","18.268430","6.608099","0.026331","708217","857175","864001","14.465919","4.937321","0.028848","638335","807983","954543","9.494884","3.123087","0.036821","6132","11779","15798","6022","10241","12822","5798","9228","11172","5728","8430","9830","5506","7492","8465","DualSpot on"
"MA200-0416","59945","123","1","1.10","1.6","2023-08-24T12:35:00","120","2023/08/24","12:35:00","-15.787155449390411","35.03525249287486","0.2","12","300","64","0","-1270","24383","-1175","0","150","150.28","119.25","31.03","33.01","27.7","11.92","89300","32.19","DUALSPOT-UV-BLUE-GREEN-RED-IR","558028","612633","904454","30.947300","12.982285","0.020541","579269","793293","760818","22.736462","8.704776","0.024769","679704","816347","813678","19.023716","6.942278","0.027567","701334","851947","860962","15.091921","5.195568","0.031251","633857","804479","951939","9.929409","3.287567","0.040754","5237","10542","14376","5377","9655","12309","5258","8940","11056","5266","8349","9967","5090","7404","8549","DualSpot on"
"MA200-0416","59946","123","1","1.10","1.6","2023-08-24T12:40:00","120","2023/08/24","12:40:00","-15.787189662456512","35.03525999560952","0.1","12","300","64","0","-1200","24636","-1796","0","150","149.45","119.17","30.27","33.01","27.8","11.94","89308","32.19","DUALSPOT-UV-BLUE-GREEN-RED-IR","551025","608037","902795","32.025460","13.555069","0.020429","573300","788730","759585","23.607024","9.118659","0.024856","673785","812641","812720","19.780018","7.280004","0.027568","695904","848438","859664","15.719114","5.457660","0.031617","630514","802395","951047","10.360973","3.453643","0.042059","5313","11113","15369","5415","10135","13105","5268","9261","11587","5280","8685","10497","5058","7663","8965","DualSpot on"
"MA200-0416","59947","123","1","1.10","1.6","2023-08-24T12:45:00","120","2023/08/24","12:45:00","-15.787102103233337","35.03527649119496","0.2","12","300","64","0","-1288","24384","-684","0","150","149.90","118.62","31.28","33.11","27.7","12.00","0","0.00","DUALSPOT-UV-BLUE-GREEN-RED-IR","550070","609875","910617","33.052700","14.107956","0.019511","572286","790911","764830","24.469214","9.529341","0.023256","671741","813609","816496","20.540186","7.619931","0.025567","696460","852300","865875","16.356468","5.722695","0.028743","630654","804785","955555","10.811424","3.626215","0.037479","5086","10381","14324","5388","9732","12503","5320","9022","11205","5390","8500","10174","5305","7706","8918","DualSpot on"
"MA200-0416","59948","123","1","1.10","1.6","2023-08-24T12:50:00","120","2023/08/24","12:50:00","-15.787096083164215","35.03521882370114","0.4","12","300","64","0","-1252","24380","-777","0","150","150.14","119.21","30.93","33.12","27.3","11.79","0","0.00","DUALSPOT-UV-BLUE-GREEN-RED-IR","542493","604441","907931","34.146720","14.705009","0.019316","565994","785707","763015","25.343148","9.954536","0.023293","665412","809228","814913","21.302202","7.969841","0.025888","690088","847579","863389","16.989278","5.992002","0.029263","626363","801458","953223","11.249908","3.797435","0.038441","5390","11336","15833","5434","10189","13265","5307","9390","11832","5325","8734","10591","5138","7732","9053","DualSpot on"
"MA200-0416","59949","123","1","1.10","1.6","2023-08-24T12:55:00","120","2023/08/24","12:55:00","-15.787154972553253","35.035196494311094","0.1","12","300","64","18","-1196","24268","-1016","0","150","149.96","119.09","30.87","33.94","27.2","12.40","89312","35.25","DUALSPOT-UV-BLUE-GREEN-RED-IR","542389","607460","917961","35.273904","15.315578","0.018661","557146","777183","757957","26.269104","10.383589","0.021534","660850","807420","815949","22.110730","8.320762","0.023498","686505","846601","864745","17.668752","6.260588","0.025381","622341","798786","951755","11.739334","3.973455","0.031466","5559","11617","16266","5763","10303","13271","5636","9438","11731","5724","8729","10378","5740","7965","9103","DualSpot on"
"MA200-0416","59950","123","1","1.10","1.6","2023-08-24T13:00:00","120","2023/08/24","13:00:00","-15.787159979343414","35.035238824784756","0.1","12","300","64","18","-1172","24336","-1032","0","150","150.09","118.10","32.00","34.97","26.1","12.68","89320","36.44","DUALSPOT-UV-BLUE-GREEN-RED-IR","531758","598314","909222","36.298496","15.876648","0.017763","556207","779281","762982","27.086976","10.773689","0.020603","654426","802908","813870","22.839768","8.628589","0.020710","681773","844026","863994","18.274868","6.481418","0.019055","619482","797511","951831","12.211708","4.144991","0.027845","5095","10299","14345","5133","9038","11617","5125","7987","9725","5149","6924","7900","5587","7489","8466","DualSpot on"
"MA200-0416","59951","123","1","1.10","1.6","2023-08-24T13:05:00","120","2023/08/24","13:05:00","-15.787178039550781","35.03519465774298","0.1","11","300","64","19","-1064","24324","-1428","0","150","150.43","118.34","32.09","35.70","25.3","12.80","89328","37.06","DUALSPOT-UV-BLUE-GREEN-RED-IR","523534","591477","903473","37.221764","16.388771","0.017499","553111","777961","764402","27.829022","11.124158","0.019862","650868","801510","814736","23.487866","8.905600","0.020495","673542","836678","858118","18.809252","6.677106","0.018718","615144","794078","949191","12.635956","4.297992","0.026384","4582","9374","13143","4648","8096","10393","4546","7167","8767","4530","6118","6992","5008","6660","7512","DualSpot on"
"MA200-0416","59952","123","1","1.10","1.6","2023-08-24T13:10:00","120","2023/08/24","13:10:00","-15.787244021892548","35.03515832871199","0.2","11","300","64","20","-1312","24032","-963","0","150","149.83","117.22","32.61","36.25","24.4","12.70","89328","37.56","DUALSPOT-UV-BLUE-GREEN-RED-IR","521989","591692","907886","38.006084","16.837468","0.017230","547475","772594","761453","28.470802","11.434991","0.019435","648768","801532","816792","24.059850","9.155316","0.019909","672331","837626","860625","19.282850","6.853983","0.018001","615444","796323","953223","13.010696","4.436777","0.025721","3929","8082","11385","4058","7067","9086","4051","6358","7775","4053","5442","6208","4465","5945","6711","DualSpot on"
"MA200-0416","59953","123","1","1.10","1.6","2023-08-24T13:15:00","120","2023/08/24","13:15:00","-15.787134885787964","35.035249657928944","0.4","11","300","64","22","-1048","24368","-1168","0","150","150.16","117.46","32.70","36.80","23.9","12.87","89324","38.00","DUALSPOT-UV-BLUE-GREEN-RED-IR","517939","588975","907667","38.756424","17.274158","0.017108","547596","775251","766484","29.102994","11.748636","0.019497","642497","796180","813381","24.620472","9.407900","0.020318","668489","835255","859802","19.751852","7.039211","0.019956","611129","792558","950043","13.378094","4.577253","0.027072","3752","7844","11134","3989","7110","9223","3962","6413","7928","4005","5683","6612","4369","6001","6850","DualSpot on"
"MA200-0416","59954","123","1","1.10","1.6","2023-08-24T13:20:00","120","2023/08/24","13:20:00","-15.787111103534698","35.035279992967844","0.1","11","300","64","23","-1037","24258","-1208","0","150","149.80","116.88","32.92","37.27","23.5","13.00","89292","38.44","DUALSPOT-UV-BLUE-GREEN-RED-IR","514109","586384","907592","39.490084","17.706394","0.016822","544130","772700","766360","29.723446","12.061203","0.019185","641601","797471","816800","25.174294","9.664858","0.020351","670027","839481","865759","20.218210","7.228028","0.020033","610232","793165","952103","13.744404","4.719030","0.026405","3686","7711","10982","3935","7038","9157","3934","6480","8066","4003","5754","6728","4378","6016","6872","DualSpot on"
"MA200-0416","59955","123","1","1.10","1.6","2023-08-24T13:25:00","120","2023/08/24","13:25:00","-15.787209510803223","35.03515899181366","0.2","12","300","64","26","-962","24425","-1408","0","150","150.56","117.04","33.52","37.63","23.1","13.03","89280","38.69","DUALSPOT-UV-BLUE-GREEN-RED-IR","510694","584097","907821","40.183196","18.124356","0.016630","540699","770044","766085","30.314988","12.367982","0.019068","638494","795801","817127","25.704154","9.916039","0.020083","666690","837436","865286","20.662614","7.414751","0.020402","610730","795460","956203","14.086658","4.856964","0.027216","3478","7324","10484","3746","6785","8879","3758","6221","7769","3809","5589","6585","4084","5748","6624","DualSpot on"
"MA200-0416","59956","123","1","1.10","1.6","2023-08-24T13:30:00","120","2023/08/24","13:30:00","-15.787197172641754","35.03521816059947","0.1","12","300","64","28","-967","24332","-1004","0","150","150.29","116.55","33.75","37.79","22.7","12.87","89288","38.75","DUALSPOT-UV-BLUE-GREEN-RED-IR","507272","581725","907867","40.861384","18.535606","0.016323","533663","762063","760494","30.897580","12.678194","0.019007","632223","790077","813319","26.225276","10.172481","0.020337","659742","830756","860059","21.103240","7.612177","0.021860","604959","789439","950235","14.414204","4.992466","0.027482","3417","7158","10263","3705","6814","8978","3712","6309","7954","3793","5869","7041","3925","5609","6501","DualSpot on"
"MA200-0416","59957","123","1","1.10","1.6","2023-08-24T13:35:00","120","2023/08/24","13:35:00","-15.787275314331055","35.03524715825915","0.1","12","300","64","31","-955","24456","-1396","0","150","149.80","116.67","33.13","38.04","22.5","12.96","89284","39.00","DUALSPOT-UV-BLUE-GREEN-RED-IR","501562","576710","903836","41.553064","18.960510","0.016401","532308","762291","763154","31.500316","12.999150","0.018997","630412","789986","815397","26.764536","10.438316","0.020430","657819","830433","861535","21.564542","7.818044","0.021923","602835","788275","950231","14.763668","5.137993","0.028250","3482","7533","10932","3829","7181","9537","3837","6661","8467","3966","6234","7523","4184","6136","7178","DualSpot on"
"MA200-0416","59958","123","1","1.10","1.6","2023-08-24T13:40:00","120","2023/08/24","13:40:00","-15.787259340286255","35.03521949052811","0.1","12","300","64","33","-1064","24388","-1100","0","150","150.43","116.39","34.04","38.36","22.4","13.16","89304","39.38","DUALSPOT-UV-BLUE-GREEN-RED-IR","500139","576558","907386","42.228160","19.376098","0.015896","526877","756513","759716","32.080666","13.309669","0.018279","625509","785864","813245","27.288638","10.697051","0.019455","656726","831144","863934","22.008686","8.014065","0.020205","600933","787355","950469","15.102840","5.280121","0.026461","3406","7171","10363","3696","6763","8937","3738","6311","7969","3828","5777","6894","4070","5833","6780","DualSpot on"
"MA200-0416","59959","123","1","1.10","1.6","2023-08-24T13:45:00","120","2023/08/24","13:45:00","-15.787134051322937","35.03528815880418","0.1","12","300","64","35","-1004","24452","-1448","0","150","149.96","117.30","32.66","38.62","22.0","13.13","89300","39.56","DUALSPOT-UV-BLUE-GREEN-RED-IR","497399","574832","908363","42.879532","19.780194","0.016211","527410","759296","764809","32.642322","13.611670","0.018840","623042","784812","814194","27.794440","10.947862","0.020258","654884","830767","865180","22.439542","8.206147","0.021686","598593","785790","949847","15.433384","5.417795","0.028069","3261","7267","10697","3549","6855","9219","3579","6375","8192","3685","5900","7178","3936","5888","6944","DualSpot on"
"MA200-0416","59960","123","1","1.10","1.6","2023-08-24T13:50:00","120","2023/08/24","13:50:00","-15.787131011486053","35.03526282683015","0.4","12","300","64","38","-1008","24436","-1504","0","150","149.42","118.32","31.09","38.73","21.6","12.94","89292","39.63","DUALSPOT-UV-BLUE-GREEN-RED-IR","494704","573305","910221","43.627864","20.251434","0.016565","521736","753159","761159","33.244816","13.941108","0.019567","620198","783272","814811","28.327862","11.218014","0.021376","647905","823932","859845","22.889982","8.411911","0.023530","596698","784850","950028","15.769878","5.556890","0.029768","3714","8901","13395","3774","7854","10800","3742","7213","9488","3819","6639","8277","3972","6249","7487","DualSpot on"
"MA200-0416","59961","123","1","1.10","1.6","2023-08-24T13:55:00","120","2023/08/24","13:55:00","-15.78706032037735","35.035294491797686","0.1","12","300","64","39","-1076","24412","-692","0","150","149.80","118.68","31.11","38.85","21.3","12.79","89288","39.69","DUALSPOT-UV-BLUE-GREEN-RED-IR","488051","566992","904066","44.305960","20.681424","0.016405","520093","752661","762995","33.806844","14.250690","0.019392","617798","782162","815729","28.825864","11.472872","0.021253","645642","822900","860474","23.311574","8.608801","0.023737","595381","784489","950888","16.082432","5.690408","0.030682","3355","8117","12285","3510","7376","10192","3483","6800","8993","3563","6348","7979","3678","5994","7262","DualSpot on"
"MA200-0416","59962","123","1","1.10","1.6","2023-08-24T14:00:00","120","2023/08/24","14:00:00","-15.787162780761719","35.03518099337816","0.1","12","300","64","40","-996","24244","-1348","0","150","149.63","118.85","30.78","38.93","21.2","12.83","89300","39.75","DUALSPOT-UV-BLUE-GREEN-RED-IR","486690","566789","907560","44.966944","21.102944","0.016318","518410","752158","764879","34.369656","14.562823","0.019336","613080","778044","813560","29.326660","11.732867","0.021352","644543","823339","862678","23.738488","8.812822","0.024160","594544","784814","952563","16.395588","5.826320","0.031221","3266","8044","12269","3510","7518","10465","3498","7013","9357","3603","6650","8449","3680","6168","7540","DualSpot on"
"MA200-0416","59963","123","1","1.10","1.6","2023-08-24T14:05:00","120","2023/08/24","14:05:00","-15.787160694599152","35.03527815639973","0.1","13","300","64","41","-966","24308","-1362","0","150","150.62","118.91","31.71","39.06","21.1","12.80","89304","39.94","DUALSPOT-UV-BLUE-GREEN-RED-IR","481335","561874","903552","45.634004","21.533058","0.015967","513591","746958","761989","34.928052","14.876687","0.018858","611401","777783","815398","29.826202","11.991616","0.020513","640327","819802","860711","24.165588","9.010828","0.022379","594288","785913","955215","16.712425","5.962431","0.029149","3294","7967","12142","3481","7338","10199","3487","6774","8985","3603","6265","7847","3722","5996","7257","DualSpot on"
"MA200-0416","59964","123","1","1.10","1.6","2023-08-24T14:10:00","120","2023/08/24","14:10:00","-15.787062346935272","35.03529865667224","0.4","13","300","64","43","-1012","24425","-1266","0","150","150.01","118.92","31.09","39.17","21.0","12.86","89304","40.00","DUALSPOT-UV-BLUE-GREEN-RED-IR","480207","561883","907476","46.304808","21.963386","0.015861","512351","747008","764420","35.491044","15.190795","0.018730","609679","777484","817223","30.330064","12.252402","0.020500","639576","820730","863406","24.596516","9.213340","0.022788","590217","781919","951682","17.032818","6.101442","0.029759","3313","8130","12477","3509","7490","10469","3517","6964","9300","3635","6535","8272","3763","6246","7632","DualSpot on"
"MA200-0416","59965","123","1","1.10","1.6","2023-08-24T14:15:00","120","2023/08/24","14:15:00","-15.787162125110626","35.03526099026203","0.3","12","300","64","43","-1112","24552","-1244","0","150","150.21","118.88","31.34","39.19","20.6","12.55","89292","39.94","DUALSPOT-UV-BLUE-GREEN-RED-IR","475072","556964","903183","46.908120","22.371026","0.015973","507702","741872","761460","36.014928","15.490880","0.018687","605044","773249","814793","30.801108","12.503934","0.020559","633368","814464","858526","25.001898","9.413247","0.023307","589198","781852","952880","17.333310","6.237421","0.030472","2980","7640","11888","3267","7098","9991","3289","6663","8969","3421","6400","8198","3531","6061","7484","DualSpot on"
"MA200-0416","59966","123","1","1.10","1.6","2023-08-24T14:20:00","120","2023/08/24","14:20:00","-15.787151515483856","35.03530215844512","0.1","13","300","64","45","-1083","24291","-1245","0","150","149.61","118.30","31.30","39.11","20.4","12.36","89292","39.88","DUALSPOT-UV-BLUE-GREEN-RED-IR","476218","559371","910632","47.485960","22.757790","0.015710","504876","739255","761051","36.525796","15.794199","0.018799","602495","771583","815123","31.263538","12.761691","0.020839","637067","820767","866960","25.398954","9.618389","0.023828","588174","781705","953966","17.619876","6.371141","0.030907","2868","7256","11294","3201","7182","10216","3245","6835","9312","3367","6574","8529","3383","5967","7430","DualSpot on"
"MA200-0416","59967","123","1","1.10","1.6","2023-08-24T14:25:00","120","2023/08/24","14:25:00","-15.78710275888443","35.03530449047685","0.0","13","300","64","46","-1036","24404","-1488","0","150","149.90","118.66","31.24","39.07","20.4","12.29","89288","39.88","DUALSPOT-UV-BLUE-GREEN-RED-IR","473424","557170","910572","48.070428","23.146512","0.015527","502246","737025","761095","37.044688","16.098196","0.018470","599342","769167","814691","31.734376","13.021188","0.020470","633886","818311","866164","25.807578","9.828723","0.023508","586193","780330","953598","17.916760","6.507251","0.030023","2893","7308","11408","3241","7213","10266","3294","6896","9402","3455","6754","8784","3495","6086","7564","DualSpot on"
"MA200-0416","59968","123","1","1.10","1.6","2023-08-24T14:30:00","120","2023/08/24","14:30:00","-15.787167251110077","35.035304825752974","0.1","13","300","64","47","-1060","24344","-1420","0","150","150.56","118.54","32.02","39.00","20.4","12.24","89276","39.75","DUALSPOT-UV-BLUE-GREEN-RED-IR","470080","554380","909695","48.672416","23.552494","0.015277","502615","739172","765748","37.583884","16.420147","0.018159","595768","766210","813811","32.225254","13.298172","0.020158","629829","814728","864305","26.232906","10.049237","0.022811","583716","778294","952496","18.224952","6.651808","0.029461","2982","7446","11632","3372","7453","10620","3438","7181","9811","3599","6909","8963","3632","6306","7843","DualSpot on"
"MA200-0416","59969","123","1","1.10","1.6","2023-08-24T14:35:00","120","2023/08/24","14:35:00","-15.787159502506256","35.03527965769172","0.2","13","300","64","47","-1032","24416","-1224","0","150","150.56","118.50","32.06","38.90","20.2","12.05","89272","39.56","DUALSPOT-UV-BLUE-GREEN-RED-IR","466725","551465","908672","49.285944","23.966088","0.015093","495887","730871","759696","38.140684","16.756840","0.018033","592868","764133","813956","32.733150","13.587430","0.019977","627810","813802","865362","26.677014","10.286322","0.022980","582981","778612","954347","18.547092","6.805427","0.029462","3040","7577","11871","3483","7785","11157","3558","7491","10281","3759","7419","9716","3797","6693","8372","DualSpot on"
"MA200-0416","59970","123","1","1.10","1.6","2023-08-24T14:40:00","120","2023/08/24","14:40:00","-15.787139654159546","35.035327322781086","0.1","13","300","64","49","-1033","24508","-1108","0","150","149.64","118.38","31.26","38.82","20.1","11.89","89272","39.50","DUALSPOT-UV-BLUE-GREEN-RED-IR","463151","548309","907153","49.878952","24.371002","0.015160","496230","732946","764321","38.674304","17.079878","0.018057","591656","764210","816295","33.219670","13.863339","0.019966","623562","809871","863093","27.099000","10.510820","0.023017","580304","776244","952847","18.851940","6.951481","0.029882","2942","7608","12066","3341","7661","11077","3412","7328","10132","3576","7205","9505","3597","6527","8238","DualSpot on"
"MA200-0416","59971","123","1","1.10","1.6","2023-08-24T14:45:00","120","2023/08/24","14:45:00","-15.787157952785492","35.035270154476166","0.1","12","300","64","50","-1036","24352","-1324","0","150","150.42","118.42","32.00","38.78","20.1","11.86","89268","39.50","DUALSPOT-UV-BLUE-GREEN-RED-IR","459795","545270","905581","50.443360","24.759354","0.014913","493479","730281","763899","39.180984","17.388874","0.017692","588413","761510","815564","33.680348","14.126737","0.019528","620017","806797","861688","27.500512","10.723386","0.022224","577964","774354","951781","19.144574","7.089897","0.028399","2799","7127","11299","3171","7157","10338","3229","6833","9436","3401","6663","8748","3452","6041","7565","DualSpot on"
"MA200-0416","59972","123","1","1.10","1.6","2023-08-24T14:50:00","120","2023/08/24","14:50:00","-15.787167429924011","35.03529482707381","0.5","12","300","64","52","-1024","24412","-1400","0","150","150.49","118.29","32.20","38.73","20.0","11.75","89268","39.44","DUALSPOT-UV-BLUE-GREEN-RED-IR","457642","543628","906365","50.996520","25.143834","0.014785","491065","728130","764011","39.681044","17.696726","0.017512","586208","760143","816252","34.139564","14.392492","0.019352","617904","805536","862170","27.901184","10.939070","0.022100","577474","774838","953743","19.434402","7.229660","0.028369","2746","7013","11164","3133","7088","10271","3222","6852","9498","3398","6720","8863","3422","6063","7628","DualSpot on"
"MA200-0416","59973","123","1","1.10","1.6","2023-08-24T14:55:00","120","2023/08/24","14:55:00","-15.787128210067749","35.03527432307601","0.1","12","300","64","53","-1075","24291","-1583","0","150","150.28","117.96","32.32","38.63","20.0","11.69","89264","39.25","DUALSPOT-UV-BLUE-GREEN-RED-IR","455691","542314","908027","51.602876","25.567398","0.014618","489077","726719","765156","40.236588","18.040690","0.017283","583507","758241","816630","34.648016","14.688171","0.019072","617155","806183","864964","28.344570","11.179325","0.021784","576381","774652","955017","19.757916","7.387550","0.028094","3019","7696","12290","3491","7888","11463","3578","7594","10549","3771","7457","9858","3831","6823","8610","DualSpot on"
"MA200-0416","59974","123","1","1.10","1.6","2023-08-24T15:00:00","120","2023/08/24","15:00:00","-15.787122786045074","35.03530232608318","0.6","12","300","64","54","-955","24396","-1188","0","150","149.99","117.65","32.33","38.51","20.0","11.60","89260","39.13","DUALSPOT-UV-BLUE-GREEN-RED-IR","451953","538773","906010","52.206596","25.998298","0.014574","485577","722956","763803","40.775488","18.381558","0.017248","580076","755292","815861","35.139072","14.981253","0.019106","612837","802109","862585","28.773690","11.416210","0.021749","573938","772552","953908","20.066922","7.540786","0.028062","3013","7828","12603","3395","7815","11444","3465","7526","10544","3659","7350","9778","3668","6621","8398","DualSpot on"
"MA200-0416","59975","123","1","1.10","1.6","2023-08-24T15:05:00","120","2023/08/24","15:05:00","-15.787170350551605","35.03527599200606","0.1","12","300","64","56","-1092","24296","-1216","0","150","150.21","117.38","32.84","38.45","20.2","11.66","89256","39.13","DUALSPOT-UV-BLUE-GREEN-RED-IR","447698","534907","904400","52.972052","26.543232","0.014269","481851","719129","762788","41.414588","18.780816","0.016731","575850","751584","814562","35.716000","15.316164","0.018284","608125","797792","860269","29.276974","11.687692","0.020735","570989","770099","952541","20.435078","7.715563","0.025850","3830","9747","15689","4036","9013","13143","4080","8467","11761","4301","8294","10947","4381","7435","9287","DualSpot on"
"MA200-0416","59976","123","1","1.10","1.6","2023-08-24T15:10:00","120","2023/08/24","15:10:00","-15.787131488323212","35.03535332530737","0.5","12","300","64","57","-1016","24329","-1616","0","150","150.01","117.84","32.17","38.41","20.2","11.66","89252","39.13","DUALSPOT-UV-BLUE-GREEN-RED-IR","444938","532782","905768","53.738684","27.090100","0.014232","479106","716735","763406","42.064520","19.189368","0.016771","573488","750340","816039","36.302740","15.661589","0.018466","606965","798090","863020","29.783512","11.963986","0.020990","570470","770861","955242","20.806858","7.896789","0.026850","3821","9984","16249","4088","9414","13881","4133","8914","12541","4312","8616","11505","4407","7869","9986","DualSpot on"
"MA200-0416","59977","123","1","1.10","1.6","2023-08-24T15:15:00","120","2023/08/24","15:15:00","-15.787181973457336","35.03526932373643","0.1","12","300","64","59","-987","24366","-1054","0","150","149.76","117.66","32.10","38.35","20.1","11.54","89252","39.00","DUALSPOT-UV-BLUE-GREEN-RED-IR","442757","531261","908054","54.475996","27.622768","0.014130","477377","715786","765385","42.687496","19.584414","0.016629","570614","748294","816504","36.866492","15.995488","0.018284","605679","798176","865435","30.274158","12.231235","0.020668","565738","765859","950653","21.164658","8.070001","0.026263","3680","9745","15984","3925","9122","13528","3977","8635","12204","4183","8352","11177","4248","7537","9564","DualSpot on"
"MA200-0416","59978","123","1","1.10","1.6","2023-08-24T15:20:00","120","2023/08/24","15:20:00","-15.787281095981598","35.0352419950068","0.3","13","300","64","60","-1020","24348","-908","0","150","150.62","117.10","33.52","38.20","20.0","11.32","89244","38.75","DUALSPOT-UV-BLUE-GREEN-RED-IR","440814","529870","909979","55.132948","28.101058","0.013765","472024","709231","761216","43.268724","19.959224","0.016162","565770","743466","813853","37.393576","16.315329","0.017789","603673","797189","866578","30.735364","12.489946","0.020102","565126","766337","952832","21.502732","8.237629","0.025241","3295","8381","13668","3679","8289","12237","3736","7922","11161","3951","7743","10339","4032","6986","8819","DualSpot on"
"MA200-0416","59979","123","1","1.10","1.6","2023-08-24T15:25:00","120","2023/08/24","15:25:00","-15.787139654159546","35.0352669917047","0.0","13","300","64","63","-1016","24379","-1516","0","150","149.51","117.14","32.36","37.99","20.0","11.14","89248","38.50","DUALSPOT-UV-BLUE-GREEN-RED-IR","434724","523382","903113","55.774408","28.577228","0.013909","469923","707439","762145","43.837140","20.332196","0.016412","562847","741084","813836","37.911600","16.635921","0.018160","596431","789063","860023","31.186818","12.752553","0.020894","564824","767118","955405","21.824662","8.402346","0.026612","3216","8642","14344","3597","8543","12822","3671","8224","11785","3866","8141","11098","3839","7110","9158","DualSpot on"
"MA200-0416","59980","123","1","1.10","1.6","2023-08-24T15:30:00","120","2023/08/24","15:30:00","-15.787117004394531","35.03530015796423","0.1","14","300","64","64","-1083","24425","-1945","0","150","150.09","117.34","32.75","37.90","20.2","11.21","89244","38.50","DUALSPOT-UV-BLUE-GREEN-RED-IR","432573","521673","904522","56.425544","29.062702","0.013737","467487","705162","762493","44.403040","20.703582","0.016144","560639","739635","814778","38.422388","16.948838","0.017732","594941","788592","861688","31.631668","13.005624","0.020173","560272","762177","950782","22.145440","8.566645","0.026038","3259","8706","14491","3575","8406","12626","3613","7932","11340","3803","7752","10509","3818","7007","9019","DualSpot on"
"MA200-0416","59981","123","1","1.10","1.6","2023-08-24T15:35:00","120","2023/08/24","15:35:00","-15.787047982215881","35.03531115874648","0.1","14","300","64","66","-920","24240","-1340","0","150","149.94","117.13","32.81","37.88","20.2","11.22","89244","38.44","DUALSPOT-UV-BLUE-GREEN-RED-IR","431377","521118","908155","57.099580","29.566356","0.013585","466613","705239","765516","44.979868","21.083176","0.015951","558648","738517","816185","38.947876","17.271920","0.017516","595206","790537","865995","32.084346","13.261662","0.019781","560424","763638","954188","22.477550","8.733799","0.025171","3380","9016","15068","3650","8576","12922","3724","8175","11721","3877","7829","10613","3961","7116","9122","DualSpot on"
"MA200-0416","59982","123","1","1.10","1.6","2023-08-24T15:40:00","120","2023/08/24","15:40:00","-15.787108302116394","35.03528382629156","0.2","15","300","64","67","-1162","24462","-1333","0","150","150.14","117.13","33.02","37.79","20.1","11.08","89248","38.31","DUALSPOT-UV-BLUE-GREEN-RED-IR","426218","515694","903043","57.742796","30.049892","0.013448","461982","699584","762168","45.546796","21.457122","0.015742","554134","733963","813745","39.463468","17.589386","0.017261","588730","783435","860440","32.536724","13.519496","0.019551","556540","759567","950705","22.810288","8.900230","0.024526","3225","8601","14435","3588","8396","12678","3654","7982","11462","3874","7834","10649","3968","7041","9007","DualSpot on"
"MA200-0416","59983","123","1","1.10","1.6","2023-08-24T15:45:00","120","2023/08/24","15:45:00","-15.787189841270447","35.035255659371614","0.3","15","300","64","69","-1140","24456","-1564","0","150","149.94","117.00","32.93","37.50","20.0","10.71","89260","38.00","DUALSPOT-UV-BLUE-GREEN-RED-IR","425434","515492","906869","58.341904","30.509586","0.013428","461474","699981","765418","46.081256","21.820796","0.015823","552118","732595","814785","39.951372","17.902480","0.017488","588804","784894","864248","32.965062","13.777144","0.020063","557096","761418","954572","23.116550","9.062513","0.025613","3007","8198","13888","3386","8185","12502","3462","7892","11489","3672","7848","10846","3656","6883","8963","DualSpot on"
"MA200-0416","59984","123","1","1.10","1.6","2023-08-24T15:50:00","120","2023/08/24","15:50:00","-15.787146627902985","35.03525632619858","0.2","14","300","68","71","-1044","24408","-1212","1","150","150.14","117.04","33.10","37.13","20.3","10.66","89280","37.50","DUALSPOT-UV-BLUE-GREEN-RED-IR","774530","704852","906393","0.000000","0.000000","0.000000","742002","878822","761291","0.000000","0.000000","0.000000","838526","890411","816518","0.000000","0.000000","0.000000","825489","908393","859335","0.000000","0.000000","0.000000","704518","839848","954388","0.000000","0.000000","0.000000","","","","","","","","","","","","","","","","Tape advance-DualSpot on"
"MA200-0416","59985","123","1","1.10","1.6","2023-08-24T15:55:00","120","2023/08/24","15:55:00","-15.787046492099762","35.0353144928813","0.3","14","300","68","72","-1104","24412","-1420","1","150","149.73","116.25","33.48","36.76","20.6","10.55","89288","37.13","DUALSPOT-UV-BLUE-GREEN-RED-IR","754318","697407","903400","0.000000","0.000000","0.000000","733380","877944","764373","0.000000","0.000000","0.000000","826447","885173","815043","0.000000","0.000000","0.000000","823541","912208","865660","0.000000","0.000000","0.000000","696839","834111","949516","0.000000","0.000000","0.000000","","","","","","","","","","","","","","","","Tape advance-DualSpot on"
"MA200-0416","59986","123","1","1.10","1.6","2023-08-24T16:00:00","120","2023/08/24","16:00:00","-15.787163138389587","35.03529232740402","0.4","14","300","64","75","-1096","24584","-1144","1","150","150.43","116.55","33.88","36.52","20.8","10.51","89284","36.94","DUALSPOT-UV-BLUE-GREEN-RED-IR","737705","692085","903089","2.196930","0.731561","0.000000","722570","873914","764703","1.529663","0.506782","0.000000","816158","881540","815012","1.250362","0.411600","0.000000","816211","909973","866248","0.968257","0.319278","0.000000","694212","834372","951505","0.586952","0.174606","0.000000","11071","12683","11071","9729","11089","9729","8907","10087","8907","8335","9455","8335","7035","7199","7035","DualSpot on"
"MA200-0416","59987","123","1","1.10","1.6","2023-08-24T16:05:00","120","2023/08/24","16:05:00","-15.787113428115845","35.0352958291769","0.1","14","300","64","77","-1100","24380","-1252","1","150","149.92","116.25","33.68","36.25","21.0","10.45","89280","36.63","DUALSPOT-UV-BLUE-GREEN-RED-IR","720952","686545","902969","4.475691","1.518373","0.050287","711702","869555","764876","3.066976","1.028805","0.067096","805683","877468","814679","2.501590","0.831508","0.000000","802189","900121","859625","1.931689","0.639534","0.000000","692090","835266","954204","1.174888","0.350536","0.000000","11513","13723","14857","9803","11491","12343","8936","10352","8936","8314","9541","8314","7065","7298","7065","DualSpot on"
"MA200-0416","59988","123","1","1.10","1.6","2023-08-24T16:10:00","120","2023/08/24","16:10:00","-15.787066102027893","35.03530582413077","0.2","14","300","64","78","-1188","24408","-1124","1","150","149.94","116.75","33.18","35.98","21.2","10.36","89276","36.38","DUALSPOT-UV-BLUE-GREEN-RED-IR","707332","685018","909583","7.110950","2.469778","0.041171","698952","863384","763976","4.754567","1.620870","0.055162","797150","875949","817084","3.857242","1.296037","0.061285","799005","902734","865127","2.963220","0.986599","0.000000","686987","832712","953099","1.801925","0.541516","0.000000","13257","16839","18745","10715","13226","14525","9640","11621","12624","8864","10492","8864","7502","8039","7502","DualSpot on"
"MA200-0416","59989","123","1","1.10","1.6","2023-08-24T16:15:00","120","2023/08/24","16:15:00","-15.787034034729004","35.035267159342766","0.2","14","300","64","80","-1144","24532","-1196","1","150","149.96","116.43","33.53","35.72","21.5","10.33","89284","36.13","DUALSPOT-UV-BLUE-GREEN-RED-IR","685342","675667","907066","10.000906","3.570221","0.033368","685103","856107","762410","6.555045","2.263945","0.040934","784563","870313","815890","5.302046","1.796817","0.044375","788026","896956","862847","4.079116","1.362163","0.049498","682795","831730","953872","2.494979","0.744530","0.000000","14579","19274","21881","11464","14216","15668","10302","12398","13472","9615","11236","12048","8315","8457","8315","DualSpot on"
"MA200-0416","59990","123","1","1.10","1.6","2023-08-24T16:20:00","120","2023/08/24","16:20:00","-15.787096440792084","35.035298991948366","0.3","14","300","64","82","-1183","24575","-1020","1","150","149.97","116.44","33.53","35.51","21.6","10.28","89288","35.88","DUALSPOT-UV-BLUE-GREEN-RED-IR","674823","673274","910963","11.980099","4.354454","0.030994","677741","854566","765179","7.992017","2.801424","0.039430","773159","864222","813700","6.505204","2.232837","0.043406","783562","897423","866175","5.037074","1.697796","0.048896","676733","827818","951243","3.107048","0.935578","0.034490","9983","13736","15880","9148","11882","13358","8578","10795","11954","8254","10042","10951","7343","7959","8224","DualSpot on"
"MA200-0416","59991","123","1","1.10","1.6","2023-08-24T16:25:00","120","2023/08/24","16:25:00","-15.787054419517517","35.03529416024685","0.1","14","300","64","83","-1170","24529","-1287","1","150","149.57","116.39","33.18","35.35","21.9","10.30","89304","35.75","DUALSPOT-UV-BLUE-GREEN-RED-IR","659682","664780","905726","13.679201","5.050646","0.029935","665740","846307","761660","9.325600","3.316211","0.038035","765593","861899","814976","7.641470","2.657020","0.042123","772354","889739","861655","5.957892","2.031129","0.048767","674881","828948","954314","3.708973","1.127374","0.039031","8574","12325","14520","8494","11502","13163","8105","10614","11952","7937","10080","11188","7224","8075","8447","DualSpot on"
"MA200-0416","59992","123","1","1.10","1.6","2023-08-24T16:30:00","120","2023/08/24","16:30:00","-15.787205338478088","35.03527299314737","0.1","14","300","64","85","-1172","24440","-1264","1","150","150.13","116.98","33.15","35.12","22.0","10.19","89300","35.50","DUALSPOT-UV-BLUE-GREEN-RED-IR","648307","659647","905010","15.335602","5.746246","0.028380","656794","841598","761416","10.643593","3.839194","0.036171","756561","857689","814509","8.772559","3.090942","0.040265","764953","886374","861302","6.876426","2.370757","0.046163","671544","828224","955414","4.315849","1.324404","0.040229","8317","12324","14726","8352","11695","13581","8027","10867","12412","7877","10278","11541","7247","8302","8770","DualSpot on"
"MA200-0416","59993","123","1","1.10","1.6","2023-08-24T16:35:00","120","2023/08/24","16:35:00","-15.7871453166008","35.03526982292533","0.2","14","300","64","88","-1228","24488","-1184","1","150","149.86","116.82","33.04","34.80","22.0","9.96","89292","35.06","DUALSPOT-UV-BLUE-GREEN-RED-IR","639486","656818","907646","16.998416","6.464653","0.027050","649462","838798","763026","11.973967","4.384679","0.034659","748526","854464","815145","9.921247","3.546065","0.038718","760006","885793","863846","7.818535","2.731281","0.044980","665939","824707","953302","4.934555","1.530606","0.041622","8360","12770","15477","8442","12238","14431","8163","11435","13255","8091","10947","12480","7398","8717","9311","DualSpot on"
"MA200-0416","59994","123","1","1.10","1.6","2023-08-24T16:40:00","120","2023/08/24","16:40:00","-15.787177383899689","35.03526632487774","0.1","14","300","64","90","-1172","24450","-1030","1","150","149.72","116.92","32.80","34.46","22.2","9.77","89292","34.69","DUALSPOT-UV-BLUE-GREEN-RED-IR","630148","653014","908919","18.612080","7.185951","0.026411","642418","835805","764384","13.250265","4.921328","0.033397","740266","850552","815057","11.018133","3.993392","0.037741","747992","876535","857832","8.716284","3.084594","0.044071","660059","820615","950484","5.523521","1.733087","0.044793","8106","12917","15943","8092","12130","14516","7788","11323","13333","7703","10808","12508","7037","8624","9350","DualSpot on"
"MA200-0416","59995","123","1","1.10","1.6","2023-08-24T16:45:00","120","2023/08/24","16:45:00","-15.787210524082184","35.0352768227458","0.5","14","300","64","92","-1096","24368","-1404","1","150","150.55","116.93","33.62","34.19","22.5","9.74","89296","34.38","DUALSPOT-UV-BLUE-GREEN-RED-IR","617309","644698","903180","20.043660","7.837700","0.024408","636410","833522","766141","14.420225","5.425154","0.030773","733950","848303","816324","12.032660","4.414517","0.034239","744182","876431","860623","9.551220","3.418862","0.039710","658918","822118","954079","6.075275","1.925923","0.039472","7190","11385","14078","7417","11108","13334","7203","10398","12250","7163","9974","11541","6591","8011","8671","DualSpot on"
"MA200-0416","59996","123","1","1.10","1.6","2023-08-24T16:50:00","120","2023/08/24","16:50:00","-15.787228226661682","35.03522665798664","0.3","14","300","64","95","-1176","24408","-1384","1","150","150.49","116.71","33.78","33.99","22.7","9.75","89300","34.19","DUALSPOT-UV-BLUE-GREEN-RED-IR","609940","641679","904659","21.411430","8.471977","0.023310","625670","824677","761730","15.549253","5.914510","0.028640","724179","841841","813433","13.017212","4.824507","0.031554","739377","875078","862091","10.372753","3.747904","0.036186","652923","817596","950621","6.627434","2.116552","0.033306","6883","11028","13742","7171","10739","12929","7003","10076","11885","7062","9772","11305","6609","7883","8481","DualSpot on"
"MA200-0416","59997","123","1","1.10","1.6","2023-08-24T16:55:00","120","2023/08/24","16:55:00","-15.787178218364716","35.035270154476166","0.4","14","300","64","96","-1224","24568","-996","1","150","149.76","116.63","33.14","33.77","22.9","9.70","89300","33.94","DUALSPOT-UV-BLUE-GREEN-RED-IR","601107","637428","905024","22.904888","9.174305","0.022798","618074","820479","762053","16.804512","6.465316","0.027935","719039","841295","816721","14.129115","5.290539","0.030552","732872","872309","862607","11.310556","4.121816","0.034322","649608","817000","952087","7.289661","2.342213","0.031143","7521","12448","15741","7978","12322","15038","7915","11676","13927","8067","11320","13186","7932","9513","10261","DualSpot on"
"MA200-0416","59998","123","1","1.10","1.6","2023-08-24T17:00:00","120","2023/08/24","17:00:00","-15.787265241146088","35.03521565720439","0.2","14","300","64","97","-1336","24488","-1556","1","150","150.62","117.14","33.48","33.49","23.1","9.56","89288","33.63","DUALSPOT-UV-BLUE-GREEN-RED-IR","596190","637068","910889","24.368908","9.873852","0.021767","613956","820555","766302","18.029230","7.011389","0.026525","710535","836564","815892","15.215504","5.753023","0.028948","725474","868220","861762","12.231903","4.492807","0.032095","645355","815100","952001","7.936405","2.564695","0.029145","7340","12272","15632","7750","12091","14854","7699","11468","13760","7890","11117","12990","7712","9283","10033","DualSpot on"
"MA200-0416","59999","123","1","1.10","1.6","2023-08-24T17:05:00","120","2023/08/24","17:05:00","-15.787217199802399","35.03527965769172","0.2","14","300","64","98","-1244","24364","-1316","1","150","150.36","116.47","33.89","33.16","23.2","9.34","89288","33.19","DUALSPOT-UV-BLUE-GREEN-RED-IR","584212","628581","904751","25.725040","10.540119","0.020927","603893","812010","762256","19.157740","7.531386","0.025587","701972","831032","814076","16.210594","6.192959","0.028169","721107","867231","863843","13.074421","4.850256","0.032226","640648","812210","950584","8.519806","2.774839","0.030607","6839","11546","14814","7183","11374","14089","7093","10777","13054","7257","10581","12541","6997","8661","9465","DualSpot on"
"MA200-0416","60000","123","1","1.10","1.6","2023-08-24T17:10:00","120","2023/08/24","17:10:00","-15.787191927433014","35.03528882563114","0.2","14","300","64","97","-1284","24464","-1196","1","150","150.09","116.31","33.79","32.81","23.4","9.17","89280","32.75","DUALSPOT-UV-BLUE-GREEN-RED-IR","577970","626699","909133","27.263984","11.315010","0.020404","598114","809558","764432","20.394380","8.115494","0.024995","696943","830041","817124","17.296500","6.686867","0.027741","717480","867351","867434","13.989803","5.249059","0.031768","640027","814627","955697","9.149944","3.011638","0.033276","7771","13471","17515","7882","12816","16078","7751","12137","14901","7896","11842","14212","7568","9791","10881","DualSpot on"
"MA200-0416","60001","123","1","1.10","1.6","2023-08-24T17:15:00","120","2023/08/24","17:15:00","-15.787089943885803","35.03527982532978","0.2","14","300","64","98","-1252","24508","-1192","1","150","149.80","116.32","33.47","32.45","23.6","9.04","89284","32.38","DUALSPOT-UV-BLUE-GREEN-RED-IR","559297","614331","903453","29.922760","12.685268","0.019337","585182","799723","761498","22.195240","8.951366","0.022831","684238","821879","814489","18.815514","7.352788","0.024562","703922","857316","861860","15.256168","5.767645","0.026538","632508","809772","952920","10.038506","3.318317","0.022863","13425","24044","31859","11476","18512","23267","10841","16516","20157","10922","15543","18352","10670","12798","13849","DualSpot on"
"MA200-0416","60002","123","1","1.10","1.6","2023-08-24T17:20:00","120","2023/08/24","17:20:00","-15.78714382648468","35.03527148813009","0.1","14","300","64","98","-1312","24529","-1287","1","150","150.13","116.08","34.05","32.09","23.9","8.91","89296","31.94","DUALSPOT-UV-BLUE-GREEN-RED-IR","548266","608074","904935","32.086864","13.870911","0.018841","577819","795989","763618","23.737052","9.699869","0.022142","676181","818156","815754","20.154462","7.957089","0.023367","697954","855801","864494","16.411169","6.250791","0.024843","625780","805711","950921","10.898548","3.609130","0.017068","10950","20453","27690","9846","16297","20755","9576","14735","18101","9982","14236","16854","10350","11932","12715","DualSpot on"
"MA200-0416","60003","123","1","1.10","1.6","2023-08-24T17:25:00","120","2023/08/24","17:25:00","-15.787189185619354","35.03530166298151","0.2","14","300","64","98","-1333","24504","-1137","1","150","150.23","116.63","33.60","31.72","24.2","8.76","89288","31.50","DUALSPOT-UV-BLUE-GREEN-RED-IR","539358","603246","906943","33.954560","14.895023","0.018164","569437","789912","762988","25.123972","10.384542","0.021843","670032","815934","818106","21.359766","8.518802","0.023725","692643","854184","866738","17.436820","6.698999","0.026170","623770","806895","954845","11.632156","3.873022","0.023341","9406","17902","24542","8815","15106","19538","8580","13879","17395","8823","13383","16228","8787","10971","12062","DualSpot on"
"MA200-0416","60004","123","1","1.10","1.6","2023-08-24T17:30:00","120","2023/08/24","17:30:00","-15.78708928823471","35.035315822809935","0.6","13","300","64","98","-1296","24520","-1128","1","150","149.63","116.43","33.20","31.33","24.5","8.63","89292","31.13","DUALSPOT-UV-BLUE-GREEN-RED-IR","533374","600273","909837","35.374028","15.698334","0.018063","562811","785114","762945","26.280372","10.981238","0.022132","661655","809996","816237","22.385382","9.019950","0.024319","683264","846670","862639","18.319352","7.106599","0.027458","619153","804076","953791","12.267307","4.117391","0.028080","7160","14210","19834","7363","13322","17599","7313","12530","16051","7604","12316","15302","7620","10281","11625","DualSpot on"
"MA200-0416","60005","123","1","1.10","1.6","2023-08-24T17:35:00","120","2023/08/24","17:35:00","-15.787187695503235","35.03520632535219","0.2","14","300","64","98","-1268","24532","-859","1","150","150.36","116.95","33.41","30.98","24.8","8.54","89292","30.75","DUALSPOT-UV-BLUE-GREEN-RED-IR","519535","590802","907095","37.701444","16.986134","0.016717","554226","780195","764928","28.072036","11.868757","0.019938","650884","803596","815839","23.970418","9.759888","0.021557","676256","844569","865687","19.698532","7.706383","0.023436","612157","800316","953038","13.315044","4.501213","0.022444","11689","22637","31614","11357","19690","25794","11252","18385","23283","11832","18009","21978","12515","16046","17850","DualSpot on"
"MA200-0416","60006","123","1","1.10","1.6","2023-08-24T17:40:00","120","2023/08/24","17:40:00","-15.787193536758423","35.03528815880418","0.3","14","300","64","98","-1292","24520","-884","1","150","149.92","116.67","33.26","30.64","25.1","8.42","89276","30.31","DUALSPOT-UV-BLUE-GREEN-RED-IR","510668","585874","909426","39.691624","18.087200","0.015960","545319","773940","765250","29.747974","12.719035","0.019385","639036","795143","813096","25.481450","10.486849","0.021148","668207","840498","866683","21.019430","8.306098","0.023547","605169","795983","951503","14.309860","4.883634","0.024180","10019","19446","27338","10649","18953","25156","10753","18148","23319","11359","18091","22490","11911","16063","18214","DualSpot on"
"MA200-0416","60007","123","1","1.10","1.6","2023-08-24T17:45:00","120","2023/08/24","17:45:00","-15.787162363529205","35.03529332950711","0.2","14","300","64","98","-1248","24472","-1192","1","150","149.86","116.86","33.00","30.30","25.6","8.40","89268","30.00","DUALSPOT-UV-BLUE-GREEN-RED-IR","501477","578841","906323","41.165968","18.956582","0.016239","536919","766179","762294","30.914204","13.342547","0.019766","635719","795067","817255","26.508060","11.004992","0.021642","659909","833882","863454","21.898578","8.722265","0.024162","601673","794403","951953","14.938381","5.130504","0.024975","7410","15472","22353","7398","14005","19022","7293","13034","17109","7548","12651","16029","7513","10449","11985","DualSpot on"
"MA200-0416","60008","123","1","1.10","1.6","2023-08-24T17:50:00","120","2023/08/24","17:50:00","-15.787279427051544","35.03529666364193","0.1","13","300","64","98","-1296","24440","-1100","1","150","150.36","117.08","33.28","30.02","25.9","8.35","89272","29.69","DUALSPOT-UV-BLUE-GREEN-RED-IR","493188","572344","903381","42.512516","19.762436","0.015850","529206","758911","759590","32.008750","13.938551","0.019326","628494","789749","815820","27.480384","11.503369","0.021110","650700","825864","858580","22.737548","9.123007","0.023394","597331","791552","950853","15.546085","5.374189","0.024806","6755","14222","20708","6930","13275","18170","6894","12432","16419","7189","12080","15358","7250","10228","11801","DualSpot on"
"MA200-0416","60009","123","1","1.10","1.6","2023-08-24T17:55:00","120","2023/08/24","17:55:00","-15.78722769021988","35.035298489034176","0.0","13","300","64","98","-1268","24544","-1292","1","150","149.70","116.67","33.03","29.73","26.3","8.32","89284","29.38","DUALSPOT-UV-BLUE-GREEN-RED-IR","486192","567063","902162","43.811008","20.554410","0.015635","525842","757774","762929","33.087638","14.529614","0.018891","622735","786189","816181","28.444072","12.001571","0.020682","649231","827560","863833","23.576766","9.529629","0.023082","594695","790935","952471","16.161934","5.622658","0.024415","6537","14083","20751","6855","13265","18284","6857","12522","16656","7216","12350","15833","7374","10508","12180","DualSpot on"
"MA200-0416","60010","123","1","1.10","1.6","2023-08-24T18:00:00","120","2023/08/24","18:00:00","-15.787189066410065","35.03525299206376","0.2","13","300","64","98","-1404","24448","-916","1","150","149.94","117.25","32.69","29.44","26.6","8.24","89276","29.13","DUALSPOT-UV-BLUE-GREEN-RED-IR","484265","567556","909904","45.055804","21.320164","0.015450","519263","751782","761342","34.138004","15.117179","0.018857","616813","782193","816120","29.393100","12.501023","0.020654","642998","823086","862652","24.404384","9.935662","0.023019","591667","789788","953477","16.775860","5.874515","0.025070","6235","13760","20520","6640","13326","18640","6719","12686","17102","7081","12463","16158","7314","10764","12623","DualSpot on"
"MA200-0416","60011","123","1","1.10","1.6","2023-08-24T18:05:00","120","2023/08/24","18:05:00","-15.787091851234436","35.035246662795544","0.1","12","300","64","98","-1320","24556","-840","1","150","149.53","117.39","32.14","29.20","26.9","8.22","89280","28.88","DUALSPOT-UV-BLUE-GREEN-RED-IR","476360","560918","906127","46.292060","22.085334","0.015268","515812","750235","764277","35.191196","15.707365","0.018585","610008","777056","814839","30.347386","13.004220","0.020375","639855","822540","865648","25.240090","10.348568","0.022857","587771","787442","953082","17.400810","6.133438","0.025409","6185","13983","21097","6651","13612","19225","6749","12998","17683","7142","12889","16882","7437","11253","13331","DualSpot on"
"MA200-0416","60012","123","1","1.10","1.6","2023-08-24T18:10:00","120","2023/08/24","18:10:00","-15.787147343158722","35.03525198996067","0.0","13","300","64","98","-1332","24512","-959","1","150","149.70","117.18","32.51","28.99","27.2","8.18","89284","28.69","DUALSPOT-UV-BLUE-GREEN-RED-IR","470967","557226","907502","47.576896","22.895488","0.014932","511006","746622","765179","36.241468","16.306334","0.018139","602752","771107","812701","31.286320","13.509371","0.019913","631567","815184","861422","26.057054","10.755894","0.022096","582995","783845","951176","18.011192","6.387089","0.024175","6439","14635","22237","6644","13656","19392","6652","12898","17645","6994","12568","16487","7276","10898","12888","DualSpot on"
"MA200-0416","60013","123","1","1.10","1.6","2023-08-24T18:15:00","120","2023/08/24","18:15:00","-15.78711211681366","35.035262659192085","0.0","13","300","64","98","-1356","24632","-1512","1","150","149.49","116.82","32.67","28.80","27.4","8.14","89284","28.50","DUALSPOT-UV-BLUE-GREEN-RED-IR","465431","553443","909439","48.972620","23.785954","0.014571","503175","738591","761724","37.334388","16.934562","0.017648","598100","768609","814313","32.255878","14.030093","0.019209","626695","812291","861980","26.895760","11.175737","0.021369","580794","783719","953455","18.630710","6.643591","0.022946","7017","16009","24500","6935","14255","20331","6890","13232","18115","7203","12893","16938","7408","10967","12940","DualSpot on"
"MA200-0416","60014","123","1","1.10","1.6","2023-08-24T18:20:00","120","2023/08/24","18:20:00","-15.787035822868347","35.035308826714754","0.5","13","300","64","98","-1384","24488","-1032","1","150","150.03","116.67","33.36","28.62","27.7","8.17","89296","28.31","DUALSPOT-UV-BLUE-GREEN-RED-IR","459128","548233","908306","50.211676","24.602840","0.014321","497757","733602","760945","38.319264","17.513248","0.017228","593728","766030","815504","33.133774","14.511809","0.018727","622013","809276","862058","27.656112","11.560534","0.020591","575109","778611","949510","19.200572","6.882271","0.021878","6238","14382","22206","6258","12859","18415","6247","11987","16461","6538","11571","15187","6823","9994","11765","DualSpot on"
"MA200-0416","60015","123","1","1.10","1.6","2023-08-24T18:25:00","120","2023/08/24","18:25:00","-15.787129819393158","35.03525749221444","0.1","12","300","64","98","-1388","24304","-1020","1","150","150.09","117.54","32.55","28.45","27.9","8.12","89300","28.13","DUALSPOT-UV-BLUE-GREEN-RED-IR","449325","538379","898181","51.259780","25.306908","0.014396","495342","732609","763887","39.182952","18.030556","0.017429","588316","761619","814336","33.909540","14.946420","0.019066","619582","808796","864601","28.338784","11.912405","0.021091","574578","780263","953595","19.721298","7.101812","0.022789","5237","12703","19984","5447","11780","17179","5479","11084","15502","5826","10844","14483","6188","9421","11240","DualSpot on"
"MA200-0416","60016","123","1","1.10","1.6","2023-08-24T18:30:00","120","2023/08/24","18:30:00","-15.787118196487427","35.03524166345596","0.1","12","300","64","99","-1440","24328","-828","1","150","150.01","117.40","32.60","28.29","28.2","8.12","89304","28.00","DUALSPOT-UV-BLUE-GREEN-RED-IR","447548","538229","905154","52.426276","26.107010","0.014219","490817","728652","764154","40.138024","18.609400","0.017140","583920","758774","815211","34.767764","15.430609","0.018688","616050","807112","866183","29.094970","12.305130","0.020667","572765","780387","956094","20.297256","7.347841","0.022546","5835","14414","22924","6030","13162","19327","6068","12330","17326","6461","12085","16207","6853","10542","12635","DualSpot on"
"MA200-0416","60017","123","1","1.10","1.6","2023-08-24T18:35:00","120","2023/08/24","18:35:00","-15.787148594856262","35.03515116125345","0.6","12","300","64","98","-1364","24576","-1028","1","150","149.63","117.18","32.45","28.13","28.3","8.08","89316","27.88","DUALSPOT-UV-BLUE-GREEN-RED-IR","443338","535332","908284","53.711448","26.987908","0.013923","487352","726321","766357","41.134060","19.215970","0.016832","577547","753374","813459","35.649592","15.930811","0.018364","608428","800036","862027","29.862874","12.705749","0.020297","568460","777077","954438","20.880806","7.598287","0.022206","6441","15945","25543","6301","13858","20483","6247","12798","18090","6574","12387","16691","6956","10782","12970","DualSpot on"
"MA200-0416","60018","123","1","1.10","1.6","2023-08-24T18:40:00","120","2023/08/24","18:40:00","-15.787245512008667","35.035229824483395","0.1","12","300","64","89","-1334","24550","-880","1","150","149.32","117.12","32.19","27.61","28.8","7.88","89284","26.25","DUALSPOT-UV-BLUE-GREEN-RED-IR","438346","530900","907011","54.701956","27.673516","0.013792","481851","720412","764268","41.996784","19.758648","0.016876","574971","752408","816244","36.431120","16.393497","0.018588","607455","801259","866674","30.558518","13.088366","0.020828","564146","773394","952228","21.411872","7.840523","0.023813","4967","12508","20229","5460","12496","18747","5539","11931","17161","5958","11923","16392","6334","10510","12924","DualSpot on"
"MA200-0416","60019","123","1","1.10","1.6","2023-08-24T18:45:00","120","2023/08/24","18:45:00","-15.787226378917694","35.03521882370114","0.1","12","300","64","88","-1523","24596","-915","1","150","149.70","117.10","32.59","27.14","29.3","7.71","0","0.00","DUALSPOT-UV-BLUE-GREEN-RED-IR","435809","529202","909685","55.581932","28.295772","0.013644","476872","714967","762333","42.789504","20.267752","0.016662","570818","749124","816272","37.163140","16.837406","0.018380","600978","794953","863086","31.213742","13.460569","0.020718","562348","772990","953949","21.909524","8.073271","0.023671","4413","11213","18265","5018","11579","17483","5189","11307","16375","5613","11457","15887","5936","9975","12332","DualSpot on"
"MA200-0416","60020","123","1","1.10","1.6","2023-08-24T18:50:00","120","2023/08/24","18:50:00","-15.787128627300262","35.03529682382941","0.2","12","300","64","87","-1453","24511","-861","1","150","149.60","117.36","32.25","26.75","29.8","7.63","0","0.00","DUALSPOT-UV-BLUE-GREEN-RED-IR","431889","525736","909600","56.474304","28.937046","0.013601","473423","711834","762985","43.595480","20.790946","0.016575","565421","744207","814584","37.909364","17.293200","0.018259","598211","793587","864874","31.882648","13.843414","0.020602","559215","770741","953422","22.411072","8.308521","0.023609","4466","11680","19262","5091","12028","18352","5279","11735","17150","5718","11911","16664","5970","10191","12678","DualSpot on"
"MA200-0416","60021","123","1","1.10","1.6","2023-08-24T18:55:00","120","2023/08/24","18:55:00","-15.787129163742065","35.03527765721083","0.2","12","300","64","85","-1300","24630","-880","1","150","149.96","117.46","32.50","26.43","30.2","7.56","89292","25.06","DUALSPOT-UV-BLUE-GREEN-RED-IR","425885","519738","905069","57.380020","29.591278","0.013399","467988","705595","760112","44.376440","21.296138","0.016227","560626","739906","813407","38.620044","17.726900","0.017873","591173","786420","860171","32.521018","14.204795","0.019987","555709","767888","952032","22.896672","8.534946","0.022802","4528","11823","19591","4928","11523","17608","5023","11079","16217","5452","11155","15578","5775","9732","12084","DualSpot on"
"MA200-0416","60022","123","1","1.10","1.6","2023-08-24T19:00:00","120","2023/08/24","19:00:00","-15.787120997905731","35.03528115898371","0.2","12","300","64","85","-1426","24711","-876","1","150","149.87","117.54","32.32","26.16","30.6","7.49","89288","24.81","DUALSPOT-UV-BLUE-GREEN-RED-IR","421673","516018","905203","58.391900","30.325290","0.013240","464344","702190","760612","45.226248","21.846006","0.015998","557146","737626","814742","39.404124","18.198348","0.017459","587646","784145","861030","33.226540","14.596656","0.019419","554405","768446","955125","23.458332","8.787836","0.021516","5056","13337","22285","5359","12610","19386","5538","12108","17747","6021","12162","16973","6675","10929","13477","DualSpot on"
"MA200-0416","60023","123","1","1.10","1.6","2023-08-24T19:05:00","120","2023/08/24","19:05:00","-15.787081480026245","35.03530549257994","0.1","12","300","68","85","-1408","24656","-1064","2","150","149.95","117.17","32.77","25.96","31.0","7.51","89304","24.63","DUALSPOT-UV-BLUE-GREEN-RED-IR","779885","703824","910613","0.000000","0.000000","0.000000","741778","873438","763190","0.000000","0.000000","0.000000","833445","879171","813729","0.000000","0.000000","0.000000","829784","906314","866162","0.000000","0.000000","0.000000","704913","834099","950373","0.000000","0.000000","0.000000","","","","","","","","","","","","","","","","Tape advance-DualSpot on"
"MA200-0416","60024","123","1","1.10","1.6","2023-08-24T19:10:00","120","2023/08/24","19:10:00","-15.787020325660706","35.03528015688062","0.2","12","300","68","84","-1428","24652","-1040","2","150","149.35","117.02","32.33","25.75","31.2","7.42","0","0.00","DUALSPOT-UV-BLUE-GREEN-RED-IR","760713","697314","908673","0.000000","0.000000","0.000000","729881","868594","762710","0.000000","0.000000","0.000000","823164","875924","813984","0.000000","0.000000","0.000000","820981","902727","865446","0.000000","0.000000","0.000000","702020","834185","952123","0.000000","0.000000","0.000000","","","","","","","","","","","","","","","","Tape advance-DualSpot on"
"MA200-0416","60025","123","1","1.10","1.6","2023-08-24T19:15:00","120","2023/08/24","19:15:00","-15.78698194026947","35.035255659371614","0.1","12","300","64","84","-1536","24708","-955","2","150","149.68","117.16","32.52","25.53","31.5","7.37","0","0.00","DUALSPOT-UV-BLUE-GREEN-RED-IR","729451","687711","908697","4.167204","1.379686","0.053683","713535","862654","762976","2.289038","0.720244","0.000000","810205","872751","815429","1.757915","0.537538","0.000000","810860","899916","866153","1.314921","0.392973","0.000000","697458","833631","953502","0.789743","0.211274","0.000000","20891","24918","26911","14483","16418","14483","12456","13722","12456","11259","12123","11259","9416","9075","9416","DualSpot on"
"MA200-0416","60026","123","1","1.10","1.6","2023-08-24T19:20:00","120","2023/08/24","19:20:00","-15.78709328174591","35.03526149317622","0.1","12","300","64","83","-1419","24665","-953","2","150","149.45","117.14","32.30","25.36","31.8","7.38","89312","24.06","DUALSPOT-UV-BLUE-GREEN-RED-IR","704148","676878","904018","7.219793","2.465822","0.042387","701305","858852","764603","4.235009","1.373594","0.057522","795491","866001","813254","3.325613","1.048571","0.063193","796144","890938","860825","2.534088","0.780099","0.000000","693949","834019","956051","1.559982","0.431041","0.000000","15305","19749","22055","12314","14994","16280","11110","13134","14066","10441","12024","10441","9185","9504","9185","DualSpot on"
"MA200-0416","60027","123","1","1.10","1.6","2023-08-24T19:25:00","120","2023/08/24","19:25:00","-15.786989033222198","35.03527499362826","0.2","13","300","64","82","-1440","24632","-1228","2","150","149.70","117.66","32.04","25.21","32.0","7.35","89312","23.94","DUALSPOT-UV-BLUE-GREEN-RED-IR","685401","670389","904420","9.965157","3.473055","0.034905","687961","853261","764745","6.173027","2.042471","0.046275","783323","862022","813891","4.945815","1.588243","0.050052","785705","887066","860638","3.832357","1.196772","0.053827","684597","827762","951193","2.413387","0.676509","0.000000","13704","18466","21014","12210","15477","17093","11432","13985","15193","11070","13048","13947","10132","10703","10132","DualSpot on"
"MA200-0416","60028","123","1","1.10","1.6","2023-08-24T19:30:00","120","2023/08/24","19:30:00","-15.787058293819427","35.03526149317622","0.2","14","300","64","82","-1492","24748","-1116","2","150","150.49","116.63","33.86","25.05","32.2","7.28","89304","23.75","DUALSPOT-UV-BLUE-GREEN-RED-IR","670313","664764","904346","12.178797","4.306339","0.025815","676823","848694","765241","7.868468","2.644473","0.031939","773362","859162","815234","6.386749","2.082610","0.033233","777793","885000","862001","5.001536","1.585513","0.035031","676938","823023","947913","3.190857","0.905715","0.006563","11148","14452","16260","10776","13178","14394","10257","12120","13021","10057","11517","12194","9312","9455","9511","DualSpot on"
"MA200-0416","60029","123","1","1.10","1.6","2023-08-24T19:35:00","120","2023/08/24","19:35:00","-15.787193536758423","35.03524316102266","0.1","14","300","64","82","-1456","24572","-1356","2","150","149.89","116.94","32.96","24.88","32.4","7.22","0","0.00","DUALSPOT-UV-BLUE-GREEN-RED-IR","653197","658949","906486","14.995853","5.419328","0.025756","664228","843753","766613","9.921674","3.404461","0.032552","762625","856623","817806","8.095750","2.691346","0.034991","769599","883534","864631","6.364279","2.054471","0.038666","672962","823219","950726","4.075828","1.178039","0.028071","14149","19836","23053","13016","17095","19226","12133","15335","16929","11691","14276","15508","10572","11543","11938","DualSpot on"
"MA200-0416","60030","123","1","1.10","1.6","2023-08-24T19:40:00","120","2023/08/24","19:40:00","-15.787109434604645","35.0352371558547","0.1","14","300","64","81","-1456","24548","-1076","2","150","149.88","117.78","32.10","24.73","32.8","7.28","0","0.00","DUALSPOT-UV-BLUE-GREEN-RED-IR","640773","654682","908692","17.166752","6.312195","0.025981","650590","834973","763407","11.588027","4.040300","0.032834","750046","850083","815760","9.515597","3.210312","0.035711","762653","882180","866788","7.522780","2.458965","0.039155","669503","823361","953175","4.848198","1.416958","0.033034","10826","16337","19542","10488","14684","16930","10008","13422","15160","9868","12642","13989","9160","10397","10907","DualSpot on"
"MA200-0416","60031","123","1","1.10","1.6","2023-08-24T19:45:00","120","2023/08/24","19:45:00","-15.787152469158173","35.03517732769251","0.1","14","300","64","81","-1460","24540","-936","2","150","149.46","117.46","32.00","24.63","33.3","7.44","89328","23.44","DUALSPOT-UV-BLUE-GREEN-RED-IR","629025","649449","908359","18.987442","7.081291","0.024620","640605","829408","762622","13.032503","4.604769","0.030828","740373","845685","815316","10.765719","3.676379","0.033321","753944","877916","865753","8.554369","2.825856","0.036613","661190","817052","947949","5.551094","1.637111","0.031529","9104","14115","17096","9116","13075","15239","8836","12091","13778","8811","11502","12829","8359","9609","10133","DualSpot on"
"MA200-0416","60032","123","1","1.10","1.6","2023-08-24T19:50:00","120","2023/08/24","19:50:00","-15.787151336669922","35.03518949449062","0.2","14","300","64","80","-1380","24688","-1019","2","150","149.46","117.21","32.25","24.58","33.6","7.51","0","0.00","DUALSPOT-UV-BLUE-GREEN-RED-IR","614045","641611","905644","21.044510","7.972873","0.022845","633325","827910","766100","14.589813","5.220365","0.027738","729493","840378","814376","12.100650","4.177475","0.029535","744146","872760","864169","9.656345","3.219300","0.031957","658676","818309","951732","6.314499","1.875289","0.025327","10308","16236","19852","9849","14149","16545","9455","12899","14714","9432","12238","13642","9098","10316","10830","DualSpot on"
"MA200-0416","60033","123","1","1.10","1.6","2023-08-24T19:55:00","120","2023/08/24","19:55:00","-15.787231504917145","35.03506548702717","0.5","14","300","64","80","-1480","24580","-944","2","150","149.40","117.14","32.25","24.54","33.8","7.54","0","0.00","DUALSPOT-UV-BLUE-GREEN-RED-IR","596654","632855","904256","23.820316","9.218079","0.021264","619849","820049","765212","16.666981","6.075758","0.026290","720263","838506","818030","13.850790","4.860759","0.028278","732763","867067","862981","11.085075","3.746277","0.030583","651973","815258","951101","7.285064","2.190059","0.027829","13918","22675","28203","13145","19660","23397","12403","17587","20390","12236","16391","18512","11574","13632","14517","DualSpot on"
"MA200-0416","60034","123","1","1.10","1.6","2023-08-24T20:00:00","120","2023/08/24","20:00:00","-15.787189662456512","35.035089157521725","0.1","13","300","64","80","-1500","24632","-824","2","150","149.67","117.35","32.32","24.50","33.9","7.57","0","0.00","DUALSPOT-UV-BLUE-GREEN-RED-IR","593426","633934","911413","25.161080","9.836742","0.020899","613146","816377","765386","17.783440","6.549329","0.025919","712927","834823","817670","14.832626","5.256051","0.028115","725540","862941","861539","11.911200","4.058778","0.030363","647786","813189","950515","7.869789","2.382713","0.027918","6710","11243","14152","7052","10862","13083","6946","10154","11915","7062","9700","11064","6960","8327","8920","DualSpot on"
"MA200-0416","60035","123","1","1.10","1.6","2023-08-24T20:05:00","120","2023/08/24","20:05:00","-15.787114381790161","35.03518349304795","0.1","13","300","64","79","-1788","24432","604","2","150","150.11","117.35","32.76","24.47","34.0","7.60","0","0.00","DUALSPOT-UV-BLUE-GREEN-RED-IR","585627","629844","911031","26.439396","10.444389","0.020324","606196","812044","764899","18.853800","7.015401","0.024996","706211","831584","817677","15.779037","5.643803","0.026697","719486","859976","861251","12.715382","4.369340","0.028993","647386","815807","955419","8.443245","2.575432","0.026852","6398","10893","13829","6761","10546","12788","6695","9826","11569","6875","9510","10889","6826","8217","8827","DualSpot on"
"MA200-0416","60036","123","1","1.10","1.6","2023-08-24T20:10:00","120","2023/08/24","20:10:00","-15.787194669246674","35.03517649695277","0.1","13","300","64","79","-1276","25019","-615","2","150","149.86","117.35","32.51","24.46","34.0","7.59","89348","23.25","DUALSPOT-UV-BLUE-GREEN-RED-IR","576371","624113","908407","27.740982","11.067944","0.019762","598412","806445","763199","19.928148","7.485908","0.024185","699230","827954","817283","16.726089","6.037569","0.026270","719049","863679","867676","13.517899","4.682396","0.028437","643614","814107","955289","9.015499","2.770681","0.027796","6514","11266","14420","6786","10729","13101","6700","10056","11951","6861","9661","11145","6812","8390","9090","DualSpot on"
"MA200-0416","60037","123","1","1.10","1.6","2023-08-24T20:15:00","120","2023/08/24","20:15:00","-15.787176549434662","35.03518882766366","0.0","13","300","64","79","-1508","24668","-828","2","150","150.68","117.35","33.33","24.44","34.2","7.62","89352","23.25","DUALSPOT-UV-BLUE-GREEN-RED-IR","569116","619877","907445","28.905362","11.645374","0.019215","592191","802390","762747","20.920890","7.935654","0.023395","692344","823921","816372","17.607916","6.413943","0.025078","712303","859421","866017","14.267101","4.982825","0.027165","639495","811752","954279","9.554523","2.954959","0.023831","5827","10175","13108","6271","10002","12283","6238","9374","11171","6405","9043","10458","6416","7723","8308","DualSpot on"
"MA200-0416","60038","123","1","1.10","1.6","2023-08-24T20:20:00","120","2023/08/24","20:20:00","-15.787081897258759","35.03518999367952","0.1","13","300","64","78","-1396","24661","-1107","2","150","150.03","117.82","32.21","24.40","34.1","7.56","89360","23.19","DUALSPOT-UV-BLUE-GREEN-RED-IR","562392","616104","907150","30.064044","12.223408","0.019346","585786","797903","761893","21.893258","8.380860","0.023858","686238","820651","816160","18.467164","6.786138","0.026008","706854","856508","865628","14.994759","5.279750","0.028808","635994","810026","954007","10.074116","3.139083","0.029868","5776","10541","13805","6118","10247","12808","6054","9594","11650","6196","9249","10908","6160","7985","8812","DualSpot on"
"MA200-0416","60039","123","1","1.10","1.6","2023-08-24T20:25:00","120","2023/08/24","20:25:00","-15.787074625492096","35.03522098809481","0.0","14","300","64","78","-1511","24607","-857","2","150","149.80","117.13","32.67","24.35","34.1","7.54","89364","23.13","DUALSPOT-UV-BLUE-GREEN-RED-IR","556003","612537","907078","31.200222","12.796593","0.018532","580545","794816","762321","22.844572","8.822619","0.022759","680004","817062","815614","19.307510","7.155502","0.024744","700370","852213","863835","15.707991","5.574199","0.027160","632217","807830","953169","10.582382","3.321184","0.027692","5697","10304","13507","6021","10023","12542","5956","9386","11405","6109","9041","10655","6062","7786","8574","DualSpot on"
"MA200-0416","60040","123","1","1.10","1.6","2023-08-24T20:30:00","120","2023/08/24","20:30:00","-15.787136018276215","35.03512882813811","0.2","14","300","64","77","-1520","24604","-1056","2","150","150.29","117.34","32.95","24.32","34.3","7.56","89364","23.13","DUALSPOT-UV-BLUE-GREEN-RED-IR","548465","607448","904598","32.290024","13.356834","0.018155","577677","794807","765673","23.778104","9.264773","0.022266","674004","813521","815093","20.136236","7.527140","0.024239","694632","848679","862813","16.412975","5.871700","0.026755","628270","805354","952010","11.087994","3.507398","0.028236","5455","9986","13183","5897","9947","12533","5863","9364","11453","6027","9058","10746","6019","7894","8762","DualSpot on"
"MA200-0416","60041","123","1","1.10","1.6","2023-08-24T20:35:00","120","2023/08/24","20:35:00","-15.787101089954376","35.035271156579256","0.1","14","300","64","76","-1544","24740","-568","2","150","149.34","117.42","31.92","24.29","34.3","7.56","89372","23.06","DUALSPOT-UV-BLUE-GREEN-RED-IR","545640","607377","909574","33.354760","13.914452","0.018404","571412","789856","764184","24.678992","9.697395","0.022613","667490","809186","813725","20.937736","7.892568","0.024875","687302","843013","859550","17.093894","6.162614","0.027612","624403","802888","950778","11.575645","3.687492","0.029784","5326","10261","13793","5687","10047","12870","5667","9505","11827","5818","9144","11019","5801","7881","8854","DualSpot on"
"MA200-0416","60042","123","1","1.10","1.6","2023-08-24T20:40:00","120","2023/08/24","20:40:00","-15.787039458751678","35.03516482561827","0.1","14","300","64","75","-1463","24427","-847","2","150","149.93","117.70","32.23","24.25","34.4","7.53","89380","23.00","DUALSPOT-UV-BLUE-GREEN-RED-IR","538267","602059","906532","34.376008","14.458717","0.018044","564780","784233","762044","25.558608","10.127544","0.022129","664724","809256","816772","21.724036","8.256437","0.024249","686653","845410","864518","17.764264","6.455693","0.027237","623551","804173","954088","12.056217","3.872108","0.030901","5096","9919","13420","5540","9894","12752","5546","9373","11720","5714","9123","11070","5703","8002","9090","DualSpot on"
"MA200-0416","60043","123","1","1.10","1.6","2023-08-24T20:45:00","120","2023/08/24","20:45:00","-15.787093460559845","35.03522415459156","0.1","14","300","64","75","-1404","24704","-1156","2","150","150.14","117.67","32.48","24.10","34.1","7.31","89388","22.81","DUALSPOT-UV-BLUE-GREEN-RED-IR","530022","597704","907641","36.040948","15.306210","0.016502","557200","779705","763017","27.036390","10.830623","0.020232","653838","801843","814225","23.064582","8.865891","0.022221","679490","842230","865627","18.940228","6.962110","0.024803","619323","803157","956072","12.947071","4.207319","0.027027","8310","15327","20507","9310","16049","20552","9458","15580","19402","10026","15644","18909","10576","14418","16268","DualSpot on"
"MA200-0416","60044","123","1","1.10","1.6","2023-08-24T20:50:00","120","2023/08/24","20:50:00","-15.787392377853394","35.03545315936208","0.3","14","300","64","74","-1552","24532","-1068","2","150","149.96","118.22","31.74","23.76","34.1","7.00","89400","22.44","DUALSPOT-UV-BLUE-GREEN-RED-IR","524002","594363","908864","37.319328","16.000443","0.017190","552383","776987","764352","28.084858","11.357344","0.021145","649729","800684","816692","23.993286","9.311292","0.023435","670126","834147","860459","19.730880","7.324218","0.026799","614100","799069","953271","13.502388","4.423652","0.029724","6351","12845","17718","6574","12300","16188","6522","11648","14900","6710","11444","14239","6562","9520","10961","DualSpot on"
"MA200-0416","60045","123","1","1.10","1.6","2023-08-24T20:55:00","120","2023/08/24","20:55:00","-15.78708678483963","35.035381492227316","0.6","14","300","64","73","-1540","24620","-1100","2","150","149.39","118.70","30.69","23.45","34.4","6.87","89388","22.13","DUALSPOT-UV-BLUE-GREEN-RED-IR","513339","586098","903415","38.761784","16.794560","0.017177","543244","768535","760562","29.251740","11.951936","0.021243","641889","795258","815230","25.028962","9.814281","0.023611","665950","832937","862767","20.617832","7.734585","0.027072","609031","795536","951425","14.133430","4.671333","0.030863","7137","15197","21359","7287","14362","19249","7244","13606","17710","7497","13414","16967","7426","11273","13172","DualSpot on"
"MA200-0416","60046","123","1","1.10","1.6","2023-08-24T21:00:00","120","2023/08/24","21:00:00","-15.7871173620224","35.03528182208538","0.2","14","300","64","73","-1515","24653","-1184","2","150","150.32","119.20","31.12","23.21","34.8","6.79","89384","21.88","DUALSPOT-UV-BLUE-GREEN-RED-IR","505434","582812","908684","40.884864","17.933342","0.015962","536318","765782","764667","31.052468","12.838179","0.019369","631880","789827","816016","26.679716","10.585052","0.021235","655342","826485","861683","22.081588","8.380963","0.023869","602397","792582","952083","15.281723","5.107525","0.026566","10461","21493","30113","11199","21112","28099","11497","20563","26525","12320","20838","26049","13457","19580","22654","DualSpot on"
"MA200-0416","60047","123","1","1.10","1.6","2023-08-24T21:05:00","120","2023/08/24","21:05:00","-15.787170827388763","35.035259161144495","0.3","14","300","64","72","-1496","24608","-971","2","150","149.33","118.54","30.79","22.98","35.1","6.75","89384","21.69","DUALSPOT-UV-BLUE-GREEN-RED-IR","492621","575724","911560","43.773140","19.474994","0.014969","519962","752545","761468","33.730344","14.166197","0.018100","614260","778194","813810","29.240140","11.798223","0.019839","641671","819954","864127","24.474718","9.456970","0.022213","591925","788536","954980","17.335446","5.920128","0.025542","14311","29409","41509","16747","31974","43000","17933","32712","42709","20255","35061","44384","24203","36868","43436","DualSpot on"
"MA200-0416","60048","123","1","1.10","1.6","2023-08-24T21:10:00","120","2023/08/24","21:10:00","-15.787160992622375","35.03526549041271","0.1","14","300","72","72","-1552","24412","-768","2","150","150.01","119.00","31.00","22.83","35.6","6.79","89392","21.56","DUALSPOT-UV-BLUE-GREEN-RED-IR","414577","489708","785573","46.148488","20.783776","0.014514","510081","746137","763370","35.906816","15.272018","0.017354","603481","772776","816248","31.307004","12.794723","0.018842","631283","815155","866575","26.393626","10.330394","0.020878","581064","781771","952908","18.973938","6.565401","0.023132","11724","24794","35503","13558","26440","35974","14419","26684","35160","16177","28263","36035","19234","29073","34280","DualSpot on"
"MA200-0416","60049","123","1","1.10","1.6","2023-08-24T21:15:00","120","2023/08/24","21:15:00","-15.78717702627182","35.035289492458105","0.2","14","300","64","71","-1524","24436","-1000","2","150","149.42","119.31","30.11","22.71","35.8","6.80","89396","21.44","DUALSPOT-UV-BLUE-GREEN-RED-IR","469465","559727","909252","48.332140","22.039024","0.014512","500872","739623","764762","37.910388","16.332500","0.017369","591106","764082","814808","33.208396","13.751860","0.018950","618185","805680","863722","28.161640","11.171240","0.021110","571350","775550","951180","20.481662","7.186571","0.024096","10750","24486","36001","12449","26110","36450","13231","26392","35694","14867","28018","36664","17653","28819","34855","DualSpot on"
"MA200-0416","60050","123","1","1.10","1.6","2023-08-24T21:20:00","120","2023/08/24","21:20:00","-15.787178874015808","35.03529132530093","0.2","13","300","64","71","-1512","24480","-976","2","150","150.35","119.25","31.10","22.58","36.1","6.78","89396","21.31","DUALSPOT-UV-BLUE-GREEN-RED-IR","457746","550387","905180","50.417320","23.276780","0.013950","489820","729604","762403","39.833688","17.386126","0.016603","582034","759044","817183","35.043156","14.704681","0.017998","609215","800960","865949","29.875542","12.010736","0.019913","564402","772610","953568","21.955842","7.815641","0.022634","10270","23375","34615","11956","25114","35306","12773","25435","34589","14419","27081","35594","17268","28255","34328","DualSpot on"
"MA200-0416","60051","123","1","1.10","1.6","2023-08-24T21:25:00","120","2023/08/24","21:25:00","-15.787221014499664","35.035315822809935","0.4","13","300","64","70","-1556","24376","-1304","2","150","150.17","119.35","30.82","22.47","36.2","6.73","89396","21.19","DUALSPOT-UV-BLUE-GREEN-RED-IR","451105","546339","909121","52.321768","24.452156","0.013818","483031","724878","765064","41.585568","18.386656","0.016466","571335","750749","815581","36.713752","15.609471","0.017875","597474","791473","862498","31.433498","12.806968","0.019819","556109","766951","952207","23.294620","8.410311","0.022747","9372","22400","33831","10881","24067","34517","11621","24374","33806","13096","25920","34737","15670","26955","33331","DualSpot on"
"MA200-0416","60052","123","1","1.10","1.6","2023-08-24T21:30:00","120","2023/08/24","21:30:00","-15.78721970319748","35.035339161753654","0.0","14","300","64","70","-1396","24648","-1504","2","150","149.92","120.10","29.83","22.38","36.4","6.73","89388","21.06","DUALSPOT-UV-BLUE-GREEN-RED-IR","441789","538381","905482","54.013816","25.521682","0.013802","474136","716149","762653","43.138816","19.288198","0.016400","561940","743270","813997","38.185104","16.419657","0.017836","591513","788765","865649","32.803062","13.515043","0.019750","551013","764860","954579","24.466874","8.930822","0.022632","8275","21061","32515","9587","22407","32775","10171","22551","31891","11441","23817","32489","13635","24378","30554","DualSpot on"
"MA200-0416","60053","123","1","1.10","1.6","2023-08-24T21:35:00","120","2023/08/24","21:35:00","-15.787205994129181","35.0353076569736","0.3","13","300","64","68","-1404","24728","-1072","2","150","149.61","122.15","27.46","22.29","36.6","6.73","0","0.00","DUALSPOT-UV-BLUE-GREEN-RED-IR","436299","534167","906477","55.373292","26.413982","0.014194","468678","711429","763329","44.377772","20.035982","0.017001","556327","739594","815400","39.355940","17.087338","0.018573","581933","779916","860857","33.882576","14.092215","0.020731","544280","759246","951490","25.376968","9.345417","0.024396","6537","19089","30538","7519","20191","30621","7957","20190","29576","8866","21091","29796","10408","21095","27325","DualSpot on"
"MA200-0416","60054","123","1","1.10","1.6","2023-08-24T21:40:00","120","2023/08/24","21:40:00","-15.787078142166138","35.035288993269205","0.3","13","300","64","68","-1719","24476","-896","2","150","150.56","122.34","28.22","22.21","36.7","6.71","0","0.00","DUALSPOT-UV-BLUE-GREEN-RED-IR","431139","529817","905706","56.480104","27.148818","0.013871","463833","706848","763042","45.386988","20.645850","0.016486","551038","735512","815251","40.301552","17.627700","0.017971","580965","781719","866846","34.749560","14.553848","0.019927","540375","756712","951345","26.088596","9.669998","0.023319","5313","15295","24535","6115","16022","24289","6417","15898","23270","7109","16413","23117","8125","16068","20747","DualSpot on"
"MA200-0416","60055","123","1","1.10","1.6","2023-08-24T21:45:00","120","2023/08/24","21:45:00","-15.78708529472351","35.03535699099302","0.1","14","300","64","68","-1588","24619","-1207","2","150","149.47","121.60","27.87","22.09","36.9","6.67","89384","20.81","DUALSPOT-UV-BLUE-GREEN-RED-IR","427820","527657","908630","57.573920","27.881814","0.013697","460688","704799","765496","46.382284","21.255412","0.016284","547480","733672","817620","41.230880","18.163842","0.017719","573404","774573","862844","35.593116","15.011621","0.019747","538193","756448","954065","26.773934","9.986515","0.023088","5283","15447","24992","6067","16213","24796","6344","15970","23550","6959","16478","23421","7873","15864","20618","DualSpot on"
"MA200-0416","60056","123","1","1.10","1.6","2023-08-24T21:50:00","120","2023/08/24","21:50:00","-15.787373185157776","35.03529516234994","0.1","14","300","64","67","-1580","24508","-896","2","150","149.46","122.26","27.20","21.85","36.8","6.44","89380","20.56","DUALSPOT-UV-BLUE-GREEN-RED-IR","421822","522354","906837","58.787024","28.694126","0.013557","454641","698446","763778","47.479096","21.935200","0.016185","539166","725525","813434","42.256840","18.768440","0.017697","566710","768723","860820","36.533572","15.533043","0.019758","533971","753563","953932","27.546574","10.353592","0.023423","5828","17537","28703","6650","18524","28720","6967","18450","27627","7717","19229","27743","8828","18849","24883","DualSpot on"
"MA200-0416","60057","123","1","1.10","1.6","2023-08-24T21:55:00","120","2023/08/24","21:55:00","-15.787225365638733","35.0352424941957","0.4","14","300","68","67","-1461","24661","-1053","3","150","149.63","117.74","31.89","21.67","37.3","6.46","89392","20.31","DUALSPOT-UV-BLUE-GREEN-RED-IR","761259","691686","905447","0.000000","0.000000","0.000000","729206","861416","762414","0.000000","0.000000","0.000000","819911","866898","813002","0.000000","0.000000","0.000000","816650","892956","865032","0.000000","0.000000","0.000000","700172","828287","952924","0.000000","0.000000","0.000000","","","","","","","","","","","","","","","","Tape advance-DualSpot on"
"MA200-0416","60058","123","1","1.10","1.6","2023-08-24T22:00:00","120","2023/08/24","22:00:00","-15.787258327007294","35.0352429933846","0.1","14","300","68","67","-1436","24544","-232","3","150","150.24","118.38","31.86","21.48","37.7","6.46","89400","20.19","DUALSPOT-UV-BLUE-GREEN-RED-IR","742485","687887","908315","0.000000","0.000000","0.000000","715773","857595","763862","0.000000","0.000000","0.000000","808286","864871","815359","0.000000","0.000000","0.000000","807577","891600","867321","0.000000","0.000000","0.000000","695395","828166","955238","0.000000","0.000000","0.000000","","","","","","","","","","","","","","","","Tape advance-DualSpot on"
"MA200-0416","60059","123","1","1.10","1.6","2023-08-24T22:05:00","120","2023/08/24","22:05:00","-15.787122130393982","35.03527482226491","0.0","14","300","64","66","-1488","24652","-624","3","150","150.21","118.00","32.21","21.36","38.2","6.52","89400","20.06","DUALSPOT-UV-BLUE-GREEN-RED-IR","726769","684153","910329","2.362604","0.763717","0.000000","704509","854142","764972","1.737207","0.553006","0.000000","798867","863420","817721","1.460244","0.454920","0.000000","794738","884608","863633","1.174548","0.359046","0.000000","688432","824494","953028","0.778587","0.214475","0.000000","11759","13925","11759","10913","12726","10913","10273","11725","10273","9986","11182","9986","9217","9301","9217","DualSpot on"
"MA200-0416","60060","123","1","1.10","1.6","2023-08-24T22:10:00","120","2023/08/24","22:10:00","-15.787296533584595","35.035294491797686","0.3","14","300","64","65","-1472","24702","-986","3","150","149.70","118.42","31.28","21.20","38.4","6.44","89408","19.88","DUALSPOT-UV-BLUE-GREEN-RED-IR","710608","678666","909752","4.549679","1.506298","0.065720","688940","844367","760325","3.364884","1.093489","0.081955","784017","855255","813616","2.837262","0.901085","0.000000","784911","880360","862541","2.291309","0.714051","0.000000","683282","822699","952990","1.522705","0.427793","0.000000","10848","13943","15475","10189","12808","14069","9654","11841","9654","9461","11386","9461","8778","9526","8778","DualSpot on"
"MA200-0416","60061","123","1","1.10","1.6","2023-08-24T22:15:00","120","2023/08/24","22:15:00","-15.78727650642395","35.03533315658569","0.1","14","300","64","65","-1528","24564","-708","3","150","150.61","118.30","32.31","21.07","38.7","6.46","89404","19.81","DUALSPOT-UV-BLUE-GREEN-RED-IR","694589","672349","907919","6.625229","2.238342","0.046135","681622","844116","764156","4.930206","1.626641","0.054660","777605","855889","817846","4.169513","1.342964","0.057650","775149","875821","861114","3.376742","1.065594","0.063264","678129","820709","952685","2.247776","0.636505","0.000000","10304","13308","14841","9808","12233","13427","9349","11355","12307","9205","10916","11705","8561","9024","8561","DualSpot on"
"MA200-0416","60062","123","1","1.10","1.6","2023-08-24T22:20:00","120","2023/08/24","22:20:00","-15.787186861038208","35.03522649034858","0.2","13","300","64","64","-1532","24604","-976","3","150","150.14","118.25","31.89","21.00","39.2","6.56","89400","19.75","DUALSPOT-UV-BLUE-GREEN-RED-IR","679405","666514","906838","8.722479","2.995212","0.038967","670294","838884","763680","6.547694","2.186370","0.045548","766119","851016","816953","5.555012","1.807481","0.047687","770762","877605","866028","4.515996","1.433116","0.049420","672367","818250","951940","3.026558","0.863665","0.033828","10417","13939","15780","10140","13010","14449","9727","12092","13232","9665","11561","12442","9200","9949","10249","DualSpot on"
"MA200-0416","60063","123","1","1.10","1.6","2023-08-24T22:25:00","120","2023/08/24","22:25:00","-15.78723931312561","35.03520632535219","0.1","14","300","64","64","-1769","24400","-230","3","150","150.42","118.29","32.13","21.01","39.7","6.78","89404","19.81","DUALSPOT-UV-BLUE-GREEN-RED-IR","666916","661876","906938","10.592739","3.703516","0.035634","660667","834487","763631","7.989924","2.704257","0.040980","752687","842885","812562","6.789014","2.232325","0.041981","763397","875153","866517","5.533039","1.768803","0.043430","667933","816841","952278","3.721706","1.066562","0.025437","9286","12948","14917","9038","11949","13438","8661","10978","12113","8626","10482","11354","8209","8821","9067","DualSpot on"
"MA200-0416","60064","123","1","1.10","1.6","2023-08-24T22:30:00","120","2023/08/24","22:30:00","-15.787114381790161","35.03528165817261","0.1","13","300","64","64","-1512","24616","-1096","3","150","149.94","118.42","31.52","21.04","39.8","6.83","0","0.00","DUALSPOT-UV-BLUE-GREEN-RED-IR","655801","657874","907585","12.350624","4.385711","0.033626","652024","830627","763837","9.339456","3.198862","0.039020","749151","845245","818198","7.948431","2.640313","0.040936","745859","860473","854718","6.485779","2.086675","0.041951","664215","816074","953200","4.379627","1.259413","0.028423","8719","12713","14912","8448","11633","13292","8128","10746","12049","8071","10118","11089","7761","8547","8864","DualSpot on"
"MA200-0416","60065","123","1","1.10","1.6","2023-08-24T22:35:00","120","2023/08/24","22:35:00","-15.787228643894196","35.03519432619214","0.1","13","300","64","63","-1548","24760","-1560","3","150","150.08","118.71","31.37","21.02","39.6","6.76","0","0.00","DUALSPOT-UV-BLUE-GREEN-RED-IR","643559","652085","905683","14.025032","5.057552","0.031932","642680","825336","762742","10.634577","3.690774","0.037729","739715","840542","816936","9.059118","3.043950","0.039870","748961","869231","866177","7.402614","2.404850","0.042832","659262","813543","952119","5.012100","1.452432","0.035750","8284","12581","15004","8087","11626","13507","7767","10684","12159","7748","10177","11346","7442","8596","9067","DualSpot on"
"MA200-0416","60066","123","1","1.10","1.6","2023-08-24T22:40:00","120","2023/08/24","22:40:00","-15.787282109260559","35.03529065847397","0.1","13","300","64","63","-1384","24719","-1865","3","150","150.49","118.67","31.82","20.98","39.8","6.77","0","0.00","DUALSPOT-UV-BLUE-GREEN-RED-IR","632811","647454","905329","15.665981","5.728573","0.028903","634431","821174","762630","11.916096","4.183412","0.033610","731331","836845","816644","10.167958","3.451514","0.035350","741646","865926","865642","8.325080","2.727586","0.037456","654682","811509","951604","5.655880","1.649707","0.029649","8122","12385","14842","8005","11476","13353","7757","10633","12110","7798","10174","11332","7578","8660","9105","DualSpot on"
"MA200-0416","60067","123","1","1.10","1.6","2023-08-24T22:45:00","120","2023/08/24","22:45:00","-15.787274420261383","35.03531815856695","0.0","13","300","64","62","-1476","24757","-1065","3","150","150.16","118.85","31.31","20.93","39.9","6.77","0","0.00","DUALSPOT-UV-BLUE-GREEN-RED-IR","626236","646761","910465","17.277230","6.402794","0.027971","629027","820466","765765","13.181036","4.678553","0.032602","722658","832629","815881","11.266489","3.862053","0.034547","733367","861329","863887","9.242910","3.053129","0.036896","649847","809145","950736","6.303291","1.850622","0.031957","7962","12649","15409","7889","11724","13835","7673","10887","12563","7747","10432","11757","7609","8965","9528","DualSpot on"
"MA200-0416","60068","123","1","1.10","1.6","2023-08-24T22:50:00","120","2023/08/24","22:50:00","-15.787194073200226","35.03521582111716","0.1","13","300","64","61","-1556","24660","-984","3","150","150.08","118.96","31.12","20.85","39.7","6.63","89384","19.63","DUALSPOT-UV-BLUE-GREEN-RED-IR","614516","640306","907480","18.842564","7.075432","0.026920","619588","814100","763657","14.416616","5.180848","0.032174","713606","827611","814363","12.344245","4.281181","0.034593","724343","855579","860955","10.146399","3.386525","0.037592","647956","810308","954037","6.943191","2.053892","0.033625","7728","12697","15684","7699","11967","14361","7521","11183","13127","7619","10749","12318","7514","9126","9803","DualSpot on"
"MA200-0416","60069","123","1","1.10","1.6","2023-08-24T22:55:00","120","2023/08/24","22:55:00","-15.787187993526459","35.03526682406664","0.1","13","300","64","61","-1536","24604","-1020","3","150","149.80","118.75","31.05","20.76","40.0","6.66","89376","19.50","DUALSPOT-UV-BLUE-GREEN-RED-IR","602693","633418","903664","20.362934","7.740585","0.025571","610274","807622","761343","15.627604","5.674697","0.029935","708979","827597","817715","13.403014","4.693407","0.032045","721604","857166","865421","11.040928","3.718075","0.034999","642976","807580","952764","7.580257","2.257717","0.031882","7519","12583","15689","7559","11792","14205","7402","11023","12975","7557","10714","12316","7494","9171","9882","DualSpot on"
"MA200-0416","60070","123","1","1.10","1.6","2023-08-24T23:00:00","120","2023/08/24","23:00:00","-15.787143170833588","35.03526049107313","0.2","13","300","64","60","-1524","24588","-867","3","150","149.91","118.60","31.31","20.77","40.7","6.93","0","0.00","DUALSPOT-UV-BLUE-GREEN-RED-IR","594801","629911","904333","21.757030","8.368446","0.024553","604098","804777","762207","16.759460","6.145221","0.028379","697802","819459","812851","14.400637","5.083835","0.029655","715121","854055","864994","11.892916","4.031011","0.031255","638816","805809","952505","8.202698","2.452007","0.025147","6904","11777","14822","7075","11139","13492","6983","10351","12189","7207","10026","11471","7331","8667","9237","DualSpot on"
"MA200-0416","60071","123","1","1.10","1.6","2023-08-24T23:05:00","120","2023/08/24","23:05:00","-15.78718113899231","35.03524732589722","0.3","13","300","64","60","-1546","24688","-1080","3","150","149.66","118.92","30.74","20.90","41.3","7.25","0","0.00","DUALSPOT-UV-BLUE-GREEN-RED-IR","587347","626244","904368","23.021148","8.956486","0.024622","597534","800834","761843","17.809618","6.589282","0.028202","694527","820240","816644","15.333981","5.454689","0.029648","709911","852143","865619","12.696810","4.326753","0.030789","634766","803986","952140","8.803707","2.640043","0.026236","6243","11235","14414","6546","10708","13152","6516","10015","11947","6782","9651","11135","7060","8544","9180","DualSpot on"
"MA200-0416","60072","123","1","1.10","1.6","2023-08-24T23:10:00","120","2023/08/24","23:10:00","-15.787154614925385","35.035241324454546","0.1","12","300","64","59","-1446","24657","-653","3","150","149.66","119.54","30.12","21.00","40.9","7.18","89372","19.81","DUALSPOT-UV-BLUE-GREEN-RED-IR","581643","624528","907383","24.330448","9.563023","0.023846","592303","798708","763301","18.871952","7.046050","0.028085","685371","813928","813447","16.271461","5.835313","0.029998","701047","845674","861642","13.492638","4.628290","0.032174","632012","803629","953595","9.392021","2.836835","0.034023","6433","11829","15323","6587","11243","14017","6510","10492","12719","6679","10045","11802","6874","9128","10103","DualSpot on"
"MA200-0416","60073","123","1","1.10","1.6","2023-08-24T23:15:00","120","2023/08/24","23:15:00","-15.787176370620728","35.03529266268015","0.1","12","300","64","59","-1565","24576","-861","3","150","149.53","119.13","30.40","20.99","40.6","7.08","89364","19.81","DUALSPOT-UV-BLUE-GREEN-RED-IR","573399","620056","906503","25.663646","10.184914","0.022544","586119","795190","763511","19.951616","7.512361","0.026376","682024","814509","817214","17.220672","6.223767","0.028220","699347","847863","866552","14.302708","4.940096","0.030564","627613","801160","952592","9.985138","3.032894","0.029832","6573","12016","15597","6718","11371","14182","6615","10609","12869","6822","10290","12121","6955","9009","9906","DualSpot on"
"MA200-0416","60074","123","1","1.10","1.6","2023-08-24T23:20:00","120","2023/08/24","23:20:00","-15.787130177021027","35.035251662135124","0.0","12","300","64","59","-1496","24592","-984","3","150","150.42","119.00","31.42","20.99","40.8","7.15","0","0.00","DUALSPOT-UV-BLUE-GREEN-RED-IR","565639","615727","905597","26.922874","10.784611","0.021276","579467","790714","762653","20.979460","7.964289","0.024665","672057","806882","812609","18.131912","6.603943","0.026314","693862","845177","866453","15.082590","5.244102","0.027984","623796","799399","952292","10.561432","3.226326","0.026594","6215","11210","14548","6403","10662","13269","6357","10045","12158","6575","9707","11376","6765","8600","9407","DualSpot on"
"MA200-0416","60075","123","1","1.10","1.6","2023-08-24T23:25:00","120","2023/08/24","23:25:00","-15.787115395069122","35.03529566153884","0.2","12","300","64","58","-1544","24660","-844","3","150","150.49","119.42","31.07","21.00","40.8","7.17","0","0.00","DUALSPOT-UV-BLUE-GREEN-RED-IR","557353","610499","903336","28.153580","11.387730","0.021217","572447","785403","760986","21.984740","8.419896","0.024832","668697","806968","815793","19.023184","6.985183","0.026513","686668","840288","864060","15.848085","5.550678","0.028615","619061","796295","950397","11.127117","3.420593","0.028391","6053","11400","15032","6240","10869","13743","6196","10186","12501","6431","9898","11767","6617","8733","9673","DualSpot on"
"MA200-0416","60076","123","1","1.10","1.6","2023-08-24T23:30:00","120","2023/08/24","23:30:00","-15.787137687206268","35.03526382520795","0.1","12","300","64","58","-1550","24657","-1157","3","150","149.87","119.13","30.74","20.94","40.6","7.03","0","0.00","DUALSPOT-UV-BLUE-GREEN-RED-IR","555009","611675","910465","29.357086","11.981842","0.020666","570568","787060","766018","22.968688","8.869452","0.024233","663105","804171","816035","19.891092","7.361254","0.026082","681718","837886","864207","16.588791","5.853685","0.028628","615915","795032","950713","11.666676","3.608322","0.028733","5933","11351","15087","6123","10841","13809","6048","10156","12570","6238","9889","11879","6327","8530","9517","DualSpot on"
"MA200-0416","60077","123","1","1.10","1.6","2023-08-24T23:35:00","120","2023/08/24","23:35:00","-15.787138998508453","35.03527048975229","0.0","12","300","64","57","-1492","24672","-1132","3","150","149.67","118.92","30.75","20.92","40.9","7.12","0","0.00","DUALSPOT-UV-BLUE-GREEN-RED-IR","548111","607843","910455","30.605922","12.606201","0.020046","561129","778330","761124","23.994590","9.342361","0.023413","657049","800900","815955","20.797324","7.755502","0.025060","676439","835242","864216","17.364742","6.169452","0.027120","615813","797849","956009","12.238930","3.808845","0.027801","6167","11926","15959","6395","11401","14593","6326","10644","13212","6546","10302","12373","6722","9109","10188","DualSpot on"
"MA200-0416","60078","123","1","1.10","1.6","2023-08-24T23:40:00","120","2023/08/24","23:40:00","-15.787093997001648","35.03529616072774","0.2","12","300","64","57","-1556","24692","-1220","3","150","150.30","119.44","30.86","21.01","41.3","7.33","89352","19.81","DUALSPOT-UV-BLUE-GREEN-RED-IR","539172","601916","907745","31.951980","13.290936","0.019527","557407","777730","764434","25.096996","9.855015","0.022649","648482","794796","813197","21.775172","8.184797","0.024265","673249","835436","867393","18.202924","6.510672","0.025965","610149","793754","953151","12.865944","4.026931","0.026045","6619","13032","17600","6842","12315","15854","6796","11549","14411","7040","11093","13350","7333","9872","11029","DualSpot on"
"MA200-0416","60079","123","1","1.10","1.6","2023-08-24T23:45:00","120","2023/08/24","23:45:00","-15.787120819091797","35.03526099026203","0.0","12","300","64","57","-1483","24554","-1137","3","150","149.76","119.12","30.64","21.02","40.9","7.22","0","0.00","DUALSPOT-UV-BLUE-GREEN-RED-IR","532056","597584","906955","33.194026","13.926582","0.018987","551166","773123","763558","26.107308","10.333491","0.022290","642694","791571","813178","22.666394","8.584442","0.024030","668319","832977","867565","18.962268","6.829392","0.026198","606594","792001","952990","13.430603","4.228723","0.026974","6124","12183","16563","6287","11575","15039","6211","10827","13641","6395","10435","12708","6621","9199","10383","DualSpot on"
"MA200-0416","60080","123","1","1.10","1.6","2023-08-24T23:50:00","120","2023/08/24","23:50:00","-15.787069439888","35.03525499626994","0.1","12","300","64","56","-1684","24340","52","3","150","150.49","119.30","31.20","21.00","40.7","7.13","0","0.00","DUALSPOT-UV-BLUE-GREEN-RED-IR","524189","592965","906612","34.635028","14.661133","0.017962","544365","768487","763349","27.312790","10.902972","0.020983","638953","791714","817243","23.741250","9.066216","0.022577","661295","828657","866538","19.889832","7.221549","0.024734","602096","789627","952564","14.127613","4.483742","0.026117","7094","13830","18774","7491","13533","17547","7480","12821","16121","7800","12612","15354","8161","11419","12934","DualSpot on"
"MA200-0416","60081","123","1","1.10","1.6","2023-08-24T23:55:00","120","2023/08/24","23:55:00","-15.787103474140167","35.035240825265646","0.3","11","300","64","56","-1488","24724","-1044","3","150","149.99","119.25","30.73","20.96","40.6","7.07","89356","19.75","DUALSPOT-UV-BLUE-GREEN-RED-IR","513951","586321","904452","36.377756","15.551823","0.017373","535310","761663","761950","28.815690","11.618118","0.020352","629936","786321","816661","25.096032","9.679238","0.021980","652965","823783","865783","21.075034","7.727759","0.024165","596235","786431","951927","15.038689","4.822044","0.026167","8583","17022","23324","9342","17250","22592","9431","16560","21035","9971","16525","20319","10672","15377","17597","DualSpot on"
"MA200-0416","60082","123","1","1.10","1.6","2023-08-25T00:00:00","120","2023/08/25","00:00:00","-15.786989152431488","35.03528966009617","0.0","10","300","64","55","-1436","24524","-532","3","150","149.63","118.73","30.90","20.91","40.7","7.04","89348","19.69","DUALSPOT-UV-BLUE-GREEN-RED-IR","509624","584636","907865","37.599588","16.214985","0.017454","531556","760199","764435","29.844300","12.132719","0.020391","622660","781018","814682","26.016676","10.113819","0.021953","645013","817400","862075","21.874052","8.080444","0.023990","594259","786750","954422","15.639603","5.048038","0.025364","6044","12607","17583","6422","12347","16405","6437","11677","15010","6751","11452","14206","7069","10218","11718","DualSpot on"
"MA200-0416","60083","123","1","1.10","1.6","2023-08-25T00:05:00","120","2023/08/25","00:05:00","-15.787173330783844","35.03520232439041","0.2","10","300","64","55","-1572","24620","-900","3","150","150.49","119.03","31.46","20.87","40.9","7.07","0","0.00","DUALSPOT-UV-BLUE-GREEN-RED-IR","503108","580512","907721","38.868736","16.905414","0.016773","525857","756095","764412","30.914100","12.668357","0.019489","616449","777185","814385","26.977138","10.568180","0.020943","638946","813475","861114","22.705740","8.447941","0.022767","590119","784399","953857","16.272736","5.285251","0.023486","6262","12891","17993","6662","12622","16760","6699","11991","15399","7009","11720","14511","7430","10533","12026","DualSpot on"
"MA200-0416","60084","123","1","1.10","1.6","2023-08-25T00:10:00","120","2023/08/25","00:10:00","-15.787040770053864","35.03527199104428","0.2","10","300","64","54","-1520","24676","-1004","3","150","149.59","119.04","30.55","20.78","40.9","7.00","0","0.00","DUALSPOT-UV-BLUE-GREEN-RED-IR","494719","574116","903955","40.147100","17.605382","0.016659","518285","749223","761578","32.003792","13.216839","0.019402","609392","772158","812898","27.957570","11.036487","0.021008","636386","814054","865034","23.563126","8.832588","0.023123","585312","781107","952207","16.924172","5.535444","0.025093","6307","13458","19044","6785","13310","17901","6837","12727","16569","7225","12633","15875","7644","11441","13287","DualSpot on"
"MA200-0416","60085","123","1","1.10","1.6","2023-08-25T00:15:00","120","2023/08/25","00:15:00","-15.787241101264954","35.035192992538214","0.0","10","300","64","54","-1523","24561","-942","3","150","149.59","118.96","30.63","20.62","40.6","6.76","89348","19.31","DUALSPOT-UV-BLUE-GREEN-RED-IR","489959","571232","904953","41.220904","18.216350","0.016601","513940","746079","761973","32.894902","13.686137","0.019504","605572","770451","814368","28.761552","11.436893","0.021139","632538","812170","865886","24.267998","9.161425","0.023323","583200","780799","953843","17.454116","5.742201","0.024885","5301","11715","16794","5553","11358","15494","5611","10852","14313","5944","10770","13697","6223","9429","11001","DualSpot on"
"MA200-0416","60086","123","1","1.10","1.6","2023-08-25T00:20:00","120","2023/08/25","00:20:00","-15.787073791027069","35.03526532277465","0.2","10","300","64","54","-1507","24665","-961","3","150","150.36","119.29","31.07","20.46","40.9","6.73","0","0.00","DUALSPOT-UV-BLUE-GREEN-RED-IR","483283","567382","907076","42.810712","19.116990","0.015878","509366","743742","764329","34.085860","14.304290","0.018513","600573","768353","816511","29.851776","11.971775","0.019963","622809","803930","860983","25.243104","9.612080","0.022010","579859","780016","955787","18.224754","6.042515","0.023371","7827","17023","24442","7401","14746","20058","7587","14290","18778","8201","14549","18453","9024","13500","15720","DualSpot on"
"MA200-0416","60087","123","1","1.10","1.6","2023-08-25T00:25:00","120","2023/08/25","00:25:00","-15.787203013896942","35.03525299206376","0.2","11","300","64","53","-1492","24600","-1180","3","150","149.49","118.80","30.69","20.34","41.2","6.72","0","0.00","DUALSPOT-UV-BLUE-GREEN-RED-IR","477271","564114","910270","44.422904","20.045960","0.015567","501639","736413","761361","35.237440","14.909427","0.018215","593090","762790","814838","30.905184","12.495131","0.019665","619612","803810","864599","26.186902","10.049630","0.021505","574531","776352","954031","18.969780","6.333843","0.022948","7971","17777","25842","7186","14616","20066","7361","14157","18768","7970","14302","18246","8760","13259","15515","DualSpot on"
"MA200-0416","60088","123","1","1.10","1.6","2023-08-25T00:30:00","120","2023/08/25","00:30:00","-15.786966919898987","35.03533048927784","0.4","11","300","64","52","-1530","24563","-797","3","150","149.69","119.12","30.57","20.27","41.4","6.71","89332","19.00","DUALSPOT-UV-BLUE-GREEN-RED-IR","469342","557952","907691","45.819596","20.869038","0.015369","498768","735766","764923","36.275220","15.462083","0.017974","589487","761745","817608","31.848064","12.969525","0.019416","611925","797388","861115","27.026612","10.446845","0.021419","572603","776834","957135","19.629258","6.595941","0.023049","6886","15814","23281","6458","13401","18560","6571","12883","17219","7072","13036","16793","7733","11976","14124","DualSpot on"
