"Serial number","Datum ID","Session ID","Data format version","Firmware version","App version","Date / time local","Timezone offset (mins)","Date local (yyyy/MM/dd)","Time local (hh:mm:ss)","GPS lat (ddmm.mmmmm)","GPS long (dddmm.mmmmm)","GPS speed (km/h)","GPS sat count","Timebase (s)","Status","Battery remaining (%)","Accel X","Accel Y","Accel Z","Tape position","Flow setpoint (mL/min)","Flow total (mL/min)","Flow1 (mL/min)","Flow2 (mL/min)","Sample temp (C)","Sample RH (%)","Sample dewpoint (C)","Internal pressure (Pa)","Internal temp (C)","Optical config","UV Sen1","UV Sen2","UV Ref","UV ATN1","UV ATN2","UV K","Blue Sen1","Blue Sen2","Blue Ref","Blue ATN1","Blue ATN2","Blue K","Green Sen1","Green Sen2","Green Ref","Green ATN1","Green ATN2","Green K","Red Sen1","Red Sen2","Red Ref","Red ATN1","Red ATN2","Red K","IR Sen1","IR Sen2","IR Ref","IR ATN1","IR ATN2","IR K","UV BC1","UV BC2","UV BCc","Blue BC1","Blue BC2","Blue BCc","Green BC1","Green BC2","Green BCc","Red BC1","Red BC2","Red BCc","IR BC1","IR BC2","IR BCc","Readable status"
"MA200-0416","60209","124","1","1.10","1.6","2023-08-25T17:30:01","120","2023/08/25","17:30:01","0","0","0.0","6","300","66","11","-1264","24492","-1864","7","150","149.50","117.61","31.89","25.46","38.1","10.15","89180","26.38","DUALSPOT-UV-BLUE-GREEN-RED-IR","786252","696852","904437","0.000000","0.000000","0.000000","750486","870683","764962","0.000000","0.000000","0.000000","840655","874910","814951","0.000000","0.000000","0.000000","834780","900505","866836","0.000000","0.000000","0.000000","708114","828765","951050","0.000000","0.000000","0.000000","","","","","","","","","","","","","","","","Start up-DualSpot on"
"MA200-0416","60210","124","1","1.10","1.6","2023-08-25T17:35:01","120","2023/08/25","17:35:01","-15.787053167819977","35.03536065667868","0.2","8","300","64","21","-1265","24342","-1576","7","150","149.61","118.03","31.57","26.60","36.9","10.65","89188","27.94","DUALSPOT-UV-BLUE-GREEN-RED-IR","777168","695816","907039","0.000000","0.000000","0.000000","741002","865701","762765","0.000000","0.000000","0.000000","832791","871805","813807","0.000000","0.000000","0.000000","823622","892534","860488","0.000000","0.000000","0.000000","706182","829029","952358","0.000000","0.000000","0.000000","","","","","","","","","","","","","","","","DualSpot on"
"MA200-0416","60211","124","1","1.10","1.6","2023-08-25T17:40:01","120","2023/08/25","17:40:01","-15.786884367465973","35.03536882251501","0.2","11","300","64","23","-1132","24504","-1924","7","150","149.99","118.41","31.57","27.47","35.4","10.81","89188","28.75","DUALSPOT-UV-BLUE-GREEN-RED-IR","768528","694790","909691","1.410854","0.439432","0.000000","734860","864300","763639","0.951535","0.276589","0.000000","827629","871281","814976","0.768911","0.203842","0.000000","821270","894003","863116","0.591777","0.139611","0.000000","702859","827661","951937","0.422506","0.113755","0.000000","6998","8175","6998","5957","6494","5957","5390","5360","5390","5013","4436","5013","4984","5033","4984","DualSpot on"
"MA200-0416","60212","124","1","1.10","1.6","2023-08-25T17:45:01","120","2023/08/25","17:45:01","-15.78705608844757","35.03529416024685","0.0","13","300","64","24","-1268","24516","-1956","7","150","149.84","117.94","31.91","28.16","34.1","10.87","89184","29.25","DUALSPOT-UV-BLUE-GREEN-RED-IR","757518","691737","910158","2.900407","0.925706","0.000000","727270","861636","763790","2.001754","0.601262","0.000000","820856","869486","815367","1.634466","0.455326","0.000000","813990","890509","861292","1.268872","0.319600","0.000000","702217","829792","955681","0.910520","0.253793","0.000000","7418","8952","7418","6601","7543","6601","6093","6544","6093","5759","5659","5759","5780","6131","5780","DualSpot on"
"MA200-0416","60213","124","1","1.10","1.6","2023-08-25T17:50:01","120","2023/08/25","17:50:01","-15.787069618701935","35.03532348945737","0.1","13","300","64","25","-1040","24536","-2864","7","150","149.66","119.67","29.99","28.73","33.0","10.87","89188","29.75","DUALSPOT-UV-BLUE-GREEN-RED-IR","737866","680485","899830","4.391742","1.428657","0.077136","721171","860733","765558","3.078556","0.943190","0.090288","813570","867199","815402","2.531867","0.725007","0.000000","811968","892887","865287","1.980163","0.517457","0.000000","697146","826811","953701","1.424095","0.405971","0.000000","7319","9849","11069","6670","8451","9238","6225","7465","6225","5963","6618","5963","5995","7088","5995","DualSpot on"
"MA200-0416","60214","124","1","1.10","1.6","2023-08-25T17:55:01","120","2023/08/25","17:55:01","-15.787081062793732","35.03530066087842","0.1","13","300","64","26","-1108","24344","-1864","7","150","149.40","119.92","29.48","29.18","32.1","10.83","89200","30.13","DUALSPOT-UV-BLUE-GREEN-RED-IR","730529","680922","905468","6.009233","1.988136","0.062950","713101","857682","765729","4.221787","1.318723","0.077800","807478","866343","817081","3.482287","1.023066","0.080653","804716","889636","864052","2.734091","0.737816","0.000000","694188","826425","954768","1.959829","0.563660","0.000000","7922","11147","12742","7067","9444","10523","6579","8394","9149","6307","7499","6307","6240","7472","6240","DualSpot on"
"MA200-0416","60215","124","1","1.10","1.6","2023-08-25T18:00:01","120","2023/08/25","18:00:01","-15.787087738513947","35.035291492938995","0.0","13","300","64","27","-1304","24280","-1560","7","150","150.63","119.09","31.54","29.52","31.4","10.78","89216","30.38","DUALSPOT-UV-BLUE-GREEN-RED-IR","717798","676462","905062","7.727346","2.599699","0.044163","700472","849286","761357","5.440029","1.725918","0.050956","798233","862378","815912","4.495456","1.343548","0.048238","798852","888177","864739","3.543640","0.980103","0.042945","688291","822649","952059","2.534076","0.735376","0.000000","8474","11387","12864","7583","9569","10492","7063","8434","9019","6820","7705","8044","6736","7604","6736","DualSpot on"
"MA200-0416","60216","124","1","1.10","1.6","2023-08-25T18:05:01","120","2023/08/25","18:05:01","-15.78692078590393","35.03531865775585","0.2","12","300","64","29","-1123","24469","-1638","7","150","150.67","118.52","32.15","29.77","30.9","10.78","89220","30.50","DUALSPOT-UV-BLUE-GREEN-RED-IR","705147","670674","902185","9.188810","3.142866","0.039180","696267","850010","764729","6.489923","2.089703","0.044735","789505","857954","814104","5.374806","1.634687","0.044777","792458","885330","863826","4.246522","1.197886","0.038944","686807","823739","954727","3.026020","0.884410","0.046825","7242","9923","11316","6566","8388","9253","6159","7518","8111","5949","6796","7128","5798","6475","6755","DualSpot on"
"MA200-0416","60217","124","1","1.10","1.6","2023-08-25T18:10:01","120","2023/08/25","18:10:01","-15.786947429180145","35.03528682515025","0.3","13","300","64","32","-1132","24352","-1756","7","150","150.49","118.26","32.23","29.95","30.5","10.73","89212","30.63","DUALSPOT-UV-BLUE-GREEN-RED-IR","701772","672859","909665","10.498116","3.644031","0.036445","689965","847407","764963","7.422049","2.421135","0.041961","786406","858999","817258","6.155495","1.897949","0.041515","786149","882028","862302","4.870771","1.396113","0.038612","681711","820056","951724","3.459236","1.017575","0.044364","6502","9133","10532","5843","7623","8485","5480","6781","7361","5295","6170","6522","5117","5772","6044","DualSpot on"
"MA200-0416","60218","124","1","1.10","1.6","2023-08-25T18:15:01","120","2023/08/25","18:15:01","-15.787097930908203","35.035240326076746","0.3","13","300","64","34","-1120","24466","-1779","7","150","150.08","118.54","31.53","30.07","30.2","10.70","89224","30.69","DUALSPOT-UV-BLUE-GREEN-RED-IR","688490","664807","903003","11.674753","4.112684","0.037205","685034","845841","765952","8.268404","2.737218","0.045541","777209","852822","813417","6.861619","2.150499","0.048703","783814","882710","864652","5.434557","1.587569","0.051710","679977","820130","952987","3.843727","1.142038","0.061367","5830","8729","10306","5292","7431","8489","4945","6649","7427","4771","6091","6636","4530","5514","5929","DualSpot on"
"MA200-0416","60219","124","1","1.10","1.6","2023-08-25T18:20:01","120","2023/08/25","18:20:01","-15.786979973316193","35.03528215363622","0.1","12","300","64","36","-1195","24387","-1558","7","150","149.73","118.42","31.31","30.16","29.9","10.63","89232","30.75","DUALSPOT-UV-BLUE-GREEN-RED-IR","683256","664370","906690","12.845448","4.584335","0.034942","677006","840418","763494","9.138008","3.063720","0.042373","772819","852019","814794","7.599417","2.417248","0.046073","776350","877741","861516","6.028373","1.790332","0.048611","678565","820662","954888","4.253547","1.276628","0.060420","5806","8847","10535","5443","7730","8883","5172","7073","7959","5030","6497","7116","4834","6004","6506","DualSpot on"
"MA200-0416","60220","124","1","1.10","1.6","2023-08-25T18:25:01","120","2023/08/25","18:25:01","-15.787017524242401","35.03527565672994","0.1","12","300","64","38","-1184","24372","-1412","7","150","150.05","118.22","31.82","30.23","29.7","10.60","89232","30.81","DUALSPOT-UV-BLUE-GREEN-RED-IR","678095","663619","909775","13.944698","5.038130","0.032642","673236","839984","765545","9.959311","3.380990","0.039875","769115","851660","816542","8.293624","2.672231","0.042168","773469","877656","863124","6.588090","1.986980","0.046161","676921","820821","956308","4.643985","1.405695","0.053069","5461","8375","10024","5149","7390","8542","4875","6652","7496","4749","6199","6825","4613","5665","6122","DualSpot on"
"MA200-0416","60221","124","1","1.10","1.6","2023-08-25T18:30:01","120","2023/08/25","18:30:01","-15.787070453166962","35.035287491977215","0.1","12","300","64","39","-928","24468","-1552","7","150","150.01","118.17","31.84","30.25","29.5","10.52","89232","30.81","DUALSPOT-UV-BLUE-GREEN-RED-IR","670315","659868","908584","14.969538","5.475027","0.031974","667850","837046","765171","10.716531","3.684324","0.039743","764056","849396","816381","8.933036","2.917552","0.043253","769108","875560","862690","7.103639","2.175623","0.047926","669824","814079","949584","4.996841","1.524453","0.052821","5093","8060","9770","4750","7063","8274","4492","6397","7321","4377","5944","6636","4171","5210","5667","DualSpot on"
"MA200-0416","60222","124","1","1.10","1.6","2023-08-25T18:35:01","120","2023/08/25","18:35:01","-15.786953866481781","35.035281490534544","0.1","12","300","64","41","-1256","24376","-1656","7","150","149.40","118.38","31.02","30.30","29.5","10.54","89240","30.81","DUALSPOT-UV-BLUE-GREEN-RED-IR","664606","657976","909879","15.968279","5.903805","0.031507","662858","834666","765380","11.490232","3.994202","0.038941","758978","847239","816388","9.597959","3.173250","0.042836","766562","875655","864492","7.646797","2.373838","0.047435","671558","818272","955718","5.376152","1.654770","0.057658","4955","8117","9973","4845","7404","8768","4663","6842","7919","4603","6410","7223","4476","5868","6487","DualSpot on"
"MA200-0416","60223","124","1","1.10","1.6","2023-08-25T18:40:01","120","2023/08/25","18:40:01","-15.787175357341766","35.035229325294495","0.2","12","300","64","42","-1172","24308","-1616","7","150","149.43","118.45","30.98","30.34","29.3","10.47","89236","30.88","DUALSPOT-UV-BLUE-GREEN-RED-IR","653516","650796","903943","16.993930","6.350425","0.030306","654567","828071","761800","12.282339","4.315734","0.037440","754993","846282","817666","10.278161","3.438759","0.041387","763711","875463","866123","8.204163","2.581668","0.046713","666035","813569","951522","5.765335","1.790848","0.056954","5085","8468","10486","4957","7694","9177","4767","7116","8296","4720","6731","7654","4589","6136","6833","DualSpot on"
"MA200-0416","60224","124","1","1.10","1.6","2023-08-25T18:45:01","120","2023/08/25","18:45:01","-15.787157773971558","35.03524332866073","0.2","12","300","64","43","-1156","24448","-1772","7","150","150.08","118.38","31.70","30.35","29.2","10.40","89244","30.81","DUALSPOT-UV-BLUE-GREEN-RED-IR","651989","652884","910959","17.999848","6.797348","0.028576","649585","825394","761611","13.022213","4.620904","0.035001","749624","843430","816905","10.904695","3.687590","0.038697","757934","871589","863899","8.710784","2.772331","0.042812","666878","816476","956056","6.114895","1.913722","0.051150","4991","8281","10277","4633","7136","8513","4394","6517","7602","4293","6034","6847","4125","5415","6002","DualSpot on"
"MA200-0416","60225","124","1","1.10","1.6","2023-08-25T18:50:01","120","2023/08/25","18:50:01","-15.787068605422974","35.03528616204858","0.0","12","300","64","44","-744","24712","-3076","7","150","149.92","118.80","31.13","30.36","29.0","10.35","89248","30.81","DUALSPOT-UV-BLUE-GREEN-RED-IR","644197","648467","908744","18.962940","7.235748","0.028679","643521","821042","759911","13.736307","4.922402","0.035521","744186","840370","815907","11.512294","3.931534","0.038829","752940","868508","862490","9.207641","2.961474","0.043479","663684","814336","954711","6.455261","2.033032","0.051163","4761","8272","10438","4456","7180","8702","4246","6506","7678","4196","6096","6997","4002","5354","5976","DualSpot on"
"MA200-0416","60226","124","1","1.10","1.6","2023-08-25T18:55:01","120","2023/08/25","18:55:01","-15.787157118320465","35.035298991948366","0.5","12","300","64","45","-1196","24534","-1669","7","150","149.37","119.25","30.12","30.36","29.0","10.31","89244","30.81","DUALSPOT-UV-BLUE-GREEN-RED-IR","637985","645643","908982","19.956912","7.698604","0.028996","638517","818131","759606","14.481684","5.238677","0.035617","739922","838712","816449","12.149842","4.191655","0.039867","749521","867358","863085","9.729473","3.162849","0.045105","657729","808919","949602","6.817386","2.162742","0.055710","4895","9025","11619","4633","7784","9569","4438","7169","8608","4390","6707","7823","4242","6015","6839","DualSpot on"
"MA200-0416","60227","124","1","1.10","1.6","2023-08-25T19:00:01","120","2023/08/25","19:00:01","-15.78720635175705","35.03527032211423","0.5","12","300","64","46","-1276","24548","-1816","7","150","149.82","120.34","29.48","30.33","29.0","10.30","89244","30.75","DUALSPOT-UV-BLUE-GREEN-RED-IR","631641","642659","909043","20.960518","8.169353","0.028617","634117","816075","760247","15.257917","5.574013","0.035789","733984","835276","815349","12.822143","4.468143","0.039794","744497","864452","862082","10.285506","3.379869","0.045609","658431","811808","954299","7.206398","2.302538","0.056471","4898","9379","12241","4781","8432","10534","4638","7786","9470","4635","7385","8731","4515","6624","7614","DualSpot on"
"MA200-0416","60228","124","1","1.10","1.6","2023-08-25T19:05:01","120","2023/08/25","19:05:01","-15.787129998207092","35.03523899242282","0.2","12","300","64","47","-1204","24552","-2068","7","150","150.36","120.95","29.41","30.27","29.0","10.27","89244","30.69","DUALSPOT-UV-BLUE-GREEN-RED-IR","623017","637475","906397","22.045326","8.685848","0.027782","631124","816098","763047","16.090908","5.937445","0.034628","728021","831969","814583","13.541249","4.767603","0.038672","744305","867383","867056","10.886380","3.616631","0.044231","654996","809816","953425","7.631695","2.453115","0.052651","5268","10313","13594","5105","9159","11530","4936","8452","10363","4984","8075","9613","4912","7151","8212","DualSpot on"
"MA200-0416","60229","124","1","1.10","1.6","2023-08-25T19:10:01","120","2023/08/25","19:10:01","-15.787068784236908","35.03524782508612","0.1","12","300","64","49","-980","24352","-1776","7","150","150.23","120.62","29.61","30.24","29.1","10.27","89248","30.63","DUALSPOT-UV-BLUE-GREEN-RED-IR","615174","633327","905613","23.213334","9.245712","0.026405","624927","812422","762855","17.044884","6.360352","0.033005","721956","829039","814641","14.381240","5.123627","0.036876","733750","858746","860888","11.594114","3.901604","0.042365","651668","808282","953426","8.140102","2.641355","0.052760","5687","11107","14694","5863","10589","13403","5781","9983","12309","5886","9657","11569","5888","8882","10320","DualSpot on"
"MA200-0416","60230","124","1","1.10","1.6","2023-08-25T19:15:01","120","2023/08/25","19:15:01","-15.78721672296524","35.035241324454546","0.2","12","300","64","50","-1012","24436","-1927","7","150","150.69","120.91","29.78","30.21","29.2","10.28","89256","30.63","DUALSPOT-UV-BLUE-GREEN-RED-IR","605529","627516","902884","24.505204","9.872375","0.025254","616746","806418","760782","18.096974","6.832159","0.031426","717334","828120","816939","15.307576","5.521286","0.035114","729911","858182","863034","12.377075","4.221011","0.040318","646222","804334","950776","8.707672","2.853647","0.050016","6275","12360","16466","6450","11745","14957","6360","11087","13753","6496","10761","12968","6557","9959","11617","DualSpot on"
"MA200-0416","60231","124","1","1.10","1.6","2023-08-25T19:20:01","120","2023/08/25","19:20:01","-15.787173628807068","35.035250660032034","0.3","13","300","64","52","-1180","24424","-1764","7","150","149.92","120.52","29.40","30.17","29.1","10.24","89256","30.56","DUALSPOT-UV-BLUE-GREEN-RED-IR","599352","624214","902686","25.509236","10.377232","0.025146","615689","808432","765409","18.877318","7.191849","0.031237","709546","822197","813501","15.984136","5.817461","0.034747","726504","856946","863830","12.937963","4.453745","0.039934","644297","803953","951725","9.101315","3.000795","0.048639","4893","10086","13647","4799","9069","11697","4660","8363","10482","4669","7942","9660","4562","6991","8186","DualSpot on"
"MA200-0416","60232","124","1","1.10","1.6","2023-08-25T19:25:01","120","2023/08/25","19:25:01","-15.787048995494843","35.0352664925158","0.0","14","300","64","53","-1296","24380","-1552","7","150","150.62","120.54","30.08","30.11","29.2","10.21","89256","30.44","DUALSPOT-UV-BLUE-GREEN-RED-IR","597777","625674","909520","26.524410","10.896950","0.024161","609864","804173","764212","19.672098","7.564419","0.029888","704312","819271","813106","16.674454","6.125706","0.033287","721567","854011","862932","13.516512","4.697488","0.037974","641463","802402","951330","9.509418","3.156412","0.046415","4946","10147","13773","4887","9180","11863","4754","8506","10685","4815","8128","9893","4729","7226","8466","DualSpot on"
"MA200-0416","60233","124","1","1.10","1.6","2023-08-25T19:30:01","120","2023/08/25","19:30:01","-15.787162959575653","35.03524048998952","0.3","14","300","64","55","-976","24680","-1964","7","150","149.37","120.33","29.04","30.04","29.2","10.14","89256","30.38","DUALSPOT-UV-BLUE-GREEN-RED-IR","590904","621228","907428","27.454464","11.381546","0.024197","604625","800274","763196","20.399396","7.911527","0.030140","701854","819247","815438","17.308712","6.414151","0.033747","720538","855391","866298","14.045961","4.924127","0.038699","641481","804266","954971","9.880547","3.301271","0.048678","4539","9799","13524","4480","8859","11633","4376","8245","10522","4414","7828","9671","4308","6967","8301","DualSpot on"
"MA200-0416","60234","124","1","1.10","1.6","2023-08-25T19:35:01","120","2023/08/25","19:35:01","-15.787160277366638","35.03528416156769","0.0","14","300","64","56","-1184","24456","-1732","7","150","150.25","120.13","30.11","29.95","29.1","10.02","89256","30.25","DUALSPOT-UV-BLUE-GREEN-RED-IR","582458","615224","903274","28.436504","11.895145","0.022903","601207","798991","764781","21.176258","8.281869","0.028188","695935","815364","814066","17.990824","6.721896","0.031172","713864","850238","863220","14.617367","5.168719","0.035752","637698","801569","953237","10.290688","3.457401","0.042613","4801","10017","13768","4793","9116","11893","4713","8484","10733","4771","8148","9995","4769","7242","8493","DualSpot on"
"MA200-0416","60235","124","1","1.10","1.6","2023-08-25T19:40:01","120","2023/08/25","19:40:01","-15.787142515182495","35.03529232740402","0.1","14","300","64","58","-1068","24452","-1840","7","150","150.11","120.02","30.09","29.85","29.1","9.94","89256","30.13","DUALSPOT-UV-BLUE-GREEN-RED-IR","579416","614691","906916","29.356666","12.381145","0.022372","594673","793324","762045","21.913504","8.636118","0.027470","693506","815367","816498","18.637346","7.019091","0.030693","712531","851271","866286","15.162806","5.404715","0.034950","633766","798518","951054","10.680054","3.609213","0.042696","4503","9485","13119","4553","8726","11440","4472","8199","10450","4559","7867","9699","4532","7047","8330","DualSpot on"
"MA200-0416","60236","124","1","1.10","1.6","2023-08-25T19:45:01","120","2023/08/25","19:45:01","-15.78712946176529","35.0352439917624","0.1","14","300","64","60","-1215","24626","-1911","7","150","150.30","120.02","30.28","29.74","29.2","9.89","89256","30.00","DUALSPOT-UV-BLUE-GREEN-RED-IR","572545","609769","903876","30.217536","12.850029","0.022120","592751","793541","764857","22.602548","8.978582","0.027284","687820","811309","814761","19.246286","7.305930","0.030284","705494","845256","862100","15.675924","5.634447","0.034912","633849","800330","954568","11.041077","3.753996","0.042725","4213","9094","12705","4256","8383","11103","4212","7863","10097","4289","7610","9474","4202","6678","7954","DualSpot on"
"MA200-0416","60237","124","1","1.10","1.6","2023-08-25T19:50:01","120","2023/08/25","19:50:01","-15.787075281143188","35.03525049239397","0.3","14","300","64","61","-1276","24420","-1596","7","150","150.11","119.56","30.56","29.63","29.2","9.81","89256","29.94","DUALSPOT-UV-BLUE-GREEN-RED-IR","570625","610078","908562","31.068618","13.316181","0.021460","586830","788306","762418","23.289076","9.322626","0.026438","685613","811229","817059","19.849840","7.595527","0.029572","705286","847361","866269","16.184952","5.864039","0.033693","630488","797823","952988","11.404514","3.900491","0.040974","4181","8960","12545","4256","8347","11077","4191","7868","10148","4271","7538","9394","4246","6697","7971","DualSpot on"
"MA200-0416","60238","124","1","1.10","1.6","2023-08-25T19:55:01","120","2023/08/25","19:55:01","-15.787112593650818","35.03534282743931","0.2","13","300","64","64","-1179","24683","-1891","7","150","150.03","120.01","30.02","29.54","29.3","9.80","89256","29.81","DUALSPOT-UV-BLUE-GREEN-RED-IR","563820","605069","905295","31.908740","13.783596","0.021408","584441","787685","764458","23.964312","9.664542","0.026371","680452","807631","815735","20.442956","7.881113","0.029394","699547","842726","863522","16.686459","6.093267","0.033913","627066","795160","951242","11.761684","4.046392","0.041763","4111","9146","12975","4171","8444","11333","4103","7899","10280","4192","7661","9657","4157","6790","8171","DualSpot on"
"MA200-0416","60239","124","1","1.10","1.6","2023-08-25T20:00:01","120","2023/08/25","20:00:01","-15.78730320930481","35.035188157111406","0.5","13","300","64","65","-1120","24256","-1444","7","150","150.03","119.97","30.06","29.46","29.4","9.78","89260","29.69","DUALSPOT-UV-BLUE-GREEN-RED-IR","557383","600209","902076","32.707596","14.236382","0.021124","579745","783839","763286","24.616904","10.002381","0.026095","675536","804125","814476","21.017886","8.163834","0.029097","698507","843742","866516","17.175262","6.319606","0.033364","627797","797739","955673","12.111855","4.191007","0.041107","3911","8848","12653","4032","8332","11275","3978","7809","10242","4087","7555","9573","4077","6721","8120","DualSpot on"
"MA200-0416","60240","124","1","1.10","1.6","2023-08-25T20:05:01","120","2023/08/25","20:05:01","-15.787229359149933","35.03522999212146","0.1","13","300","64","67","-1176","24808","-1824","7","150","150.62","120.05","30.57","29.37","29.5","9.72","89272","29.63","DUALSPOT-UV-BLUE-GREEN-RED-IR","554890","599463","904943","33.468064","14.670742","0.020581","576508","781801","763746","25.238666","10.324831","0.025236","673222","803614","816202","21.567456","8.434183","0.028042","691999","837940","862413","17.639974","6.534913","0.032060","623520","793832","952294","12.443813","4.328537","0.039390","3720","8345","11955","3839","7819","10574","3800","7342","9616","3883","7066","8938","3862","6284","7576","DualSpot on"
"MA200-0416","60241","124","1","1.10","1.6","2023-08-25T20:10:01","120","2023/08/25","20:10:01","-15.787135303020477","35.0352538228035","0.1","13","300","64","69","-1252","24347","-1569","7","150","150.62","119.61","31.01","29.31","29.5","9.70","89272","29.56","DUALSPOT-UV-BLUE-GREEN-RED-IR","551575","597844","906501","34.242724","15.117142","0.020045","573535","780102","764642","25.869392","10.655267","0.024523","669381","801267","816060","22.123740","8.711772","0.027299","688829","836186","862508","18.109248","6.755418","0.031164","621644","792983","952635","12.780285","4.470054","0.038257","3804","8454","12129","3909","7898","10692","3861","7431","9749","3936","7133","9035","3929","6374","7689","DualSpot on"
"MA200-0416","60242","124","1","1.10","1.6","2023-08-25T20:15:01","120","2023/08/25","20:15:01","-15.787165105342865","35.03523198887706","0.3","13","300","64","71","-992","24772","-1764","7","150","150.29","119.73","30.56","29.23","29.5","9.62","89268","29.44","DUALSPOT-UV-BLUE-GREEN-RED-IR","549978","597883","910345","34.955500","15.534756","0.020020","568772","775714","762681","26.448172","10.965229","0.024661","665115","798148","814985","22.633984","8.970073","0.027372","684069","832288","860225","18.539818","6.960454","0.031329","618776","790733","951165","13.088070","4.600528","0.038557","3496","8025","11648","3583","7518","10304","3538","7016","9299","3607","6730","8607","3591","5963","7249","DualSpot on"
"MA200-0416","60243","124","1","1.10","1.6","2023-08-25T20:20:01","120","2023/08/25","20:20:01","-15.787217736244202","35.035283993929625","0.2","14","300","64","72","-1140","24496","-1627","7","150","150.55","119.63","30.92","29.17","29.5","9.55","89268","29.38","DUALSPOT-UV-BLUE-GREEN-RED-IR","543238","592292","905667","35.673860","15.961353","0.019659","566550","774753","764133","27.036534","11.282427","0.024070","659760","793743","812645","23.154204","9.237401","0.026854","682450","832216","862017","18.983524","7.174417","0.030650","618948","792367","954439","13.408295","4.740415","0.038507","3526","8103","11808","3645","7604","10439","3610","7177","9545","3721","6942","8898","3739","6319","7730","DualSpot on"
"MA200-0416","60244","124","1","1.10","1.6","2023-08-25T20:25:01","120","2023/08/25","20:25:01","-15.78714632987976","35.035287991166115","0.3","14","300","64","74","-1224","24444","-1680","7","150","149.99","119.67","30.31","29.07","29.6","9.55","89268","29.25","DUALSPOT-UV-BLUE-GREEN-RED-IR","541615","592041","908813","36.317196","16.347397","0.019644","561459","769688","761348","27.569834","11.572588","0.024092","658935","794564","815489","23.630632","9.482822","0.026795","682088","833518","865058","19.386282","7.370527","0.030849","615712","789520","952237","13.696827","4.866167","0.038530","3157","7479","11017","3303","7095","9838","3305","6721","9010","3376","6490","8400","3368","5794","7132","DualSpot on"
"MA200-0416","60245","124","1","1.10","1.6","2023-08-25T20:30:01","120","2023/08/25","20:30:01","-15.787036120891571","35.03526732698083","0.2","14","300","64","76","-1252","24532","-1972","7","150","150.14","119.46","30.68","28.99","29.7","9.53","89264","29.19","DUALSPOT-UV-BLUE-GREEN-RED-IR","538169","589755","908868","36.966824","16.740677","0.019278","558442","767430","761364","28.109386","11.867792","0.023540","655880","792703","815608","24.109222","9.730797","0.026147","679865","832544","865780","19.797818","7.571102","0.029921","614187","788896","952699","13.994205","4.993976","0.036546","3194","7528","11115","3348","7132","9896","3326","6709","8999","3456","6558","8478","3477","5818","7117","DualSpot on"
"MA200-0416","60246","124","1","1.10","1.6","2023-08-25T20:35:01","120","2023/08/25","20:35:01","-15.787209868431091","35.03521332889795","0.4","14","300","64","78","-1216","24344","-1760","7","150","149.80","119.67","30.13","28.90","29.9","9.51","89272","29.06","DUALSPOT-UV-BLUE-GREEN-RED-IR","531723","584114","903560","37.583484","17.115288","0.019206","556987","767202","763336","28.631448","12.155796","0.023552","650829","788346","813117","24.576368","9.975564","0.026262","673082","825878","860550","20.198388","7.768464","0.030135","610482","785426","949710","14.285172","5.122267","0.037767","3026","7303","10880","3234","7087","9930","3240","6745","9140","3358","6572","8581","3396","5949","7375","DualSpot on"
"MA200-0416","60247","124","1","1.10","1.6","2023-08-25T20:40:01","120","2023/08/25","20:40:01","-15.787199139595032","35.035168163478374","0.3","14","300","64","79","-1132","24504","-2008","7","150","150.23","119.21","31.01","28.84","29.9","9.48","89268","29.00","DUALSPOT-UV-BLUE-GREEN-RED-IR","531975","585738","909416","38.182724","17.484542","0.018759","553386","763945","762245","29.138420","12.438924","0.022882","651098","790391","817152","25.028664","10.213833","0.025327","675790","830829","867369","20.588022","7.959485","0.028680","612628","789478","955808","14.571720","5.246940","0.035161","2952","6993","10406","3152","6767","9460","3149","6378","8603","3279","6179","8007","3357","5615","6885","DualSpot on"
"MA200-0416","60248","124","1","1.10","1.6","2023-08-25T20:45:01","120","2023/08/25","20:45:01","-15.787150800228119","35.03519682586193","0.2","14","300","64","81","-1220","24424","-1588","7","150","149.73","119.38","30.35","28.75","30.1","9.49","89264","28.94","DUALSPOT-UV-BLUE-GREEN-RED-IR","527443","582136","907372","38.811608","17.877362","0.018803","552836","764938","765559","29.666142","12.739818","0.023101","646639","786669","815390","25.498636","10.467596","0.025723","670032","825383","863459","20.988020","8.165111","0.029818","609440","786595","953580","14.859322","5.377392","0.037100","3094","7601","11450","3277","7349","10413","3268","6941","9498","3361","6796","8984","3365","6003","7500","DualSpot on"
"MA200-0416","60249","124","1","1.10","1.6","2023-08-25T20:50:01","120","2023/08/25","20:50:01","-15.787231147289276","35.035250160843134","0.1","14","300","64","83","-1368","24480","-1392","7","150","149.99","118.76","31.23","28.70","30.3","9.56","89264","28.88","DUALSPOT-UV-BLUE-GREEN-RED-IR","524717","580491","908737","39.484496","18.308770","0.018447","547096","758772","761893","30.237050","13.071087","0.022491","641846","782625","813460","26.006526","10.746893","0.025006","664971","820905","860669","21.424428","8.388595","0.028423","605776","783220","950858","15.177078","5.523615","0.035653","3328","8114","12252","3563","7864","11138","3550","7425","10154","3686","7180","9427","3737","6541","8145","DualSpot on"
"MA200-0416","60250","124","1","1.10","1.6","2023-08-25T20:55:01","120","2023/08/25","20:55:01","-15.787141263484955","35.03524549305439","0.1","14","300","64","85","-1292","24380","-1692","7","150","150.01","119.17","30.84","28.67","30.4","9.57","89272","28.81","DUALSPOT-UV-BLUE-GREEN-RED-IR","518559","575072","904119","40.152624","18.736572","0.018289","545254","758079","763661","30.800376","13.395795","0.022232","638993","780936","813959","26.512290","11.021519","0.024621","662416","819481","861088","21.857290","8.608031","0.028033","604678","783173","952167","15.493496","5.665540","0.034608","3293","8148","12396","3504","7805","11116","3523","7393","10147","3644","7139","9409","3709","6429","7997","DualSpot on"
"MA200-0416","60251","124","1","1.10","1.6","2023-08-25T21:00:01","120","2023/08/25","21:00:01","-15.78713196516037","35.035348162055016","0.1","14","300","64","87","-1228","23976","-1520","7","150","150.49","119.40","31.09","28.61","30.5","9.58","89264","28.75","DUALSPOT-UV-BLUE-GREEN-RED-IR","518216","575986","909294","40.787092","19.148110","0.018084","541371","754346","762314","31.338948","13.709105","0.021920","635985","778936","813957","26.991988","11.285351","0.024325","663716","822741","866341","22.270274","8.819390","0.027626","602573","781691","951649","15.795933","5.802952","0.034238","3121","7775","11894","3343","7471","10681","3335","7046","9712","3470","6821","9018","3538","6174","7705","DualSpot on"
"MA200-0416","60252","124","1","1.10","1.6","2023-08-25T21:05:01","120","2023/08/25","21:05:01","-15.787157773971558","35.03526282683015","0.1","14","300","64","89","-1292","24408","-1108","7","150","149.61","120.13","29.47","28.58","30.6","9.61","89268","28.69","DUALSPOT-UV-BLUE-GREEN-RED-IR","513130","571517","905809","41.395988","19.547452","0.018365","540432","754650","764948","31.860188","14.016789","0.022447","634807","779135","816324","27.459242","11.544387","0.024943","658217","817545","862670","22.674654","9.027951","0.028527","598823","778085","948554","16.094215","5.939201","0.035874","2977","7958","12415","3216","7739","11292","3229","7297","10248","3377","7099","9562","3468","6458","8206","DualSpot on"
"MA200-0416","60253","124","1","1.10","1.6","2023-08-25T21:10:01","120","2023/08/25","21:10:01","-15.787070989608765","35.0352674908936","0.2","14","300","64","92","-1244","24416","-1440","7","150","149.76","122.28","27.48","28.55","30.7","9.62","89276","28.69","DUALSPOT-UV-BLUE-GREEN-RED-IR","514014","573716","912998","42.009596","19.948638","0.018669","537700","752450","765103","32.383708","14.324187","0.022946","631885","777169","816387","27.932210","11.805097","0.025619","656231","816699","863574","23.082312","9.237277","0.029535","601259","782577","955347","16.397610","6.077429","0.037817","2947","8574","13663","3173","8292","12352","3211","7876","11291","3344","7642","10509","3465","7026","9123","DualSpot on"
"MA200-0416","60254","124","1","1.10","1.6","2023-08-25T21:15:01","120","2023/08/25","21:15:01","-15.787177860736847","35.035262659192085","0.0","13","300","64","94","-1248","24496","-1760","7","150","150.35","123.83","26.52","28.55","30.7","9.60","89268","28.63","DUALSPOT-UV-BLUE-GREEN-RED-IR","505769","565726","903848","42.624320","20.348496","0.018670","533758","748603","763510","32.912322","14.631900","0.022960","628051","774163","815327","28.407820","12.064265","0.025646","651468","812428","860869","23.495246","9.446761","0.029620","598609","780419","954054","16.704529","6.215893","0.038189","2915","8854","14279","3164","8600","12951","3188","8112","11746","3345","7923","11002","3462","7292","9562","DualSpot on"
"MA200-0416","60255","124","1","1.10","1.6","2023-08-25T21:20:01","120","2023/08/25","21:20:01","-15.787126958370209","35.035223823040724","0.4","13","300","64","96","-1238","24419","-1461","7","150","150.21","123.66","26.55","28.53","30.6","9.56","89264","28.56","DUALSPOT-UV-BLUE-GREEN-RED-IR","503241","564072","904678","43.216676","20.734608","0.018429","531245","746675","763822","33.426334","14.932137","0.022635","625644","772804","815983","28.870256","12.317915","0.025304","649656","811757","861875","23.893304","9.648765","0.029118","597139","779800","954542","17.002030","6.348545","0.037176","2813","8540","13822","3081","8381","12661","3104","7930","11521","3229","7631","10614","3360","6978","9134","DualSpot on"
"MA200-0416","60256","124","1","1.10","1.6","2023-08-25T21:25:01","120","2023/08/25","21:25:01","-15.787095129489899","35.03531049191952","0.5","14","300","64","97","-1284","24508","-1464","7","150","150.14","124.00","26.15","28.46","30.6","9.52","89264","28.50","DUALSPOT-UV-BLUE-GREEN-RED-IR","502611","564435","908789","43.789744","21.115032","0.018401","527339","742638","761949","33.922024","15.227542","0.022646","621664","769372","814386","29.317094","12.567919","0.025351","650234","814006","866017","24.283394","9.851087","0.029265","594556","777638","953183","17.291938","6.480795","0.037617","2714","8546","13976","2963","8375","12784","2991","7938","11650","3156","7763","10908","3266","7066","9343","DualSpot on"
"MA200-0416","60257","124","1","1.10","1.6","2023-08-25T21:30:01","120","2023/08/25","21:30:01","-15.787145972251892","35.035274155437946","0.3","13","300","64","97","-1152","24540","-1952","7","150","149.83","123.42","26.41","28.40","30.8","9.56","89276","28.38","DUALSPOT-UV-BLUE-GREEN-RED-IR","497553","559799","904654","44.348740","21.489296","0.018153","526236","742519","764063","34.406628","15.518191","0.022279","620761","769723","816792","29.756156","12.816008","0.024948","645138","809099","862516","24.663504","10.050896","0.028821","591277","774472","950541","17.574008","6.611885","0.037133","2660","8323","13646","2910","8157","12468","2953","7798","11463","3089","7589","10685","3192","6933","9189","DualSpot on"
"MA200-0416","60258","124","1","1.10","1.6","2023-08-25T21:35:01","120","2023/08/25","21:35:01","-15.787068784236908","35.03530899435282","0.2","13","300","64","98","-1136","24464","-1719","7","150","149.34","123.70","25.64","28.34","31.0","9.59","89276","28.31","DUALSPOT-UV-BLUE-GREEN-RED-IR","497786","561062","910054","44.894576","21.858318","0.018156","522999","739323","762932","34.878936","15.803280","0.022295","617487","767127","815972","30.183514","13.057358","0.024931","646416","812125","867465","25.038456","10.248329","0.028871","592740","777592","955590","17.851882","6.740585","0.037245","2591","8455","14018","2830","8244","12729","2868","7816","11588","3041","7726","10973","3138","7013","9364","DualSpot on"
"MA200-0416","60259","124","1","1.10","1.6","2023-08-25T21:40:01","120","2023/08/25","21:40:01","-15.787140965461731","35.0353061594069","0.2","14","300","64","98","-1354","24216","-1295","7","150","150.03","123.46","26.57","28.28","31.1","9.56","89272","28.19","DUALSPOT-UV-BLUE-GREEN-RED-IR","492796","556372","905677","45.426292","22.218692","0.017786","521890","739105","764850","35.339140","16.084272","0.021824","613389","763336","813883","30.599866","13.296306","0.024401","641268","807013","863673","25.399522","10.440413","0.028120","589503","774436","952920","18.121720","6.866895","0.036101","2529","7966","13171","2763","7840","12080","2799","7466","11052","2934","7253","10267","3053","6641","8830","DualSpot on"
"MA200-0416","60260","124","1","1.10","1.6","2023-08-25T21:45:01","120","2023/08/25","21:45:01","-15.78711062669754","35.03527549281716","0.0","14","300","64","98","-1440","24412","-1396","7","150","149.76","123.09","26.67","28.20","31.1","9.52","89272","28.06","DUALSPOT-UV-BLUE-GREEN-RED-IR","488581","552518","902708","45.956600","22.584710","0.017652","517939","734798","762572","35.800144","16.368198","0.021577","613074","764317","816922","31.017364","13.538349","0.024127","641703","808878","867377","25.764354","10.637940","0.027889","586873","772116","951266","18.393418","6.995617","0.035716","2530","8060","13404","2776","7892","12201","2815","7534","11189","2973","7430","10565","3083","6742","8988","DualSpot on"
"MA200-0416","60261","124","1","1.10","1.6","2023-08-25T21:50:01","120","2023/08/25","21:50:01","-15.787096798419952","35.03528666123748","0.1","14","300","64","98","-1212","24656","-1627","7","150","149.33","122.97","26.35","28.11","31.2","9.46","89268","28.00","DUALSPOT-UV-BLUE-GREEN-RED-IR","486324","550869","903324","46.488552","22.953156","0.017534","515935","733268","763138","36.259840","16.654470","0.021484","608245","759541","813842","31.433370","13.782331","0.024040","635151","801975","861664","26.125842","10.835769","0.027803","586319","772475","952946","18.662212","7.123913","0.035632","2540","8211","13742","2771","8052","12539","2808","7686","11494","2949","7531","10778","3053","6800","9114","DualSpot on"
"MA200-0416","60262","124","1","1.10","1.6","2023-08-25T21:55:01","120","2023/08/25","21:55:01","-15.787127673625946","35.03525332733989","0.1","14","300","64","98","-1216","24492","-1716","7","150","149.51","123.13","26.37","28.00","31.1","9.33","89276","27.88","DUALSPOT-UV-BLUE-GREEN-RED-IR","487087","552641","909612","47.019148","23.324132","0.017397","513381","730871","762837","36.720556","16.942310","0.021260","605491","757422","813519","31.848092","14.026592","0.023792","636330","804768","866399","26.488004","11.035298","0.027537","584661","771343","952787","18.929486","7.253389","0.035484","2530","8262","13904","2773","8091","12646","2796","7689","11541","2950","7590","10904","3032","6858","9235","DualSpot on"
"MA200-0416","60263","124","1","1.10","1.6","2023-08-25T22:00:01","120","2023/08/25","22:00:01","-15.787211835384369","35.03530316054821","0.6","14","300","64","98","-1144","24680","-2124","7","150","150.35","123.36","26.99","27.88","31.2","9.30","89276","27.69","DUALSPOT-UV-BLUE-GREEN-RED-IR","481464","547103","903936","47.559156","23.705680","0.017165","511505","729461","763625","37.188696","17.239004","0.020961","604416","757375","815515","32.271324","14.279653","0.023444","630729","798989","861938","26.855620","11.239446","0.027021","581236","767873","949760","19.200786","7.385822","0.034725","2571","8303","13999","2813","8149","12759","2848","7784","11701","2989","7588","10898","3072","6854","9218","DualSpot on"
"MA200-0416","60264","124","1","1.10","1.6","2023-08-25T22:05:01","120","2023/08/25","22:05:01","-15.787054300308228","35.035357657819986","0.1","14","300","64","98","-1376","24492","-1420","7","150","150.56","122.97","27.59","27.74","31.4","9.25","89280","27.56","DUALSPOT-UV-BLUE-GREEN-RED-IR","479944","546208","905933","48.097456","24.089512","0.016916","510242","728882","765340","37.657240","17.538260","0.020598","599712","752730","812587","32.693886","14.534037","0.022999","629690","798942","863664","27.225492","11.447322","0.026521","581395","769160","952608","19.469436","7.518566","0.034007","2571","8172","13793","2824","8042","12590","2852","7656","11500","3017","7560","10856","3051","6722","9031","DualSpot on"
"MA200-0416","60265","124","1","1.10","1.6","2023-08-25T22:10:01","120","2023/08/25","22:10:01","-15.78689694404602","35.03522515669465","0.4","14","300","64","98","-1188","24473","-1469","7","150","149.92","123.31","26.61","27.61","31.6","9.22","89272","27.38","DUALSPOT-UV-BLUE-GREEN-RED-IR","477996","544790","907030","48.621300","24.466046","0.016954","508453","727535","766148","38.114760","17.831470","0.020657","598604","752581","814486","33.109326","14.785498","0.023116","629060","799420","865975","27.588450","11.654223","0.026814","578357","766158","950115","19.738208","7.651823","0.034422","2495","8311","14203","2750","8169","12932","2797","7846","11920","2952","7801","11347","3044","6996","9497","DualSpot on"
"MA200-0416","60266","124","1","1.10","1.6","2023-08-25T22:15:01","120","2023/08/25","22:15:01","-15.787109971046448","35.03529032319784","0.1","14","300","64","98","-1280","24396","-1360","7","150","149.51","123.17","26.33","27.50","31.6","9.15","89268","27.25","DUALSPOT-UV-BLUE-GREEN-RED-IR","474012","541048","904105","49.134216","24.833272","0.016813","505053","723829","764437","38.560980","18.119288","0.020536","598333","753470","817468","33.518184","15.031783","0.022890","623897","794096","861925","27.947194","11.854980","0.026390","578932","767926","953574","20.000480","7.781452","0.034115","2445","8191","14063","2685","8103","12905","2755","7765","11839","2922","7649","11132","2974","6877","9362","DualSpot on"
"MA200-0416","60267","124","1","1.10","1.6","2023-08-25T22:20:01","120","2023/08/25","22:20:01","-15.787087321281433","35.03524615988135","0.1","14","300","64","98","-1170","24529","-1920","7","150","149.83","123.01","26.82","27.36","31.8","9.10","89264","27.13","DUALSPOT-UV-BLUE-GREEN-RED-IR","472388","539998","905709","49.654244","25.209488","0.016612","503214","722347","765144","39.020684","18.415964","0.020189","594198","749498","815210","33.935624","15.286430","0.022570","623871","795299","865042","28.312652","12.064672","0.026131","575995","765079","951362","20.273792","7.918459","0.033577","2483","8240","14177","2770","8201","13055","2817","7883","12036","2980","7844","11456","3103","7136","9721","DualSpot on"
"MA200-0416","60268","124","1","1.10","1.6","2023-08-25T22:25:01","120","2023/08/25","22:25:01","-15.787241280078888","35.035251159220934","0.1","13","300","64","98","-1292","24508","-1884","7","150","150.08","123.32","26.76","27.26","32.0","9.12","89268","27.00","DUALSPOT-UV-BLUE-GREEN-RED-IR","471092","539258","907834","50.161604","25.579036","0.016504","498924","717280","761974","39.466052","18.705406","0.020052","593182","749410","817173","34.340604","15.534424","0.022391","622720","795050","866566","28.671028","12.268218","0.025767","576336","766544","954432","20.540790","8.050497","0.032999","2416","8112","14039","2677","8019","12833","2726","7695","11799","2915","7632","11160","3024","6893","9387","DualSpot on"
"MA200-0416","60269","124","1","1.10","1.6","2023-08-25T22:30:01","120","2023/08/25","22:30:01","-15.787000358104706","35.035306327044964","0.1","13","300","64","98","-1448","24496","-1212","7","150","150.21","122.89","27.32","27.13","32.1","9.06","89256","26.88","DUALSPOT-UV-BLUE-GREEN-RED-IR","467399","535752","905350","50.675684","25.956924","0.016289","498573","717924","764938","39.918192","19.002852","0.019766","589975","746486","816045","34.754576","15.790017","0.022015","617714","789900","862746","29.035668","12.477243","0.025301","573343","763625","952086","20.815892","8.186754","0.032155","2456","8124","14076","2727","8071","12926","2796","7767","11906","2976","7676","11217","3127","6967","9456","DualSpot on"
"MA200-0416","60270","124","1","1.10","1.6","2023-08-25T22:35:01","120","2023/08/25","22:35:01","-15.787023305892944","35.03521565720439","0.1","13","300","64","98","-1312","24504","-1392","7","150","149.49","123.08","26.41","27.04","32.3","9.06","89256","26.75","DUALSPOT-UV-BLUE-GREEN-RED-IR","466235","535126","907765","51.194284","26.340546","0.016301","494552","713195","762198","40.372948","19.302918","0.019792","585961","742593","813892","35.171212","16.048162","0.022075","618811","792514","867435","29.402778","12.688755","0.025433","571176","761796","951154","21.091430","8.325506","0.032715","2474","8533","14953","2739","8424","13632","2810","8116","12569","2992","8036","11865","3127","7340","10088","DualSpot on"
"MA200-0416","60271","124","1","1.10","1.6","2023-08-25T22:40:01","120","2023/08/25","22:40:01","-15.7871453166008","35.035259660333395","0.2","13","300","64","98","-1520","24272","-1120","7","150","150.42","122.89","27.53","26.96","32.5","9.07","89248","26.69","DUALSPOT-UV-BLUE-GREEN-RED-IR","461146","529975","902448","51.705176","26.720390","0.016006","493406","712646","763862","40.823124","19.600908","0.019351","584824","742323","815626","35.579064","16.302034","0.021545","612606","785791","861834","29.762890","12.897799","0.024778","570873","762399","953202","21.362094","8.462023","0.031578","2441","8104","14161","2715","8025","12929","2755","7656","11802","2939","7619","11197","3076","6928","9454","DualSpot on"
"MA200-0416","60272","124","1","1.10","1.6","2023-08-25T22:45:01","120","2023/08/25","22:45:01","-15.787038147449493","35.035228326916695","0.3","13","300","64","98","-1232","24608","-1619","7","150","149.64","123.07","26.57","26.87","32.5","9.02","89236","26.63","DUALSPOT-UV-BLUE-GREEN-RED-IR","462521","532243","909872","52.226408","27.112404","0.016041","490733","709856","763205","41.276816","19.906430","0.019469","582688","740740","816054","35.993776","16.562555","0.021659","610523","784297","862092","30.131924","13.111907","0.024863","569602","761774","953768","21.640674","8.603783","0.032001","2487","8665","15334","2732","8523","13917","2797","8139","12693","3008","8083","11993","3162","7452","10283","DualSpot on"
"MA200-0416","60273","124","1","1.10","1.6","2023-08-25T22:50:01","120","2023/08/25","22:50:01","-15.786939322948456","35.03514266014099","0.3","13","300","64","98","-1316","24588","-1512","7","150","149.96","123.09","26.87","26.80","32.6","8.99","89228","26.50","DUALSPOT-UV-BLUE-GREEN-RED-IR","457925","527664","905572","52.754228","27.504200","0.015805","489957","709819","765520","41.737716","20.212296","0.019125","578724","736833","813851","36.411220","16.823652","0.021317","610357","785276","864994","30.492328","13.322220","0.024538","566610","758802","951378","21.916774","8.742695","0.031238","2518","8564","15151","2775","8439","13757","2815","8067","12579","2937","7853","11667","3133","7222","9935","DualSpot on"
"MA200-0416","60274","124","1","1.10","1.6","2023-08-25T22:55:01","120","2023/08/25","22:55:01","-15.787109434604645","35.03530699014664","0.2","13","300","64","98","-1280","24576","-1719","7","150","149.67","122.69","26.98","26.70","32.7","8.95","89220","26.38","DUALSPOT-UV-BLUE-GREEN-RED-IR","457809","528137","909922","53.254736","27.889390","0.015773","486739","706130","763777","42.175424","20.512578","0.019087","578412","737529","816715","36.813016","17.080454","0.021204","605824","780600","861629","30.850934","13.533607","0.024300","567346","760779","955187","22.186866","8.883129","0.031315","2396","8387","14974","2644","8252","13562","2718","7903","12391","2932","7861","11714","3075","7272","10075","DualSpot on"
"MA200-0416","60275","124","1","1.10","1.6","2023-08-25T23:00:01","120","2023/08/25","23:00:01","-15.787094831466675","35.03531365841627","0.3","13","300","64","98","-1268","24460","-1268","7","150","149.80","122.97","26.83","26.62","32.8","8.91","89212","26.31","DUALSPOT-UV-BLUE-GREEN-RED-IR","454041","524389","906822","53.740364","28.260494","0.015644","486211","706344","766263","42.603984","20.803504","0.018893","575461","734807","815744","37.201852","17.329076","0.021054","607143","783386","866493","31.196080","13.738007","0.024166","565214","758923","954110","22.449748","9.017712","0.030839","2319","8124","14561","2583","8038","13243","2625","7693","12112","2816","7643","11441","2986","7007","9706","DualSpot on"
"MA200-0416","60276","124","1","1.10","1.6","2023-08-25T23:05:01","120","2023/08/25","23:05:01","-15.787109971046448","35.03521465882659","0.2","12","300","64","98","-1296","24612","-1568","7","150","150.49","122.56","27.94","26.55","33.0","8.94","89204","26.25","DUALSPOT-UV-BLUE-GREEN-RED-IR","450410","520763","903849","54.220000","28.630466","0.015395","483176","702858","764686","43.024740","21.091612","0.018529","572351","731820","814421","37.587772","17.575254","0.020527","603051","779219","863619","31.537980","13.940366","0.023496","562665","756437","952293","22.710518","9.152428","0.029925","2298","7778","13909","2545","7645","12550","2614","7316","11445","2798","7267","10807","2972","6736","9277","DualSpot on"
"MA200-0416","60277","124","1","1.10","1.6","2023-08-25T23:10:01","120","2023/08/25","23:10:01","-15.787167251110077","35.03527632728219","0.1","12","300","64","98","-1244","24612","-1244","7","150","150.09","122.77","27.33","26.50","33.0","8.89","89200","26.19","DUALSPOT-UV-BLUE-GREEN-RED-IR","451563","522648","910260","54.665772","28.975464","0.015376","480859","700332","764001","43.417628","21.361746","0.018527","572728","733302","817958","37.950212","17.808464","0.020575","600238","776580","862354","31.859264","14.130375","0.023497","561007","755070","951767","22.956280","9.278597","0.029918","2132","7415","13374","2372","7328","12129","2450","7085","11183","2625","6976","10444","2796","6450","8928","DualSpot on"
"MA200-0416","60278","124","1","1.10","1.6","2023-08-25T23:15:01","120","2023/08/25","23:15:01","-15.787129044532776","35.03523466363549","0.1","12","300","64","98","-1156","24692","-1584","7","150","150.28","122.60","27.69","26.45","33.1","8.90","89196","26.13","DUALSPOT-UV-BLUE-GREEN-RED-IR","448463","519538","908013","55.109964","29.321530","0.015236","477847","696824","762203","43.809612","21.631996","0.018311","570352","731169","817449","38.310564","18.038526","0.020241","597638","774235","861359","32.180920","14.320120","0.023116","559334","753726","951272","23.203620","9.405510","0.029369","2128","7341","13269","2370","7236","11982","2440","6898","10866","2632","6875","10278","2818","6403","8847","DualSpot on"
"MA200-0416","60279","124","1","1.10","1.6","2023-08-25T23:20:01","120","2023/08/25","23:20:01","-15.787153840065002","35.035258658230305","0.2","12","300","64","98","-1344","24497","-1430","7","150","150.07","122.48","27.59","26.43","33.2","8.94","89188","26.13","DUALSPOT-UV-BLUE-GREEN-RED-IR","446187","517392","907434","55.555624","29.673268","0.015176","476051","695015","762324","44.201988","21.904370","0.018210","565123","725390","812905","38.671268","18.272488","0.020191","594994","771806","860312","32.500400","14.511717","0.023082","561001","756925","956533","23.454826","9.535145","0.029206","2137","7487","13621","2375","7318","12174","2445","7039","11155","2617","6966","10475","2865","6563","9096","DualSpot on"
"MA200-0416","60280","124","1","1.10","1.6","2023-08-25T23:25:01","120","2023/08/25","23:25:01","-15.787152826786041","35.03525999560952","0.3","12","300","64","98","-1176","24544","-1532","7","150","149.87","122.34","27.52","26.42","33.1","8.90","89188","26.13","DUALSPOT-UV-BLUE-GREEN-RED-IR","443760","515088","906557","55.999848","30.021598","0.015048","473583","692224","761338","44.594820","22.178480","0.018096","565215","726440","816010","39.033104","18.507584","0.020038","595993","774105","864523","32.823558","14.703987","0.022809","555301","750133","949188","23.704800","9.664877","0.029029","2132","7433","13558","2380","7382","12331","2455","7091","11271","2650","7008","10544","2854","6584","9151","DualSpot on"
"MA200-0416","60281","124","1","1.10","1.6","2023-08-25T23:30:01","120","2023/08/25","23:30:01","-15.787108302116394","35.03527465835214","0.1","12","300","64","99","-1269","24565","-1626","7","150","149.67","122.65","27.01","26.40","33.3","8.94","89192","26.13","DUALSPOT-UV-BLUE-GREEN-RED-IR","441830","513285","906537","56.436340","30.369720","0.015065","474540","694462","765871","44.983864","22.451200","0.018081","563798","725527","816847","39.390812","18.740134","0.020011","595232","774115","866203","33.143806","14.895947","0.022861","558093","754795","956368","23.956028","9.796919","0.029266","2090","7569","13952","2351","7484","12598","2421","7147","11435","2619","7129","10810","2861","6828","9572","DualSpot on"
"MA200-0416","60282","124","1","1.10","1.6","2023-08-25T23:35:01","120","2023/08/25","23:35:01","-15.787098109722137","35.035291992127895","0.3","12","300","64","99","-1264","24512","-1643","7","150","150.37","122.33","28.04","26.38","33.4","8.98","89184","26.13","DUALSPOT-UV-BLUE-GREEN-RED-IR","439857","511462","906428","56.871148","30.716954","0.014836","472670","692485","765849","45.374456","22.728228","0.017797","561507","723457","816514","39.753132","18.979158","0.019679","592717","771856","865378","33.468682","15.092552","0.022384","556419","753465","955976","24.211144","9.928938","0.028113","2087","7272","13362","2367","7323","12297","2459","7076","11294","2664","7033","10622","2913","6576","9123","DualSpot on"
"MA200-0416","60283","124","1","1.10","1.6","2023-08-25T23:40:01","120","2023/08/25","23:40:01","-15.787154138088226","35.03524566069245","0.2","12","300","64","98","-1392","24548","-1572","7","150","150.64","122.27","28.36","26.37","33.5","9.00","89184","26.13","DUALSPOT-UV-BLUE-GREEN-RED-IR","436991","508536","904255","57.283280","31.048030","0.014720","470278","689731","764802","45.742380","22.990188","0.017625","558538","720473","814955","40.094352","19.205528","0.019484","589023","767943","862597","33.774164","15.278484","0.022142","553831","750806","953781","24.452358","10.056633","0.028028","1979","6856","12627","2230","6847","11511","2316","6626","10588","2506","6577","9939","2755","6289","8758","DualSpot on"
"MA200-0416","60284","124","1","1.10","1.6","2023-08-25T23:45:01","120","2023/08/25","23:45:01","-15.787051975727081","35.03526999056339","0.3","12","300","64","98","-1316","24492","-1504","7","150","150.43","121.96","28.47","26.37","33.5","9.00","89176","26.06","DUALSPOT-UV-BLUE-GREEN-RED-IR","436055","507788","905742","57.670144","31.365372","0.014677","468987","688509","765334","46.090432","23.239586","0.017503","557822","720297","816530","40.416704","19.421844","0.019373","589332","769200","865533","34.063940","15.456851","0.022010","553721","751466","955820","24.683330","10.179661","0.027778","1863","6546","12131","2115","6493","10946","2194","6307","10113","2383","6285","9526","2645","6036","8416","DualSpot on"
"MA200-0416","60285","124","1","1.10","1.6","2023-08-25T23:50:01","120","2023/08/25","23:50:01","-15.787200033664703","35.0352033264935","0.1","11","300","64","99","-1264","24524","-1708","7","150","149.94","122.00","27.93","26.34","33.5","8.98","89172","26.06","DUALSPOT-UV-BLUE-GREEN-RED-IR","434167","505957","905225","58.042900","31.666484","0.014604","467246","686604","765081","46.429828","23.483880","0.017503","555534","718118","815732","40.728332","19.628350","0.019280","586603","766462","863960","34.347396","15.629419","0.021915","551874","749740","954756","24.907234","10.299330","0.027890","1794","6331","11778","2062","6483","11007","2120","6137","9874","2330","6197","9426","2563","5984","8396","DualSpot on"
"MA200-0416","60286","124","1","1.10","1.6","2023-08-25T23:55:01","120","2023/08/25","23:55:01","-15.787022650241852","35.03529182821512","0.3","11","300","68","98","-1284","24464","-1560","8","150","150.30","117.77","32.53","26.30","33.8","9.08","89164","26.00","DUALSPOT-UV-BLUE-GREEN-RED-IR","784113","701728","911957","0.000000","0.000000","0.000000","744061","871170","765410","0.000000","0.000000","0.000000","834647","876187","815707","0.000000","0.000000","0.000000","825629","897840","863430","0.000000","0.000000","0.000000","707289","833348","954769","0.000000","0.000000","0.000000","","","","","","","","","","","","","","","","Tape advance-DualSpot on"
"MA200-0416","60287","124","1","1.10","1.6","2023-08-26T00:00:01","120","2023/08/26","00:00:01","-15.787085950374603","35.03529332950711","0.1","10","300","68","98","-1296","24708","-1943","8","150","149.34","117.88","31.46","26.22","34.0","9.09","89160","25.94","DUALSPOT-UV-BLUE-GREEN-RED-IR","772356","696849","909166","0.000000","0.000000","0.000000","735705","866281","763205","0.000000","0.000000","0.000000","828377","873676","815182","0.000000","0.000000","0.000000","820463","895481","862607","0.000000","0.000000","0.000000","704580","832013","954186","0.000000","0.000000","0.000000","","","","","","","","","","","","","","","","Tape advance-DualSpot on"
"MA200-0416","60288","124","1","1.10","1.6","2023-08-26T00:05:01","120","2023/08/26","00:05:01","-15.787125706672668","35.03524332866073","0.1","10","300","64","98","-1376","24620","-1492","8","150","149.94","117.79","32.14","26.17","34.2","9.13","89152","25.88","DUALSPOT-UV-BLUE-GREEN-RED-IR","761515","692330","906584","1.133731","0.373306","0.000000","728623","862640","761995","0.805416","0.262040","0.000000","821699","870549","813951","0.659620","0.212543","0.000000","814758","892359","861017","0.514259","0.163978","0.000000","701160","829781","952539","0.314266","0.095417","0.000000","5653","6821","5653","5068","6043","5068","4649","5489","4649","4380","5118","4380","3726","4146","3726","DualSpot on"
"MA200-0416","60289","124","1","1.10","1.6","2023-08-26T00:10:01","120","2023/08/26","00:10:01","-15.787172675132751","35.03524732589722","0.0","10","300","64","99","-1288","24540","-1627","8","150","149.76","118.38","31.39","26.13","34.3","9.16","89144","25.88","DUALSPOT-UV-BLUE-GREEN-RED-IR","753811","690116","906886","2.184883","0.724496","0.000000","723430","860812","762258","1.557458","0.508773","0.000000","820923","873371","818248","1.278692","0.411981","0.000000","815570","896200","866029","0.994754","0.316768","0.000000","699050","829041","952556","0.614631","0.185881","0.000000","5215","6572","5215","4709","5827","4709","4341","5275","4341","4072","4883","4072","3544","4026","3544","DualSpot on"
"MA200-0416","60290","124","1","1.10","1.6","2023-08-26T00:15:01","120","2023/08/26","00:15:01","-15.787033319473267","35.03533248975873","0.1","10","300","64","99","-1423","24638","-1226","8","150","149.53","118.25","31.27","26.09","34.3","9.14","89144","25.81","DUALSPOT-UV-BLUE-GREEN-RED-IR","742762","684531","902711","3.194816","1.076126","0.101125","720003","860877","764210","2.284137","0.755411","0.000000","814187","869654","816394","1.876807","0.611537","0.000000","808374","891089","862412","1.465334","0.470536","0.000000","695415","826356","950329","0.908517","0.278720","0.000000","5016","6604","7410","4555","5846","4555","4199","5297","4199","3992","4932","3992","3471","4147","3471","DualSpot on"
"MA200-0416","60291","124","1","1.10","1.6","2023-08-26T00:20:01","120","2023/08/26","00:20:01","-15.787117719650269","35.03528082370758","0.0","11","300","64","99","-1300","24569","-1653","8","150","149.70","118.81","30.88","26.07","34.3","9.11","89144","25.75","DUALSPOT-UV-BLUE-GREEN-RED-IR","742250","688271","910730","4.151851","1.414197","0.084910","715557","859454","764729","2.978293","0.994330","0.000000","810102","868580","816952","2.453048","0.806003","0.000000","807036","892312","864914","1.920688","0.620538","0.000000","694506","826918","951878","1.194040","0.367433","0.000000","4731","6429","7307","4331","5735","4331","4026","5227","4026","3845","4872","3845","3357","4012","3357","DualSpot on"
"MA200-0416","60292","124","1","1.10","1.6","2023-08-26T00:25:01","120","2023/08/26","00:25:01","-15.787168085575104","35.035296991467476","0.1","11","300","64","98","-1192","24588","-1436","8","150","149.09","121.03","28.06","26.04","34.3","9.10","89136","25.75","DUALSPOT-UV-BLUE-GREEN-RED-IR","732503","683306","907146","5.081491","1.744442","0.088088","708609","854970","762506","3.662806","1.227289","0.112758","803724","865049","815175","3.024177","0.995987","0.130044","799501","886684","860749","2.372310","0.766557","0.000000","690241","823479","948740","1.482736","0.456868","0.000000","4511","6912","8167","4192","6154","7143","3917","5621","6457","3743","5220","3743","3332","4452","3332","DualSpot on"
"MA200-0416","60293","124","1","1.10","1.6","2023-08-26T00:30:01","120","2023/08/26","00:30:01","-15.787165641784668","35.035349156707525","0.1","11","300","64","98","-1272","24488","-1308","8","150","149.90","120.66","29.23","26.02","34.3","9.05","89140","25.75","DUALSPOT-UV-BLUE-GREEN-RED-IR","727183","682263","908722","5.980600","2.069261","0.071708","704621","853843","763312","4.329126","1.459741","0.092144","800050","864289","815988","3.581601","1.184988","0.104363","796872","886431","861710","2.817383","0.912821","0.000000","689010","823604","949711","1.765602","0.545668","0.000000","4376","6525","7663","4093","5894","6810","3835","5367","6124","3700","5019","3700","3274","4243","3274","DualSpot on"
"MA200-0416","60294","124","1","1.10","1.6","2023-08-26T00:35:01","120","2023/08/26","00:35:01","-15.787194073200226","35.03531466051936","0.1","11","300","64","99","-1376","24628","-1364","8","150","149.99","120.60","29.39","25.96","34.2","8.99","89132","25.63","DUALSPOT-UV-BLUE-GREEN-RED-IR","718133","677791","905913","6.921406","2.416828","0.063905","702642","855301","766480","5.025451","1.705849","0.080686","794516","861590","815072","4.163829","1.385724","0.092092","792105","883823","860530","3.279572","1.068276","0.109974","691038","827736","955402","2.063430","0.639928","0.000000","4582","6947","8216","4280","6208","7199","4008","5671","6501","3844","5307","6014","3449","4481","3449","DualSpot on"
"MA200-0416","60295","124","1","1.10","1.6","2023-08-26T00:40:01","120","2023/08/26","00:40:01","-15.787049293518066","35.035338658839464","0.0","11","300","64","99","-1276","24924","-1843","8","150","150.28","121.07","29.21","25.89","34.4","8.97","89132","25.56","DUALSPOT-UV-BLUE-GREEN-RED-IR","714029","678196","909927","7.940521","2.801143","0.058572","695498","850652","764390","5.779679","1.978373","0.074503","787771","857743","813251","4.795368","1.607012","0.084401","791164","885714","863868","3.782851","1.240897","0.101884","687244","824992","953180","2.382270","0.741836","0.000000","4944","7726","9243","4618","6915","8110","4330","6288","7275","4170","5928","6785","3678","4872","3678","DualSpot on"
"MA200-0416","60296","124","1","1.10","1.6","2023-08-26T00:45:01","120","2023/08/26","00:45:01","-15.787216901779175","35.03525849059224","0.3","11","300","64","98","-1300","24516","-1388","8","150","149.96","120.82","29.14","25.80","34.4","8.93","89136","25.50","DUALSPOT-UV-BLUE-GREEN-RED-IR","705384","674213","908171","8.961706","3.192266","0.053273","689187","847033","763289","6.541011","2.257209","0.067564","785917","859265","816558","5.434798","1.834493","0.076851","785085","881870","861634","4.294984","1.417666","0.091178","683965","822849","951719","2.710220","0.847407","0.000000","4964","7883","9499","4671","7093","8370","4393","6481","7545","4252","6086","6989","3791","5061","3791","DualSpot on"
"MA200-0416","60297","124","1","1.10","1.6","2023-08-26T00:50:01","120","2023/08/26","00:50:01","-15.78717303276062","35.03525732457638","0.0","12","300","64","99","-1272","24483","-1561","8","150","150.49","121.07","29.42","25.73","34.4","8.87","89140","25.38","DUALSPOT-UV-BLUE-GREEN-RED-IR","695453","668968","904675","9.997736","3.593683","0.048139","685676","846881","765336","7.318704","2.542853","0.060030","779716","856117","815440","6.088639","2.066862","0.067628","784797","884569","865811","4.819812","1.597648","0.079006","684310","825174","955433","3.047691","0.955796","0.104686","5026","8013","9689","4761","7197","8493","4483","6556","7622","4349","6137","7023","3893","5146","5718","DualSpot on"
"MA200-0416","60298","124","1","1.10","1.6","2023-08-26T00:55:01","120","2023/08/26","00:55:01","-15.787201344966888","35.03527765721083","0.1","12","300","64","98","-1240","24604","-1656","8","150","149.94","121.41","28.53","25.64","34.4","8.79","89132","25.31","DUALSPOT-UV-BLUE-GREEN-RED-IR","691205","668995","908497","11.030132","4.004909","0.047312","678804","842450","763549","8.095067","2.835071","0.059399","773161","852415","813889","6.743860","2.306151","0.067790","778573","880566","863518","5.347090","1.784485","0.080902","680943","822980","953968","3.387615","1.068183","0.110058","4994","8466","10445","4740","7593","9131","4480","6963","8254","4357","6570","7679","3911","5503","6236","DualSpot on"
"MA200-0416","60299","124","1","1.10","1.6","2023-08-26T01:00:01","120","2023/08/26","01:00:01","-15.7871453166008","35.03530499711633","0.0","12","300","64","99","-1261","24503","-1634","8","150","149.96","121.43","28.53","25.56","34.5","8.74","89128","25.19","DUALSPOT-UV-BLUE-GREEN-RED-IR","681410","663471","904631","12.033407","4.413944","0.044650","675597","842394","765739","8.855804","3.128028","0.056120","770734","853209","816574","7.386427","2.545231","0.063768","776643","881293","865846","5.866081","1.970958","0.075609","676772","819743","951283","3.724067","1.181138","0.103594","4852","8420","10487","4644","7612","9232","4393","6957","8305","4287","6557","7705","3870","5530","6301","DualSpot on"
"MA200-0416","60300","124","1","1.10","1.6","2023-08-26T01:05:01","120","2023/08/26","01:05:01","-15.78714519739151","35.035262160003185","0.2","12","300","64","98","-1240","24452","-1572","8","150","149.73","121.18","28.55","25.46","34.5","8.67","89120","25.13","DUALSPOT-UV-BLUE-GREEN-RED-IR","679615","665571","911168","13.017593","4.817186","0.041470","669887","839167","764995","9.609030","3.418183","0.051658","764986","850203","815686","8.025918","2.783626","0.058723","770651","877424","863652","6.383985","2.157032","0.069270","677234","822159","955155","4.059349","1.291621","0.090889","4770","8295","10366","4607","7533","9149","4381","6932","8286","4287","6538","7687","3865","5405","6124","DualSpot on"
"MA200-0416","60301","124","1","1.10","1.6","2023-08-26T01:10:01","120","2023/08/26","01:10:01","-15.787250816822052","35.035284996032715","0.0","10","300","64","99","-1332","24524","-1548","8","150","150.23","121.08","29.16","25.38","34.5","8.61","89112","25.00","DUALSPOT-UV-BLUE-GREEN-RED-IR","670548","660297","907567","13.964186","5.214802","0.038883","662556","833618","762121","10.332635","3.704744","0.048508","758986","846813","814305","8.644163","3.019511","0.054741","764437","873087","860953","6.884367","2.341401","0.064708","673938","819934","953605","4.385929","1.401336","0.083758","4591","8010","10047","4430","7286","8882","4239","6716","8047","4146","6344","7477","3767","5256","5955","DualSpot on"
"MA200-0416","60302","124","1","1.10","1.6","2023-08-26T01:15:01","120","2023/08/26","01:15:01","-15.787212669849396","35.035280488431454","0.1","10","300","64","98","-1268","24492","-1544","8","150","149.54","120.79","28.75","25.25","34.6","8.52","89104","24.88","DUALSPOT-UV-BLUE-GREEN-RED-IR","663620","656984","906605","14.896593","5.613575","0.037670","662307","836894","767341","11.049152","3.993094","0.047028","755124","845649","815141","9.253964","3.256279","0.053319","761759","872748","862267","7.381731","2.528172","0.063359","672604","820062","954847","4.711334","1.513835","0.084906","4533","8146","10331","4397","7434","9153","4191","6837","8273","4130","6517","7760","3763","5466","6272","DualSpot on"
"MA200-0416","60303","124","1","1.10","1.6","2023-08-26T01:20:01","120","2023/08/26","01:20:01","-15.787241101264954","35.035287491977215","0.0","10","300","64","99","-1456","24488","-1340","8","150","149.57","121.07","28.50","25.17","34.7","8.48","89112","24.75","DUALSPOT-UV-BLUE-GREEN-RED-IR","655928","652730","904313","15.810490","6.008785","0.036338","656334","832824","765793","11.756461","4.278839","0.045051","749669","842625","814136","9.857643","3.491622","0.051125","761309","874917","865971","7.876116","2.712649","0.059880","669421","817930","953409","5.034607","1.623632","0.078511","4433","8145","10420","4331","7433","9207","4139","6856","8345","4096","6494","7753","3730","5382","6168","DualSpot on"
"MA200-0416","60304","124","1","1.10","1.6","2023-08-26T01:25:01","120","2023/08/26","01:25:01","-15.787157416343689","35.03525999560952","0.0","10","300","64","99","-1452","24048","-1652","8","150","150.35","121.03","29.32","25.03","34.9","8.45","89112","24.63","DUALSPOT-UV-BLUE-GREEN-RED-IR","652337","652494","907612","16.725632","6.409118","0.033865","649852","828036","763646","12.465557","4.572076","0.042319","747617","843431","816889","10.467084","3.732639","0.047359","754423","869719","862479","8.378356","2.904564","0.055992","665767","815252","951368","5.367561","1.738707","0.072083","4441","8019","10243","4343","7414","9193","4180","6824","8290","4163","6567","7842","3843","5482","6268","DualSpot on"
"MA200-0416","60305","124","1","1.10","1.6","2023-08-26T01:30:01","120","2023/08/26","01:30:01","-15.787140786647797","35.03529266268015","0.1","10","300","64","98","-1334","24665","-1211","8","150","150.56","121.20","29.36","24.90","35.1","8.41","89116","24.50","DUALSPOT-UV-BLUE-GREEN-RED-IR","647443","650783","908786","17.605378","6.801891","0.032867","645663","826025","763934","13.150805","4.856265","0.040314","740769","838658","814165","11.057882","3.969466","0.045686","750957","868319","862701","8.862258","3.090906","0.053605","664297","815114","952314","5.688766","1.851435","0.070201","4263","7856","10118","4191","7174","8921","4047","6695","8179","4005","6366","7630","3702","5362","6163","DualSpot on"
"MA200-0416","60306","124","1","1.10","1.6","2023-08-26T01:35:01","120","2023/08/26","01:35:01","-15.787180721759796","35.03528315573931","0.1","10","300","64","99","-1296","24548","-1619","8","150","149.50","120.75","28.75","24.78","35.3","8.39","89116","24.38","DUALSPOT-UV-BLUE-GREEN-RED-IR","641484","647848","908212","18.464924","7.190563","0.032253","640864","823101","763404","13.827057","5.140447","0.039708","736037","836184","813689","11.641348","4.205978","0.044991","747195","866516","862501","9.345431","3.277635","0.052401","662356","814446","952559","6.008686","1.963103","0.068068","4181","7940","10337","4151","7327","9206","4011","6829","8423","4014","6516","7867","3701","5425","6262","DualSpot on"
"MA200-0416","60307","124","1","1.10","1.6","2023-08-26T01:40:01","120","2023/08/26","01:40:01","-15.78723829984665","35.03527549281716","0.2","11","300","64","98","-1344","24332","-1528","8","150","150.35","121.24","29.11","24.71","35.6","8.45","89104","24.31","DUALSPOT-UV-BLUE-GREEN-RED-IR","633862","643101","905061","19.316684","7.579342","0.030914","635058","818790","761573","14.494377","5.423200","0.037935","734523","837357","816730","12.219211","4.440123","0.042486","747372","869247","866874","9.823680","3.463482","0.049723","659291","812369","951183","6.330669","2.076018","0.064214","4126","7843","10243","4080","7199","9064","3957","6676","8229","3957","6404","7736","3710","5417","6251","DualSpot on"
"MA200-0416","60308","124","1","1.10","1.6","2023-08-26T01:45:01","120","2023/08/26","01:45:01","-15.787247955799103","35.03527882322669","0.0","11","300","64","99","-1260","24672","-1600","8","150","150.24","121.34","28.90","24.64","35.8","8.48","89104","24.25","DUALSPOT-UV-BLUE-GREEN-RED-IR","631986","644037","909867","20.144168","7.962551","0.030261","633641","820030","764879","15.151077","5.705642","0.037209","729378","834251","815622","12.783529","4.672456","0.041809","741308","864678","863862","10.293449","3.647130","0.048406","659403","814177","954411","6.646789","2.189253","0.064540","4005","7787","10260","4012","7244","9197","3861","6673","8294","3884","6375","7741","3639","5473","6373","DualSpot on"
"MA200-0416","60309","124","1","1.10","1.6","2023-08-26T01:50:01","120","2023/08/26","01:50:01","-15.787262320518494","35.03528115898371","0.2","11","300","64","99","-1312","24660","-1548","8","150","150.42","121.47","28.95","24.59","35.9","8.49","89108","24.19","DUALSPOT-UV-BLUE-GREEN-RED-IR","624294","638974","906128","20.955944","8.341285","0.029304","628245","816000","763243","15.791218","5.982763","0.035969","724156","830996","814262","13.339388","4.901189","0.040082","736379","861303","862077","10.754292","3.827961","0.046587","656470","812197","953136","6.961918","2.300630","0.060206","3925","7685","10171","3906","7097","9043","3799","6560","8164","3806","6267","7627","3624","5375","6239","DualSpot on"
"MA200-0416","60310","124","1","1.10","1.6","2023-08-26T01:55:01","120","2023/08/26","01:55:01","-15.787231504917145","35.03532565757632","0.1","11","300","64","99","-1136","24648","-2868","8","150","150.21","121.15","29.06","24.53","36.0","8.48","89108","24.13","DUALSPOT-UV-BLUE-GREEN-RED-IR","618351","635572","904645","21.748936","8.711071","0.028122","623004","812067","761598","16.420649","6.254315","0.034305","719325","828081","813276","13.885928","5.127024","0.038453","736545","863889","866210","11.208704","4.005371","0.044081","653669","810351","952025","7.271347","2.409036","0.056091","3844","7473","9898","3851","6927","8819","3745","6451","8036","3763","6124","7438","3567","5211","6025","DualSpot on"
"MA200-0416","60311","124","1","1.10","1.6","2023-08-26T02:00:01","120","2023/08/26","02:00:01","-15.787189483642578","35.03529715910554","0.1","12","300","64","99","-1308","24416","-1668","8","150","150.28","121.58","28.71","24.46","36.2","8.49","89104","24.06","DUALSPOT-UV-BLUE-GREEN-RED-IR","618249","638022","911534","22.524758","9.083942","0.028166","618426","808863","760658","17.032142","6.524539","0.034380","715431","826129","813166","14.419023","5.350238","0.038249","732832","861840","865656","11.651016","4.181156","0.044280","651565","809310","951786","7.572849","2.517826","0.058335","3748","7629","10252","3728","6978","8996","3640","6455","8117","3650","6143","7539","3464","5294","6205","DualSpot on"
"MA200-0416","60312","124","1","1.10","1.6","2023-08-26T02:05:01","120","2023/08/26","02:05:01","-15.787124454975128","35.035292495042086","0.1","12","300","64","99","-1296","24488","-1700","8","150","150.36","121.96","28.41","24.38","36.3","8.44","89096","24.00","DUALSPOT-UV-BLUE-GREEN-RED-IR","610574","632569","907010","23.273648","9.444103","0.027576","616997","809675","763419","17.626204","6.787598","0.033721","714383","827440","816213","14.935822","5.569041","0.037890","727819","858174","863491","12.083509","4.355620","0.044162","648753","807335","950536","7.870205","2.625740","0.057908","3606","7446","10068","3611","6864","8902","3518","6394","8104","3557","6161","7628","3406","5306","6258","DualSpot on"
"MA200-0416","60313","124","1","1.10","1.6","2023-08-26T02:10:01","120","2023/08/26","02:10:01","-15.787111580371857","35.03531965985894","0.3","12","300","64","99","-1360","24432","-1460","8","150","149.43","121.45","27.98","24.28","36.2","8.35","89092","23.88","DUALSPOT-UV-BLUE-GREEN-RED-IR","606504","630875","907956","24.046814","9.815449","0.026908","613576","807943","763919","18.246980","7.062781","0.032953","707614","822151","812858","15.476747","5.797732","0.036950","725529","857838","864718","12.540749","4.538403","0.042693","647151","807002","951205","8.188518","2.737688","0.053946","3739","7796","10594","3789","7291","9503","3697","6786","8636","3777","6554","8129","3661","5589","6558","DualSpot on"
"MA200-0416","60314","124","1","1.10","1.6","2023-08-26T02:15:01","120","2023/08/26","02:15:01","-15.787120282649994","35.03529282659292","0.0","12","300","64","99","-1140","24448","-1540","8","150","149.70","121.63","28.06","24.16","36.2","8.22","89096","23.75","DUALSPOT-UV-BLUE-GREEN-RED-IR","600279","626795","905515","24.814690","10.196541","0.026657","608539","804052","762382","18.869422","7.346386","0.032584","706765","823718","816375","16.027061","6.037032","0.036605","719578","853109","861609","13.007870","4.729924","0.042264","647855","809550","955358","8.517807","2.857780","0.054751","3707","7976","10953","3793","7491","9849","3756","7079","9087","3852","6846","8557","3781","5978","7086","DualSpot on"
"MA200-0416","60315","124","1","1.10","1.6","2023-08-26T02:20:01","120","2023/08/26","02:20:01","-15.787125825881958","35.03530249372125","0.0","12","300","64","99","-1248","24576","-1408","8","150","149.83","122.69","27.14","24.03","36.3","8.16","89096","23.63","DUALSPOT-UV-BLUE-GREEN-RED-IR","597545","626295","908208","25.563884","10.571453","0.026707","606636","804174","764658","19.479718","7.628101","0.032909","701246","819764","814358","16.566839","6.273586","0.036955","718510","854159","864330","13.468033","4.922162","0.043314","643951","806357","952724","8.841278","2.975692","0.055876","3586","8113","11305","3687","7694","10273","3652","7235","9419","3762","7105","9031","3683","6068","7279","DualSpot on"
"MA200-0416","60316","124","1","1.10","1.6","2023-08-26T02:25:01","120","2023/08/26","02:25:01","-15.787211060523987","35.035282488912344","0.1","12","300","64","99","-1088","24988","-1708","8","150","149.62","123.94","25.68","23.94","36.5","8.14","89096","23.50","DUALSPOT-UV-BLUE-GREEN-RED-IR","590780","621589","904839","26.331986","10.959099","0.026999","601060","799477","762360","20.105536","7.915544","0.033197","699572","820339","816960","17.120790","6.516480","0.037566","717516","855329","867229","13.941172","5.118348","0.043952","643667","807724","955518","9.177711","3.100177","0.059133","3640","8866","12592","3743","8298","11256","3710","7853","10398","3829","7665","9889","3792","6772","8292","DualSpot on"
"MA200-0416","60317","124","1","1.10","1.6","2023-08-26T02:30:01","120","2023/08/26","02:30:01","-15.787164330482483","35.03528882563114","0.1","12","300","64","98","-1352","24680","-1668","8","150","149.70","124.15","25.55","23.80","36.6","8.06","89092","23.38","DUALSPOT-UV-BLUE-GREEN-RED-IR","588232","621251","908023","27.114098","11.359409","0.026519","598613","798952","764166","20.746068","8.217311","0.032825","694429","816860","815567","17.688970","6.770831","0.037065","710992","849946","863517","14.428587","5.323833","0.043267","640018","804900","953404","9.527031","3.230194","0.057753","3700","9202","13169","3824","8755","11989","3799","8265","11034","3938","8068","10483","3930","7108","8739","DualSpot on"
"MA200-0416","60318","124","1","1.10","1.6","2023-08-26T02:35:01","120","2023/08/26","02:35:01","-15.787188231945038","35.03525549173355","0.1","12","300","64","99","-1430","24492","-2007","8","150","149.76","124.15","25.62","23.69","36.8","8.04","89096","23.25","DUALSPOT-UV-BLUE-GREEN-RED-IR","585287","620654","911022","27.946278","11.787361","0.025790","592549","793705","761606","21.425710","8.538545","0.031837","692381","817235","818164","18.299488","7.044972","0.035884","709480","850726","866283","14.957903","5.548943","0.041973","636469","802399","951805","9.915874","3.372795","0.054547","3937","9812","14098","4058","9296","12767","4082","8885","11891","4277","8816","11493","4375","7776","9529","DualSpot on"
"MA200-0416","60319","124","1","1.10","1.6","2023-08-26T02:40:01","120","2023/08/26","02:40:01","-15.787138164043427","35.03528282418847","0.2","12","300","64","99","-1146","24692","-1984","8","150","150.72","124.64","26.08","23.58","36.9","8.01","89096","23.19","DUALSPOT-UV-BLUE-GREEN-RED-IR","577629","614888","906380","28.754180","12.210617","0.025154","589830","792793","763137","22.091282","8.857328","0.030904","686573","813018","816127","18.895040","7.314090","0.034623","703487","846056","863438","15.478865","5.771105","0.040273","635779","803471","954456","10.302021","3.518245","0.053248","3807","9532","13757","3958","9061","12476","3966","8567","11472","4193","8546","11134","4327","7790","9586","DualSpot on"
"MA200-0416","60320","124","1","1.10","1.6","2023-08-26T02:45:01","120","2023/08/26","02:45:01","-15.787100493907928","35.03529566153884","0.1","10","300","64","99","-1304","24700","-1672","8","150","149.83","123.82","26.01","23.51","37.2","8.04","89092","23.13","DUALSPOT-UV-BLUE-GREEN-RED-IR","571362","610545","903759","29.554954","12.630852","0.024481","584898","788877","761791","22.755400","9.174389","0.029919","681770","809964","815285","19.491936","7.584893","0.033607","698399","842407","861599","15.995998","5.990702","0.038778","632912","801800","953859","10.688026","3.663231","0.051023","3798","9491","13739","3976","9038","12457","4002","8645","11602","4190","8471","11035","4354","7787","9578","DualSpot on"
"MA200-0416","60321","124","1","1.10","1.6","2023-08-26T02:50:01","120","2023/08/26","02:50:01","-15.787091493606567","35.03531466051936","0.0","11","300","64","99","-1492","24400","-1732","8","150","150.05","124.36","25.69","23.45","37.5","8.12","89092","23.06","DUALSPOT-UV-BLUE-GREEN-RED-IR","569773","611179","908647","30.374478","13.062958","0.024082","583238","789461","764892","23.444200","9.507436","0.029553","676096","805934","813488","20.111288","7.868585","0.033149","698161","844718","865986","16.534510","6.224529","0.038627","629245","799082","952060","11.086994","3.816805","0.051267","3870","9880","14415","4106","9611","13367","4134","9169","12404","4344","9132","12023","4481","8351","10383","DualSpot on"
"MA200-0416","60322","124","1","1.10","1.6","2023-08-26T02:55:01","120","2023/08/26","02:55:01","-15.78708928823471","35.03532148897648","0.1","11","300","64","99","-1752","24544","-1440","8","150","150.31","124.87","25.44","23.40","37.9","8.23","89092","23.00","DUALSPOT-UV-BLUE-GREEN-RED-IR","564968","608219","907989","31.145446","13.474083","0.023771","579254","786682","764599","24.093050","9.821392","0.029011","672267","803868","813589","20.692858","8.133718","0.032428","694182","842314","865390","17.037692","6.438805","0.037374","626440","797335","951326","11.456837","3.956590","0.049445","3626","9493","13966","3852","9149","12795","3866","8653","11753","4042","8451","11129","4137","7676","9543","DualSpot on"
"MA200-0416","60323","124","1","1.10","1.6","2023-08-26T03:00:01","120","2023/08/26","03:00:01","-15.787056267261505","35.03539299219847","0.1","12","300","64","98","-1342","24684","-1257","8","150","150.03","124.47","25.56","23.39","38.2","8.34","89092","23.00","DUALSPOT-UV-BLUE-GREEN-RED-IR","560513","605407","907241","31.859498","13.859108","0.023295","575576","784066","764244","24.684800","10.109044","0.028294","668410","801574","813202","21.221734","8.375982","0.031589","690112","839587","864249","17.493280","6.633771","0.036352","624206","796183","951111","11.790424","4.081644","0.047337","3369","8849","13067","3524","8344","11686","3527","7870","10701","3672","7653","10086","3743","6835","8472","DualSpot on"
"MA200-0416","60324","124","1","1.10","1.6","2023-08-26T03:05:01","120","2023/08/26","03:05:01","-15.787128806114197","35.03531615808606","0.1","12","300","64","99","-1076","24404","-2076","8","150","149.87","124.13","25.74","23.41","38.5","8.47","89092","23.06","DUALSPOT-UV-BLUE-GREEN-RED-IR","558058","604664","909590","32.557086","14.239960","0.022843","573428","783405","765753","25.252078","10.388947","0.027756","665747","800520","814041","21.725136","8.608336","0.030839","687894","838949","865193","17.927930","6.819921","0.035266","622924","796146","952235","12.111538","4.201780","0.045561","3300","8690","12879","3387","8061","11327","3367","7494","10202","3513","7255","9552","3613","6519","8063","DualSpot on"
"MA200-0416","60325","124","1","1.10","1.6","2023-08-26T03:10:01","120","2023/08/26","03:10:01","-15.7870152592659","35.035330157727","0.1","12","300","64","99","-1088","24611","-1488","8","150","150.01","123.87","26.13","23.44","38.6","8.54","89100","23.13","DUALSPOT-UV-BLUE-GREEN-RED-IR","554537","602553","909478","33.174308","14.578087","0.022310","570463","781352","765647","25.756824","10.637486","0.026960","662838","798979","814159","22.173984","8.815050","0.029880","685750","838236","865900","18.317412","6.984978","0.033838","621152","795320","952295","12.401592","4.309927","0.043576","2926","7599","11262","3020","7050","9884","3008","6566","8914","3154","6336","8297","3271","5780","7117","DualSpot on"
"MA200-0416","60326","124","1","1.10","1.6","2023-08-26T03:15:01","120","2023/08/26","03:15:01","-15.787104904651642","35.03531316295266","0.0","12","300","64","99","-1468","24468","-756","8","150","149.61","124.01","25.59","23.46","38.7","8.59","89100","23.13","DUALSPOT-UV-BLUE-GREEN-RED-IR","551027","600323","909031","33.762128","14.902325","0.022204","564212","774653","760909","26.240894","10.877079","0.026861","659704","797033","813813","22.607518","9.015742","0.029814","682803","836410","865385","18.689782","7.144006","0.033913","619082","794028","951760","12.679329","4.415949","0.044633","2784","7441","11120","2893","6939","9804","2902","6510","8903","3012","6233","8227","3128","5786","7207","DualSpot on"
"MA200-0416","60327","124","1","1.10","1.6","2023-08-26T03:20:01","120","2023/08/26","03:20:01","-15.787095129489899","35.03530748933554","0.0","12","300","64","99","-1207","24561","-1657","8","150","150.37","124.18","26.18","23.49","38.8","8.66","89100","23.13","DUALSPOT-UV-BLUE-GREEN-RED-IR","546023","596483","906319","34.373796","15.241985","0.021699","563320","775400","763590","26.750496","11.132300","0.026242","657796","796693","815200","23.063438","9.228460","0.029010","676859","830980","861240","19.085640","7.315368","0.033043","618506","794751","953674","12.974075","4.528105","0.042606","2893","7618","11384","3042","7225","10207","3048","6744","9210","3198","6565","8658","3315","5983","7413","DualSpot on"
"MA200-0416","60328","124","1","1.10","1.6","2023-08-26T03:25:01","120","2023/08/26","03:25:01","-15.787048280239105","35.03529682382941","0.1","13","300","64","98","-916","24736","-1472","8","150","150.09","124.63","25.46","23.51","39.0","8.74","89108","23.13","DUALSPOT-UV-BLUE-GREEN-RED-IR","542793","594333","905802","34.912776","15.546856","0.021805","560432","773145","763142","27.206732","11.366195","0.026525","655682","795794","815867","23.474170","9.425999","0.029545","674985","830326","861922","19.444202","7.475181","0.033816","616986","794124","953917","13.244884","4.632782","0.043673","2540","7033","10640","2713","6810","9749","2736","6441","8927","2886","6297","8428","3035","5743","7200","DualSpot on"
"MA200-0416","60329","124","1","1.10","1.6","2023-08-26T03:30:01","120","2023/08/26","03:30:01","-15.78700053691864","35.03528632596135","0.0","13","300","64","98","-1076","24836","-1692","8","150","150.36","124.71","25.65","23.51","39.1","8.80","89112","23.19","DUALSPOT-UV-BLUE-GREEN-RED-IR","540523","593124","906476","35.405200","15.825695","0.021470","558298","771774","763405","27.622942","11.577523","0.025939","653454","794655","816176","23.848082","9.603775","0.028809","673760","830359","863204","19.770726","7.619610","0.032965","612934","790077","949958","13.491402","4.728637","0.042854","2319","6384","9669","2474","6106","8727","2489","5753","7953","2626","5648","7542","2761","5219","6546","DualSpot on"
"MA200-0416","60330","124","1","1.10","1.6","2023-08-26T03:35:01","120","2023/08/26","03:35:01","-15.787091851234436","35.035291492938995","0.2","12","300","64","99","-1328","24636","-1984","8","150","149.99","123.97","26.01","23.50","39.2","8.80","89112","23.19","DUALSPOT-UV-BLUE-GREEN-RED-IR","538055","591585","906543","35.869892","16.091045","0.021115","556081","770183","763335","28.015462","11.778993","0.025483","651014","793183","816041","24.202478","9.773808","0.028235","671209","828602","862563","20.080596","7.756876","0.032082","614471","793201","954604","13.724323","4.819063","0.041326","2201","5991","9075","2347","5741","8204","2373","5427","7495","2507","5294","7048","2624","4856","6063","DualSpot on"
"MA200-0416","60331","124","1","1.10","1.6","2023-08-26T03:40:01","120","2023/08/26","03:40:01","-15.787112951278687","35.03524048998952","0.1","12","300","64","98","-1512","24608","-1544","8","150","150.56","124.59","25.97","23.50","39.3","8.86","89112","23.13","DUALSPOT-UV-BLUE-GREEN-RED-IR","534589","588900","904671","36.312116","16.342087","0.020878","553216","767570","762194","28.386554","11.969370","0.025240","648610","791587","815727","24.538114","9.935742","0.028056","668990","827232","862255","20.373970","7.887670","0.031913","612940","792239","954255","13.945004","4.904087","0.040653","2084","5678","8619","2207","5435","7787","2236","5177","7178","2362","5053","6753","2474","4574","5713","DualSpot on"
"MA200-0416","60332","124","1","1.10","1.6","2023-08-26T03:45:01","120","2023/08/26","03:45:01","-15.787185847759247","35.0352543219924","0.1","12","300","64","99","-1660","24504","-1548","8","150","149.09","123.70","25.38","23.51","39.6","8.96","89112","23.19","DUALSPOT-UV-BLUE-GREEN-RED-IR","531269","586193","902542","36.696808","16.565102","0.020952","550395","764882","760846","28.715888","12.140924","0.025323","645471","788974","814217","24.836730","10.080406","0.028026","665727","824358","860289","20.637044","8.005561","0.031941","610532","790141","952469","14.148975","4.984712","0.041592","1826","5160","7903","1973","5010","7234","2004","4731","6594","2133","4659","6260","2303","4436","5597","DualSpot on"
"MA200-0416","60333","124","1","1.10","1.6","2023-08-26T03:50:01","120","2023/08/26","03:50:01","-15.787126958370209","35.035266660153866","0.1","12","300","64","98","-1196","24700","-1676","8","150","150.01","124.17","25.84","23.54","39.8","9.09","89116","23.19","DUALSPOT-UV-BLUE-GREEN-RED-IR","531588","587393","906228","37.050320","16.772984","0.020766","550329","765907","763079","29.021554","12.299532","0.024865","644968","789514","815841","25.113712","10.215141","0.027586","665945","825800","862715","20.881614","8.114198","0.031121","610549","791139","954374","14.340385","5.058502","0.039641","1672","4725","7251","1824","4550","6555","1851","4329","6028","1976","4218","5643","2153","3989","4990","DualSpot on"
"MA200-0416","60334","124","1","1.10","1.6","2023-08-26T03:55:01","120","2023/08/26","03:55:01","-15.787078142166138","35.03524532541633","0.1","12","300","64","99","-1416","24432","-420","8","150","150.62","123.86","26.76","23.56","40.0","9.17","89120","23.25","DUALSPOT-UV-BLUE-GREEN-RED-IR","530284","586790","907085","37.388916","16.969838","0.020217","549271","765527","763871","29.316994","12.453629","0.024248","643629","788960","816378","25.385912","10.347801","0.026767","665048","825769","863620","21.123640","8.222668","0.030184","609730","790954","954868","14.529045","5.131279","0.037748","1605","4320","6577","1768","4269","6115","1824","4115","5692","1960","4066","5409","2127","3799","4711","DualSpot on"
"MA200-0416","60335","124","1","1.10","1.6","2023-08-26T04:00:01","120","2023/08/26","04:00:01","-15.787035286426544","35.035279493778944","0.1","12","300","64","99","-1107","24615","-3111","8","150","150.29","124.27","26.02","23.58","40.1","9.22","89120","23.25","DUALSPOT-UV-BLUE-GREEN-RED-IR","529895","587122","909402","37.721180","17.166580","0.020422","545354","761103","760611","29.608090","12.608713","0.024620","642550","788725","817153","25.652322","10.478044","0.027010","664129","825705","864484","21.361844","8.329871","0.030579","609132","791072","955673","14.713879","5.202108","0.038205","1570","4440","6837","1736","4417","6406","1779","4155","5795","1923","4132","5545","2077","3802","4745","DualSpot on"
"MA200-0416","60336","124","1","1.10","1.6","2023-08-26T04:05:01","120","2023/08/26","04:05:01","-15.787122368812561","35.03522182255983","0.1","11","300","64","99","-1634","24550","-1126","8","150","150.69","124.59","26.10","23.60","40.2","9.27","89124","23.31","DUALSPOT-UV-BLUE-GREEN-RED-IR","526742","584451","907045","38.053144","17.364360","0.020297","546156","763259","763972","29.896050","12.761305","0.024334","639921","786519","815952","25.914488","10.607404","0.026879","661416","823365","862957","21.595330","8.434902","0.030246","607073","789268","954202","14.897041","5.274864","0.039017","1564","4451","6874","1713","4334","6287","1746","4115","5756","1880","4038","5421","2053","3894","4904","DualSpot on"
"MA200-0416","60337","124","1","1.10","1.6","2023-08-26T04:10:01","120","2023/08/26","04:10:01","-15.78713744878769","35.035266157239676","0.1","11","300","64","99","-1520","24632","-2712","8","150","149.83","123.82","26.01","23.62","40.2","9.31","89136","23.31","DUALSPOT-UV-BLUE-GREEN-RED-IR","526602","585099","909829","38.387644","17.560212","0.019985","545878","763902","765802","30.187904","12.914909","0.024005","636063","782765","813164","26.180604","10.740672","0.026786","661621","824694","865271","21.831998","8.543159","0.030199","603877","785966","950894","15.079498","5.346266","0.037944","1586","4423","6814","1747","4378","6346","1784","4254","5972","1917","4176","5628","2058","3835","4811","DualSpot on"
"MA200-0416","60338","124","1","1.10","1.6","2023-08-26T04:15:01","120","2023/08/26","04:15:01","-15.787092626094818","35.03529166430235","0.1","11","300","64","99","-1330","24400","-2250","8","150","150.20","123.64","26.56","23.64","40.3","9.33","89136","23.31","DUALSPOT-UV-BLUE-GREEN-RED-IR","524670","584101","910836","38.863860","17.836788","0.019530","540567","757990","761566","30.613514","13.141545","0.023570","633902","781694","813610","26.572304","10.935095","0.025973","660137","824392","866331","22.176970","8.704171","0.029706","602978","786058","952088","15.348087","5.457956","0.038588","2262","6116","9386","2551","6326","9165","2630","6077","8488","2799","6082","8203","3034","5874","7442","DualSpot on"
"MA200-0416","60339","124","1","1.10","1.6","2023-08-26T04:20:01","120","2023/08/26","04:20:01","-15.787060499191284","35.035289995372295","0.2","11","300","64","99","-1520","24452","-2836","8","150","150.67","124.04","26.64","23.64","40.3","9.36","89144","23.31","DUALSPOT-UV-BLUE-GREEN-RED-IR","521003","581218","908800","39.342096","18.110908","0.019208","540443","759361","764673","31.041778","13.367338","0.023154","633944","783312","816883","26.965900","11.129274","0.025528","656391","821257","864421","22.525916","8.864301","0.028950","603368","787815","955236","15.618401","5.566936","0.036935","2264","6044","9268","2559","6284","9100","2634","6052","8454","2822","6031","8113","3044","5715","7194","DualSpot on"
"MA200-0416","60340","124","1","1.10","1.6","2023-08-26T04:25:01","120","2023/08/26","04:25:01","-15.787109613418579","35.035273157060146","0.0","11","300","64","99","-1303","24561","-1011","8","150","150.69","124.42","26.27","23.62","40.4","9.38","89144","23.31","DUALSPOT-UV-BLUE-GREEN-RED-IR","520033","581034","910651","39.732464","18.341964","0.019382","539616","759410","766156","31.387096","13.551302","0.023203","629515","779070","813743","27.281386","11.288737","0.025803","656188","822194","866565","22.808148","8.997571","0.029430","600024","784452","952008","15.834415","5.655864","0.037662","1842","5166","8015","2057","5191","7572","2105","5039","7110","2275","5089","6922","2425","4728","6008","DualSpot on"
"MA200-0416","60341","124","1","1.10","1.6","2023-08-26T04:30:01","120","2023/08/26","04:30:01","-15.787088453769684","35.03530382364988","0.0","11","300","64","98","-1288","24616","-884","8","150","149.67","123.59","26.08","23.62","40.5","9.40","89148","23.31","DUALSPOT-UV-BLUE-GREEN-RED-IR","517844","579368","909819","40.065868","18.541996","0.019325","534310","752962","760849","31.680264","13.710788","0.023218","627448","777508","813212","27.551884","11.426558","0.025670","654754","821480","866787","23.048230","9.109494","0.028919","598458","783279","951297","16.021301","5.730774","0.036409","1584","4504","7019","1758","4532","6649","1817","4386","6207","1949","4305","5844","2112","4011","5069","DualSpot on"
"MA200-0416","60342","124","1","1.10","1.6","2023-08-26T04:35:01","120","2023/08/26","04:35:01","-15.787090420722961","35.03525149449706","0.1","11","300","64","99","-816","24948","-2288","8","150","150.56","123.79","26.77","23.62","40.5","9.40","89152","23.31","DUALSPOT-UV-BLUE-GREEN-RED-IR","516069","578226","909909","40.414188","18.748844","0.018930","532696","751727","760821","31.982322","13.872797","0.022614","625709","776420","813197","27.827294","11.563982","0.024832","652621","819840","866062","23.293204","9.223370","0.028140","600496","786854","956399","16.213451","5.808492","0.035496","1652","4537","7034","1808","4485","6536","1847","4261","5978","1985","4267","5762","2168","4055","5108","DualSpot on"
"MA200-0416","60343","124","1","1.10","1.6","2023-08-26T04:40:01","120","2023/08/26","04:40:01","-15.78709465265274","35.035291492938995","0.1","12","300","64","99","-1256","24448","-1643","8","150","149.64","123.81","25.83","23.61","40.5","9.40","89152","23.31","DUALSPOT-UV-BLUE-GREEN-RED-IR","513982","576728","909433","40.769512","18.957080","0.018930","534321","755133","765542","32.294170","14.039673","0.022749","626883","779019","817114","28.115134","11.708846","0.025169","650137","817843","864971","23.547888","9.341472","0.028437","598824","785610","955574","16.409187","5.886673","0.035823","1685","4735","7385","1867","4789","7037","1930","4656","6602","2063","4587","6246","2208","4228","5358","DualSpot on"
"MA200-0416","60344","124","1","1.10","1.6","2023-08-26T04:45:01","120","2023/08/26","04:45:01","-15.787140667438507","35.03524849191308","0.1","12","300","64","99","-1161","24473","-411","8","150","150.33","123.95","26.38","23.61","40.5","9.41","89160","23.31","DUALSPOT-UV-BLUE-GREEN-RED-IR","511572","574751","908105","41.098956","19.155530","0.018837","532478","753498","765108","32.583160","14.197593","0.022567","621583","773389","812294","28.378688","11.844457","0.024974","648252","816500","864506","23.783546","9.455080","0.028483","597734","784993","955577","16.593903","5.962988","0.035857","1561","4418","6912","1728","4437","6530","1765","4267","6060","1907","4320","5913","2081","4041","5140","DualSpot on"
"MA200-0416","60345","124","1","1.10","1.6","2023-08-26T04:50:01","120","2023/08/26","04:50:01","-15.78708827495575","35.03525499626994","0.0","12","300","64","99","-1348","24628","-1460","8","150","150.17","123.93","26.24","23.60","40.5","9.40","89160","23.25","DUALSPOT-UV-BLUE-GREEN-RED-IR","510190","573972","908720","41.433156","19.356536","0.018717","530765","752116","764909","32.874538","14.356791","0.022426","623086","776294","816468","28.645214","11.980676","0.024733","646470","815259","864162","24.019532","9.566481","0.027953","596429","784139","955297","16.776295","6.039259","0.035987","1583","4499","7055","1742","4497","6633","1785","4309","6124","1910","4259","5814","2055","4060","5187","DualSpot on"
"MA200-0416","60346","124","1","1.10","1.6","2023-08-26T04:55:01","120","2023/08/26","04:55:01","-15.787029445171356","35.03526582196355","0.2","11","300","64","98","-1328","24572","-1864","8","150","149.32","123.90","25.42","23.57","40.4","9.33","89160","23.25","DUALSPOT-UV-BLUE-GREEN-RED-IR","507624","571874","907219","41.771172","19.560962","0.018806","528620","750000","763978","33.162666","14.514362","0.022543","621453","775221","816457","28.906560","12.116126","0.025057","644180","813341","863112","24.251180","9.678082","0.028522","594810","782801","954364","16.954826","6.114557","0.036733","1602","4723","7472","1724","4595","6830","1751","4423","6352","1875","4404","6084","2012","4138","5336","DualSpot on"
"MA200-0416","60347","124","1","1.10","1.6","2023-08-26T05:00:01","120","2023/08/26","05:00:01","-15.787043333053589","35.035226821899414","0.1","11","300","64","99","-1088","24734","-1873","8","150","150.09","123.62","26.47","23.54","40.3","9.25","89164","23.19","DUALSPOT-UV-BLUE-GREEN-RED-IR","505675","570727","907900","42.228544","19.828976","0.018139","526453","748270","763844","33.557112","14.729821","0.021883","619148","773711","816415","29.268642","12.303030","0.024214","642130","812125","863144","24.572650","9.834307","0.027636","593534","782252","954720","17.208488","6.220648","0.034797","2173","5946","9286","2365","6033","8903","2431","5861","8348","2608","5920","8130","2866","5598","7144","DualSpot on"
"MA200-0416","60348","124","1","1.10","1.6","2023-08-26T05:05:01","120","2023/08/26","05:05:01","-15.78710788488388","35.03525049239397","0.0","11","300","64","99","-1308","24512","-1316","8","150","150.11","124.05","26.06","23.49","40.1","9.15","89160","23.13","DUALSPOT-UV-BLUE-GREEN-RED-IR","501349","566751","903641","42.621252","20.066608","0.018310","523100","744641","761523","33.891616","14.914543","0.021957","616354","771332","815181","29.573042","12.462978","0.024408","639261","809569","861580","24.842372","9.965755","0.027690","591574","780586","953514","17.416038","6.309185","0.035469","1859","5355","8466","1998","5254","7813","2037","5095","7323","2181","5060","6989","2337","4745","6114","DualSpot on"
"MA200-0416","60349","124","1","1.10","1.6","2023-08-26T05:10:01","120","2023/08/26","05:10:01","-15.787151634693146","35.035232823342085","0.2","11","300","64","99","-1469","24430","-1507","8","150","149.86","123.59","26.27","23.42","40.1","9.10","89164","23.06","DUALSPOT-UV-BLUE-GREEN-RED-IR","501642","568062","908139","43.054276","20.325364","0.017984","523357","746211","764644","34.244508","15.109232","0.021626","613519","768908","813962","29.888196","12.627172","0.023931","640456","812231","865566","25.118594","10.100680","0.027254","589497","778800","952136","17.621922","6.395937","0.034420","2058","5784","9117","2116","5493","8159","2117","5188","7435","2242","5152","7109","2327","4612","5914","DualSpot on"
"MA200-0416","60350","124","1","1.10","1.6","2023-08-26T05:15:01","120","2023/08/26","05:15:01","-15.787113547325134","35.035263162106276","0.2","11","300","64","99","-1350","24142","-1184","8","150","150.05","124.09","25.96","23.37","40.2","9.08","89168","23.00","DUALSPOT-UV-BLUE-GREEN-RED-IR","498346","565265","905894","43.469108","20.573918","0.017937","520516","743239","762984","34.582248","15.293837","0.021486","613734","770357","816777","30.193520","12.785668","0.023841","637140","809142","863402","25.384484","10.229046","0.027047","587274","776758","950492","17.825584","6.481725","0.034462","1963","5623","8913","2017","5271","7852","2042","5069","7291","2149","4961","6858","2292","4616","5944","DualSpot on"
"MA200-0416","60351","124","1","1.10","1.6","2023-08-26T05:20:01","120","2023/08/26","05:20:01","-15.787144482135773","35.035284496843815","0.2","12","300","64","99","-1161","24407","-1626","8","150","150.24","124.21","26.03","23.30","40.3","9.03","89176","22.94","DUALSPOT-UV-BLUE-GREEN-RED-IR","495577","563006","904441","43.863712","20.811550","0.017803","518310","741180","762249","34.903116","15.471181","0.021380","611480","768603","816133","30.482038","12.935252","0.023591","634310","806618","861775","25.638600","10.353168","0.026935","588530","779298","954366","18.017548","6.563226","0.034264","1866","5361","8517","1915","5050","7546","1928","4770","6865","2052","4783","6633","2159","4373","5642","DualSpot on"
"MA200-0416","60352","124","1","1.10","1.6","2023-08-26T05:25:01","120","2023/08/26","05:25:01","-15.78710013628006","35.03527515754104","0.1","12","300","64","99","-1034","24569","-2242","8","150","150.14","123.83","26.32","23.25","40.4","9.02","89188","22.88","DUALSPOT-UV-BLUE-GREEN-RED-IR","493885","563194","909583","44.768500","21.347114","0.017275","513549","736818","760784","35.634204","15.868237","0.020687","606859","765188","815294","31.133836","13.269836","0.022855","633948","808554","866181","26.205410","10.626025","0.025961","585529","777236","953533","18.441604","6.742470","0.033035","4291","11953","18937","4376","11185","16651","4370","10555","15150","4592","10402","14365","4783","9515","12241","DualSpot on"
"MA200-0416","60353","124","1","1.10","1.6","2023-08-26T05:30:01","120","2023/08/26","05:30:01","-15.787123143672943","35.035213489085436","0.0","12","300","64","98","-1502","24336","-1333","8","150","150.09","123.86","26.23","23.21","40.5","9.02","89188","22.81","DUALSPOT-UV-BLUE-GREEN-RED-IR","486898","557481","905642","45.751108","21.924012","0.016893","511249","736080","763118","36.386568","16.275158","0.020272","601491","760906","813442","31.795030","13.608448","0.022413","627754","803049","862662","26.775936","10.898744","0.025378","581561","773891","951182","18.870048","6.922106","0.032192","4659","12918","20516","4502","11500","17163","4431","10717","15420","4621","10431","14419","4832","9566","12310","DualSpot on"
"MA200-0416","60354","124","1","1.10","1.6","2023-08-26T05:35:01","120","2023/08/26","05:35:01","-15.787123799324036","35.035266157239676","0.0","12","300","64","99","-1436","24616","-1916","8","150","150.29","123.62","26.67","23.17","40.7","9.09","89200","22.81","DUALSPOT-UV-BLUE-GREEN-RED-IR","482530","554857","907313","46.821924","22.569984","0.016577","507843","733954","764358","37.200120","16.717237","0.019728","597810","758935","814374","32.510468","13.973160","0.021686","625043","802234","864353","27.396148","11.190123","0.024296","579450","773315","952310","19.344654","7.115040","0.030141","5087","14225","22729","4878","12287","18333","4804","11352","16288","5033","10960","15052","5363","10104","12863","DualSpot on"
"MA200-0416","60355","124","1","1.10","1.6","2023-08-26T05:40:01","120","2023/08/26","05:40:01","-15.787114799022675","35.03524116054177","0.1","12","300","64","99","-1444","24624","-572","8","150","149.51","123.42","26.09","23.16","40.8","9.11","89200","22.81","DUALSPOT-UV-BLUE-GREEN-RED-IR","476602","550453","906611","48.002000","23.304370","0.016473","503204","730168","764276","38.121984","17.232646","0.019677","592641","755291","813902","33.335000","14.403748","0.021641","620110","798853","863684","28.124980","11.540653","0.024314","575983","771238","951977","19.919388","7.351892","0.030163","5616","16534","26837","5537","14646","22161","5546","13703","19909","5924","13480","18738","6505","12683","16297","DualSpot on"
"MA200-0416","60356","124","1","1.10","1.6","2023-08-26T05:45:01","120","2023/08/26","05:45:01","-15.787122130393982","35.03525348752737","0.1","12","300","64","99","-1332","24340","-1596","8","150","150.24","124.01","26.23","23.15","40.9","9.13","89204","22.81","DUALSPOT-UV-BLUE-GREEN-RED-IR","470444","545728","905315","49.146532","24.011444","0.016070","497424","724821","762917","39.086400","17.779566","0.019321","586714","750842","812916","34.210196","14.869914","0.021301","613738","793764","861504","28.895088","11.922505","0.024086","574492","771941","955369","20.524506","7.611080","0.030195","5420","15835","25784","5765","15459","23549","5859","14757","21598","6230","14607","20492","6816","13805","17925","DualSpot on"
"MA200-0416","60357","124","1","1.10","1.6","2023-08-26T05:50:01","120","2023/08/26","05:50:01","-15.78715431690216","35.03524149209261","0.0","12","300","64","99","-1268","24180","-1800","8","150","149.59","123.96","25.63","23.15","41.0","9.17","89208","22.81","DUALSPOT-UV-BLUE-GREEN-RED-IR","465537","542587","907443","50.441232","24.832696","0.015916","492982","721650","764293","40.174600","18.403860","0.019067","581835","747989","814112","35.199824","15.401285","0.021008","609997","792460","863836","29.781006","12.360915","0.023648","568588","767155","952304","21.239182","7.913637","0.029442","6134","18817","31116","6508","18054","27815","6628","17210","25441","7170","17158","24246","8054","16488","21496","DualSpot on"
"MA200-0416","60358","124","1","1.10","1.6","2023-08-26T05:55:01","120","2023/08/26","05:55:01","-15.787133514881134","35.03527599200606","0.2","12","300","64","90","-1727","24208","-524","8","150","149.43","123.12","26.31","22.95","41.3","9.08","89224","21.75","DUALSPOT-UV-BLUE-GREEN-RED-IR","461815","540049","908706","51.384636","25.442730","0.015579","489606","719083","765089","40.968228","18.868192","0.018627","579353","747291","816610","35.929336","15.798605","0.020438","606882","790990","865126","30.443256","12.693494","0.022941","563144","762101","948271","21.784100","8.151989","0.028731","4500","13618","22561","4778","13083","20173","4919","12537","18516","5396","12682","17892","6182","12655","16526","DualSpot on"
"MA200-0416","60359","124","1","1.10","1.6","2023-08-26T06:00:01","120","2023/08/26","06:00:01","-15.787155985832214","35.035286989063025","0.1","12","300","64","87","-1207","24930","-1815","8","150","147.77","123.70","24.07","22.58","41.7","8.91","89212","21.19","DUALSPOT-UV-BLUE-GREEN-RED-IR","453105","532589","903994","52.745780","26.300644","0.015491","482980","712620","762772","42.011408","19.455802","0.018548","573603","743207","816268","36.872108","16.297525","0.020477","598361","783319","860311","31.289372","13.107192","0.023091","561070","762465","951411","22.470170","8.433546","0.028470","6462","20936","35330","6251","18098","28318","6327","17210","25830","6862","17244","24729","7747","16341","21505","DualSpot on"
"MA200-0416","60360","124","1","1.10","1.6","2023-08-26T06:05:01","120","2023/08/26","06:05:01","-15.787127673625946","35.03528532758355","0.4","12","300","64","86","-1400","24680","-1464","8","150","149.53","123.96","25.57","22.34","42.2","8.87","0","0.00","DUALSPOT-UV-BLUE-GREEN-RED-IR","448519","530214","910373","54.473580","27.456890","0.015035","476129","706264","761833","43.326180","20.234464","0.017964","567473","739266","817307","38.075600","16.957642","0.019683","592428","779848","861271","32.399144","13.661673","0.021942","556630","760625","952830","23.416558","8.823324","0.026275","8187","26561","45234","7863","22576","35468","8060","21434","32173","8982","21756","31071","10665","21295","27722","DualSpot on"
"MA200-0416","60361","124","1","1.10","1.6","2023-08-26T06:10:01","120","2023/08/26","06:10:01","-15.787095248699188","35.035265658050776","0.1","12","300","64","86","-1300","24736","-1344","8","150","150.14","124.25","25.89","22.14","42.7","8.86","0","0.00","DUALSPOT-UV-BLUE-GREEN-RED-IR","433446","516920","905327","57.340684","29.436878","0.014410","465451","696867","763646","45.826284","21.805948","0.017320","552547","726831","814767","40.425800","18.340676","0.019036","580595","771992","862787","34.588820","14.850775","0.021332","547665","755943","955144","25.279854","9.679581","0.026163","13553","44918","78006","14916","44996","72303","15703","44349","68138","17680","46078","67444","20948","46199","61867","DualSpot on"
"MA200-0416","60362","124","1","1.10","1.6","2023-08-26T06:15:01","120","2023/08/26","06:15:01","-15.787129819393158","35.035280488431454","0.1","12","300","64","85","-1456","24452","-748","8","150","150.36","124.52","25.85","21.98","43.1","8.85","89224","20.69","DUALSPOT-UV-BLUE-GREEN-RED-IR","429660","514391","909214","58.653040","30.359676","0.014183","458612","689483","761113","46.981084","22.544566","0.017029","545714","720959","813477","41.525576","18.998120","0.018688","577094","770949","866564","35.636056","15.424066","0.020841","541910","751769","953863","26.209274","10.104851","0.025263","6190","20968","36826","6875","21183","34383","7332","21116","32740","8437","22251","32792","10427","22983","30861","DualSpot on"
"MA200-0416","60363","124","1","1.10","1.6","2023-08-26T06:20:01","120","2023/08/26","06:20:01","-15.787140130996704","35.035312328487635","0.1","12","300","68","84","-1376","24528","-944","9","150","149.76","117.26","32.50","21.92","43.7","9.00","89232","20.69","DUALSPOT-UV-BLUE-GREEN-RED-IR","763528","692151","910422","0.000000","0.000000","0.000000","732152","862356","766176","0.000000","0.000000","0.000000","820271","864743","813698","0.000000","0.000000","0.000000","817921","891760","866800","0.000000","0.000000","0.000000","700899","827214","954927","0.000000","0.000000","0.000000","","","","","","","","","","","","","","","","Tape advance-DualSpot on"
"MA200-0416","60364","124","1","1.10","1.6","2023-08-26T06:25:01","120","2023/08/26","06:25:01","-15.7870654463768","35.03527232259512","0.2","12","300","68","84","-1423","24538","-1296","9","150","149.54","117.65","31.89","21.85","44.4","9.18","89248","20.69","DUALSPOT-UV-BLUE-GREEN-RED-IR","745546","685723","908150","0.000000","0.000000","0.000000","721138","856922","764544","0.000000","0.000000","0.000000","811337","861454","813288","0.000000","0.000000","0.000000","810049","888159","865535","0.000000","0.000000","0.000000","696741","825574","954431","0.000000","0.000000","0.000000","","","","","","","","","","","","","","","","Tape advance-DualSpot on"
"MA200-0416","60365","124","1","1.10","1.6","2023-08-26T06:30:01","120","2023/08/26","06:30:01","-15.787144839763641","35.035396821796894","0.1","12","300","64","83","-1140","24692","-1756","9","150","149.72","118.02","31.70","21.76","44.5","9.13","89248","20.56","DUALSPOT-UV-BLUE-GREEN-RED-IR","725469","676849","902974","2.160860","0.731092","0.000000","708769","849764","761546","1.342035","0.448381","0.000000","804028","859977","814857","1.098149","0.359362","0.000000","797832","879983","859991","0.881124","0.283128","0.000000","689903","821037","950794","0.605350","0.167749","0.000000","10754","13544","10754","8430","10484","8430","7725","9410","7725","7490","8959","7490","7165","7391","7165","DualSpot on"
"MA200-0416","60366","124","1","1.10","1.6","2023-08-26T06:35:01","120","2023/08/26","06:35:01","-15.787114799022675","35.035285994410515","0.0","13","300","64","83","-1468","24796","-1848","9","150","149.98","118.81","31.17","21.64","45.0","9.17","89256","20.50","DUALSPOT-UV-BLUE-GREEN-RED-IR","715667","676301","908506","4.130842","1.423526","0.082678","702720","850079","765353","2.694030","0.912123","0.000000","794572","856247","814378","2.221246","0.737464","0.000000","796001","883316","865805","1.781401","0.579172","0.000000","689345","824002","955909","1.219001","0.339738","0.000000","9738","13049","14789","8435","11030","8435","7847","10071","7847","7601","9529","7601","7214","7708","7214","DualSpot on"
"MA200-0416","60367","124","1","1.10","1.6","2023-08-26T06:40:01","120","2023/08/26","06:40:01","-15.787132441997528","35.035285491496325","0.2","12","300","64","83","-1530","24484","-1269","9","150","149.76","118.30","31.47","21.53","45.6","9.29","89260","20.38","DUALSPOT-UV-BLUE-GREEN-RED-IR","699577","669102","904994","6.019844","2.107523","0.059352","691053","842754","762118","3.945201","1.353203","0.083948","785029","851639","812851","3.243084","1.087039","0.092780","786758","877767","862664","2.588895","0.847113","0.000000","684367","821254","954099","1.758869","0.488657","0.000000","9379","12767","14593","7840","10391","11723","7171","9223","10257","6848","8543","6848","6375","6611","6375","DualSpot on"
"MA200-0416","60368","124","1","1.10","1.6","2023-08-26T06:45:01","120","2023/08/26","06:45:01","-15.787076115608215","35.035287491977215","0.4","12","300","64","82","-1307","24642","-938","9","150","150.09","118.81","31.28","21.46","46.3","9.45","89264","20.31","DUALSPOT-UV-BLUE-GREEN-RED-IR","690408","668316","910517","7.941763","2.830108","0.050296","681681","838404","761805","5.263942","1.825278","0.067463","779895","852151","816404","4.332788","1.463419","0.073906","784225","880016","867443","3.461720","1.139134","0.083074","679425","818831","952877","2.349727","0.652903","0.000000","9501","13568","15820","8228","11188","12759","7614","9989","11201","7370","9366","10345","6946","7335","6946","DualSpot on"
"MA200-0416","60369","124","1","1.10","1.6","2023-08-26T06:50:01","120","2023/08/26","06:50:01","-15.787150204181671","35.03530815988779","0.4","11","300","64","82","-1304","24592","-1112","9","150","150.37","120.17","30.20","21.43","47.0","9.64","89272","20.31","DUALSPOT-UV-BLUE-GREEN-RED-IR","675728","662131","909018","9.922243","3.592188","0.045792","676175","838707","765788","6.597186","2.310657","0.061920","771147","848634","816151","5.428391","1.846868","0.068739","777388","877501","867445","4.335739","1.431059","0.075981","675559","817708","953132","2.944130","0.817280","0.000000","9679","14822","17740","8224","11915","13904","7569","10541","12074","7296","9698","10881","6909","7603","6909","DualSpot on"
"MA200-0416","60370","124","1","1.10","1.6","2023-08-26T06:55:01","120","2023/08/26","06:55:01","-15.787124335765839","35.03534082695842","0.1","11","300","64","81","-1488","24426","-1469","9","150","150.03","119.97","30.06","21.42","47.8","9.88","89272","20.38","DUALSPOT-UV-BLUE-GREEN-RED-IR","661131","656038","908132","12.011379","4.420364","0.039925","661669","827767","759674","7.968464","2.822511","0.054136","761882","844481","815415","6.547379","2.245635","0.059773","769126","873279","865871","5.224416","1.731705","0.065821","670897","815610","952280","3.551895","0.988568","0.041553","10228","16184","19652","8473","12624","14901","7743","11014","12722","7431","10035","11326","7076","7961","8302","DualSpot on"
"MA200-0416","60371","124","1","1.10","1.6","2023-08-26T07:00:01","120","2023/08/26","07:00:01","-15.787169873714447","35.0352336615324","0.2","11","300","64","81","-1396","24536","-1735","9","150","150.70","120.64","30.06","21.46","48.5","10.13","89280","20.44","DUALSPOT-UV-BLUE-GREEN-RED-IR","643999","647533","904763","14.275467","5.356640","0.035985","654990","826816","763112","9.432223","3.387415","0.048924","754566","842646","817214","7.733051","2.682495","0.054713","758752","866756","862253","6.163082","2.059900","0.061228","668108","815948","954467","4.197166","1.174805","0.042991","11022","18297","22666","8994","13933","16701","8159","12067","14143","7805","10955","12536","7471","8656","9116","DualSpot on"
"MA200-0416","60372","124","1","1.10","1.6","2023-08-26T07:05:01","120","2023/08/26","07:05:01","-15.787160515785217","35.03526232764125","0.0","11","300","72","80","-1384","24676","-1404","9","150","150.01","120.18","29.83","21.52","49.2","10.40","89288","20.50","DUALSPOT-UV-BLUE-GREEN-RED-IR","632360","642811","905286","16.157402","6.147369","0.032672","646468","822536","763023","10.731585","3.896784","0.044387","742941","835282","813307","8.806375","3.080827","0.049093","703159","807780","806023","7.029291","2.362775","0.054207","664386","814844","954858","4.801429","1.348479","0.037501","9197","15569","19483","8015","12658","15306","7414","11086","13062","7231","10186","11683","7024","8133","8566","DualSpot on"
"MA200-0416","60373","124","1","1.10","1.6","2023-08-26T07:10:01","120","2023/08/26","07:10:01","-15.787199318408966","35.03525032475591","0.2","11","300","64","80","-1512","24500","-1504","9","150","149.46","120.64","28.82","21.60","49.7","10.64","89288","20.63","DUALSPOT-UV-BLUE-GREEN-RED-IR","621269","637912","905169","17.907406","6.893635","0.031314","638683","818656","763090","11.948353","4.378122","0.042575","738163","835194","816304","9.818747","3.461307","0.047830","746257","861849","862485","7.846804","2.651803","0.053565","659614","812349","953557","5.383629","1.519069","0.044571","8519","15209","19396","7476","12381","15218","6966","10961","13135","6798","10061","11727","6741","8269","8869","DualSpot on"
