"Serial number","Datum ID","Session ID","Data format version","Firmware version","App version","Date / time local","Timezone offset (mins)","Date local (yyyy/MM/dd)","Time local (hh:mm:ss)","GPS lat (ddmm.mmmmm)","GPS long (dddmm.mmmmm)","GPS speed (km/h)","GPS sat count","Timebase (s)","Status","Battery remaining (%)","Accel X","Accel Y","Accel Z","Tape position","Flow setpoint (mL/min)","Flow total (mL/min)","Flow1 (mL/min)","Flow2 (mL/min)","Sample temp (C)","Sample RH (%)","Sample dewpoint (C)","Internal pressure (Pa)","Internal temp (C)","Optical config","UV Sen1","UV Sen2","UV Ref","UV ATN1","UV ATN2","UV K","Blue Sen1","Blue Sen2","Blue Ref","Blue ATN1","Blue ATN2","Blue K","Green Sen1","Green Sen2","Green Ref","Green ATN1","Green ATN2","Green K","Red Sen1","Red Sen2","Red Ref","Red ATN1","Red ATN2","Red K","IR Sen1","IR Sen2","IR Ref","IR ATN1","IR ATN2","IR K","UV BC1","UV BC2","UV BCc","Blue BC1","Blue BC2","Blue BCc","Green BC1","Green BC2","Green BCc","Red BC1","Red BC2","Red BCc","IR BC1","IR BC2","IR BCc","Readable status"
"MA200-0420","43586","73","1","1.10","1.6","2023-07-19T13:05:00","120","2023/07/19","13:05:00","-15.79563969373703","35.00274449959397","0.1","12","300","66","97","-666","-27004","162","1","150","149.44","113.15","36.29","30.07","39.7","14.89","90448","30.63","DUALSPOT-UV-BLUE-GREEN-RED-IR","810546","687803","904746","0.000000","0.000000","0.000000","902240","876280","835543","0.000000","0.000000","0.000000","906743","880224","854146","0.000000","0.000000","0.000000","911226","875207","903023","0.000000","0.000000","0.000000","778684","883070","963788","0.000000","0.000000","0.000000","","","","","","","","","","","","","","","","Start up-DualSpot on"
"MA200-0420","43587","73","1","1.10","1.6","2023-07-19T13:10:00","120","2023/07/19","13:10:00","-15.795703172683716","35.002686999505386","0.1","12","300","64","97","-591","-26970","45","1","150","149.89","113.66","36.22","30.05","37.8","14.08","90432","30.44","DUALSPOT-UV-BLUE-GREEN-RED-IR","806392","687720","906756","0.000000","0.000000","0.000000","899920","876565","837006","0.000000","0.000000","0.000000","877887","854175","829930","0.000000","0.000000","0.000000","893916","860140","888264","0.000000","0.000000","0.000000","778281","883595","964830","0.000000","0.000000","0.000000","","","","","","","","","","","","","","","","DualSpot on"
"MA200-0420","43588","73","1","1.10","1.6","2023-07-19T13:15:00","120","2023/07/19","13:15:00","-15.79572981595993","35.00278116646223","0.3","12","300","64","97","-675","-27020","-58","1","150","149.59","113.69","35.90","30.06","37.2","13.85","90432","30.63","DUALSPOT-UV-BLUE-GREEN-RED-IR","799567","687535","909998","1.216735","0.387540","0.000000","890553","871541","834058","0.693601","0.219458","0.000000","876058","855667","832844","0.560850","0.178951","0.000000","894433","863096","892520","0.419598","0.133308","0.000000","774458","880709","962425","0.243539","0.077688","0.000000","6286","6340","6286","4522","4531","4522","4095","4138","4095","3702","3725","3702","2992","3023","2992","DualSpot on"
"MA200-0420","43589","73","1","1.10","1.6","2023-07-19T13:20:00","120","2023/07/19","13:20:00","-15.795701026916504","35.00272083282471","0.3","12","300","64","97","-687","-27095","225","1","150","149.87","113.64","36.23","30.24","36.5","13.71","90424","30.94","DUALSPOT-UV-BLUE-GREEN-RED-IR","791394","683163","906005","1.809502","0.586673","0.000000","888867","872100","835663","1.076203","0.347721","0.000000","875310","856717","834715","0.877058","0.284975","0.000000","886913","857171","887139","0.664295","0.217027","0.000000","774062","881176","963435","0.401935","0.130513","0.000000","3063","3228","3063","2495","2624","2495","2310","2429","2310","2160","2318","2160","1947","2036","1947","DualSpot on"
"MA200-0420","43590","73","1","1.10","1.6","2023-07-19T13:25:00","120","2023/07/19","13:25:00","-15.795638501644135","35.00272833299823","0.3","12","300","64","97","-600","-27054","183","1","150","149.81","114.01","35.79","30.39","35.7","13.53","90404","31.00","DUALSPOT-UV-BLUE-GREEN-RED-IR","790880","685101","910187","2.333358","0.764061","0.000000","889899","875005","839387","1.407474","0.465399","0.000000","870510","853547","832454","1.152598","0.383269","0.000000","889784","861144","891912","0.877713","0.296248","0.000000","775177","883274","966245","0.547061","0.184082","0.000000","2698","2910","2698","2153","2437","2153","2006","2279","2006","1878","2220","1878","1778","2090","1778","DualSpot on"
"MA200-0420","43591","73","1","1.10","1.6","2023-07-19T13:30:00","120","2023/07/19","13:30:00","-15.795581638813019","35.002746833022684","0.1","13","300","64","97","-641","-26987","250","1","150","149.84","113.80","36.04","30.59","35.9","13.76","90404","31.31","DUALSPOT-UV-BLUE-GREEN-RED-IR","784556","682511","908657","2.965746","0.971836","0.000000","884749","872321","837865","1.806032","0.588041","0.000000","865828","850918","830718","1.482296","0.483006","0.000000","885237","858266","889641","1.130703","0.371789","0.000000","771602","880225","963325","0.707010","0.227828","0.000000","3263","3386","3263","2596","2523","2596","2405","2297","2405","2230","2103","2230","1963","1695","1963","DualSpot on"
"MA200-0420","43592","73","1","1.10","1.6","2023-07-19T13:35:00","120","2023/07/19","13:35:00","-15.795680820941925","35.00266483309679","0.1","13","300","64","97","-616","-27025","133","1","150","149.89","113.66","36.22","30.84","35.1","13.63","90400","31.63","DUALSPOT-UV-BLUE-GREEN-RED-IR","778286","679618","906571","3.540270","1.170003","0.030948","878704","868478","835229","2.173805","0.709671","0.000000","866285","853105","833679","1.787257","0.581973","0.000000","879728","854241","886166","1.366609","0.450254","0.000000","772246","881984","965694","0.867988","0.274286","0.000000","2968","3213","3334","2398","2489","2398","2227","2268","2227","2082","2173","2082","1978","1791","1978","DualSpot on"
"MA200-0420","43593","73","1","1.10","1.6","2023-07-19T13:40:00","120","2023/07/19","13:40:00","-15.795584678649902","35.00277733313851","0.1","13","300","64","97","-660","-27036","280","1","150","150.21","113.35","36.86","30.94","34.1","13.28","90396","31.56","DUALSPOT-UV-BLUE-GREEN-RED-IR","774341","678320","906307","4.020741","1.333776","0.016700","875325","866949","834664","2.492559","0.820011","0.000000","863687","852015","833375","2.053660","0.672465","0.000000","884297","859844","892640","1.576479","0.522335","0.000000","770248","880519","964561","1.008672","0.319613","0.000000","2489","2609","2669","2084","2219","2084","1951","2038","1951","1857","1961","1857","1733","1717","1733","DualSpot on"
"MA200-0420","43594","73","1","1.10","1.6","2023-07-19T13:45:00","120","2023/07/19","13:45:00","-15.795616269111633","35.00277983304113","0.0","13","300","64","97","-579","-27079","8","1","150","149.56","113.51","36.05","31.02","33.5","13.07","90392","31.56","DUALSPOT-UV-BLUE-GREEN-RED-IR","771391","677929","907346","4.516527","1.504854","0.025383","873406","866908","835532","2.817976","0.929356","0.000000","857605","847573","829778","2.325761","0.763022","0.000000","877720","854698","887878","1.787115","0.591471","0.000000","770694","881851","966383","1.142889","0.360444","0.000000","2565","2787","2897","2125","2248","2125","1990","2085","1990","1861","1923","1861","1651","1582","1651","DualSpot on"
"MA200-0420","43595","73","1","1.10","1.6","2023-07-19T13:50:00","120","2023/07/19","13:50:00","-15.795547485351562","35.00274883280508","0.2","13","300","64","97","-664","-27012","236","1","150","149.89","113.55","36.34","31.02","33.2","12.96","90388","31.56","DUALSPOT-UV-BLUE-GREEN-RED-IR","767849","677175","907994","5.050276","1.688356","0.019860","871130","866678","836273","3.166747","1.045042","0.016273","859367","851015","833893","2.616447","0.857436","0.000000","874874","853203","886966","2.010655","0.663603","0.000000","768969","880718","965570","1.277835","0.403183","0.000000","2761","2965","3068","2277","2359","2400","2125","2156","2125","1975","1991","1975","1660","1642","1660","DualSpot on"
"MA200-0420","43596","73","1","1.10","1.6","2023-07-19T13:55:00","120","2023/07/19","13:55:00","-15.79563820362091","35.00274183298461","0.0","13","300","72","98","-628","-27072","496","1","150","150.28","113.52","36.77","31.07","32.9","12.84","90384","31.63","DUALSPOT-UV-BLUE-GREEN-RED-IR","764583","676354","908425","5.523388","1.854471","0.020331","869101","866495","836990","3.488743","1.151854","0.009974","857764","850924","834579","2.884871","0.945806","0.000000","757389","739711","769491","2.220937","0.730208","0.000000","768281","880691","965913","1.408321","0.443354","0.000000","2448","2653","2757","2102","2153","2178","1963","1995","1963","1858","1817","1858","1605","1526","1605","DualSpot on"
"MA200-0420","43597","73","1","1.10","1.6","2023-07-19T14:00:00","120","2023/07/19","14:00:00","-15.795612633228302","35.002789332997054","0.1","13","300","64","98","-668","-27028","212","1","150","150.15","113.24","36.91","31.11","32.5","12.69","90372","31.69","DUALSPOT-UV-BLUE-GREEN-RED-IR","757605","672149","904212","5.979822","2.017749","0.021447","868790","868006","839315","3.802436","1.258838","0.017026","852426","847132","831595","3.149432","1.034635","0.013614","874375","855120","890149","2.428337","0.798768","0.000000","764068","876670","961910","1.539440","0.482337","0.000000","2367","2598","2715","2053","2148","2195","1939","1998","2026","1837","1863","1837","1617","1475","1617","DualSpot on"
"MA200-0420","43598","73","1","1.10","1.6","2023-07-19T14:05:00","120","2023/07/19","14:05:00","-15.795676529407501","35.00271866610274","0.1","12","300","64","97","-612","-27016","170","1","150","149.82","113.62","36.20","31.10","31.8","12.34","90364","31.63","DUALSPOT-UV-BLUE-GREEN-RED-IR","758078","674446","908794","6.418316","2.177291","0.027584","863726","864627","836953","4.102576","1.365715","0.036590","849189","845287","830548","3.403240","1.123678","0.038603","871769","853703","889270","2.625868","0.865636","0.000000","767207","881025","967037","1.660728","0.521192","0.000000","2266","2588","2754","1958","2188","2304","1854","2042","2135","1744","1853","1744","1491","1499","1491","DualSpot on"
"MA200-0420","43599","73","1","1.10","1.6","2023-07-19T14:10:00","120","2023/07/19","14:10:00","-15.795703530311584","35.002661999780685","0.2","13","300","64","97","-591","-26987","262","1","150","149.89","113.11","36.77","31.12","31.8","12.36","90364","31.69","DUALSPOT-UV-BLUE-GREEN-RED-IR","755627","674140","909713","6.846010","2.329471","0.018288","862155","864778","837917","4.399944","1.463550","0.003999","852099","849644","835474","3.653562","1.203042","-0.010520","870168","853297","889374","2.822389","0.926226","0.000000","766219","880594","966921","1.777402","0.557153","0.000000","2220","2430","2538","1948","1972","1983","1837","1791","1769","1743","1652","1743","1440","1366","1440","DualSpot on"
"MA200-0420","43600","73","1","1.10","1.6","2023-07-19T14:15:00","120","2023/07/19","14:15:00","-15.795522153377533","35.00283583300188","0.3","13","300","64","97","-612","-27025","58","1","150","150.15","113.23","36.91","31.05","31.3","12.05","90352","31.56","DUALSPOT-UV-BLUE-GREEN-RED-IR","749593","670623","906425","7.282402","2.487407","0.019686","856787","861124","835255","4.703915","1.567006","0.013168","847420","846425","833023","3.910833","1.290023","0.013418","872114","856354","893157","3.022313","0.990580","-0.006302","763342","878015","964437","1.895753","0.593627","0.000000","2263","2513","2642","1990","2077","2121","1886","1956","1990","1771","1749","1738","1460","1380","1460","DualSpot on"
"MA200-0420","43601","73","1","1.10","1.6","2023-07-19T14:20:00","120","2023/07/19","14:20:00","-15.795635879039764","35.00274866609834","0.1","13","300","64","97","-648","-27003","204","1","150","149.55","113.16","36.39","31.05","31.3","12.10","90356","31.56","DUALSPOT-UV-BLUE-GREEN-RED-IR","747112","670278","907416","7.724718","2.647901","0.021174","854363","860399","835434","5.011171","1.672971","0.019615","845942","846407","833715","4.169166","1.374524","0.006049","863699","849264","886311","3.224178","1.053896","-0.011712","763007","878400","965160","2.016914","0.628858","0.000000","2295","2590","2744","2012","2158","2232","1895","1928","1944","1789","1745","1724","1495","1352","1495","DualSpot on"
"MA200-0420","43602","73","1","1.10","1.6","2023-07-19T14:25:00","120","2023/07/19","14:25:00","-15.795658707618713","35.00280399946496","0.2","13","300","64","97","-680","-27203","376","1","150","150.02","113.59","36.43","31.06","31.3","12.08","90356","31.56","DUALSPOT-UV-BLUE-GREEN-RED-IR","742647","668585","906973","8.270845","2.850212","0.023124","850988","858983","835040","5.357248","1.788998","0.011885","843784","845903","834005","4.458052","1.470220","0.010466","862881","849792","887468","3.447769","1.124034","-0.009770","761921","877972","965104","2.152582","0.668660","0.000000","2824","3261","3491","2258","2361","2412","2111","2180","2214","1974","1931","1910","1668","1526","1668","DualSpot on"
"MA200-0420","43603","73","1","1.10","1.6","2023-07-19T14:30:00","120","2023/07/19","14:30:00","-15.795711934566498","35.00270799943246","0.0","13","300","64","98","-584","-26868","-40","1","150","150.02","113.31","36.71","31.13","31.4","12.18","90356","31.63","DUALSPOT-UV-BLUE-GREEN-RED-IR","740770","669543","910436","8.909857","3.089920","0.021854","851087","861335","838488","5.764020","1.930076","0.016644","837455","841431","830532","4.794556","1.581937","0.007445","861908","850297","888767","3.706727","1.207279","-0.003117","762007","879047","966754","2.312582","0.716239","0.000000","3312","3835","4113","2661","2849","2943","2465","2526","2556","2292","2275","2266","1972","1810","1972","DualSpot on"
"MA200-0420","43604","73","1","1.10","1.6","2023-07-19T14:35:00","120","2023/07/19","14:35:00","-15.795606911182404","35.00278866640292","0.1","14","300","64","97","-662","-27008","112","1","150","150.02","113.01","37.02","31.14","30.8","11.91","90348","31.56","DUALSPOT-UV-BLUE-GREEN-RED-IR","734817","665867","906838","9.324013","3.246873","0.020819","845326","857140","835257","6.053907","2.032500","0.017497","837613","842946","832735","5.039311","1.666271","0.014296","857359","846913","885770","3.900952","1.270681","-0.001299","758900","876207","963979","2.432266","0.751721","0.000000","2152","2490","2671","1901","2051","2126","1798","1891","1937","1724","1718","1715","1479","1339","1479","DualSpot on"
"MA200-0420","43605","73","1","1.10","1.6","2023-07-19T14:40:00","120","2023/07/19","14:40:00","-15.795610666275024","35.002713666297495","0.1","14","300","64","97","-540","-27084","-336","1","150","149.38","113.27","36.11","31.05","30.6","11.74","90340","31.44","DUALSPOT-UV-BLUE-GREEN-RED-IR","730075","663187","904530","9.710812","3.393125","0.022909","847163","860529","839389","6.328917","2.130478","0.023800","834607","841198","831659","5.272728","1.746350","0.019406","860018","850561","890138","4.080589","1.329608","0.010125","757082","874723","962660","2.537902","0.784737","0.000000","2005","2379","2579","1799","2011","2119","1710","1841","1905","1591","1637","1659","1302","1277","1302","DualSpot on"
"MA200-0420","43606","73","1","1.10","1.6","2023-07-19T14:45:00","120","2023/07/19","14:45:00","-15.795670807361603","35.00275433296338","0.1","14","300","64","98","-624","-26956","-696","1","150","149.71","112.97","36.74","31.08","30.9","11.91","90332","31.50","DUALSPOT-UV-BLUE-GREEN-RED-IR","728556","663678","906801","10.175716","3.569574","0.020104","839763","854825","834797","6.657463","2.245617","0.015731","833643","841767","833052","5.553180","1.842773","0.014181","853951","845795","885798","4.301925","1.402262","0.003158","757360","875851","964310","2.674747","0.827240","0.000000","2417","2820","3038","2156","2323","2408","2061","2178","2237","1965","1983","1992","1692","1615","1692","DualSpot on"
"MA200-0420","43607","73","1","1.10","1.6","2023-07-19T14:50:00","120","2023/07/19","14:50:00","-15.795561850070953","35.00279899965972","0.1","13","300","64","98","-648","-27128","144","1","150","150.28","113.55","36.73","31.01","30.7","11.74","90336","31.38","DUALSPOT-UV-BLUE-GREEN-RED-IR","727734","664720","909774","10.612827","3.738422","0.021726","840422","857216","838023","6.965917","2.356374","0.020462","828598","838141","830183","5.814660","1.933515","0.016909","855471","848497","889232","4.507756","1.470935","0.009869","758617","878136","967172","2.802465","0.865440","0.000000","2261","2700","2938","2013","2235","2348","1911","2051","2120","1818","1875","1903","1571","1452","1571","DualSpot on"
"MA200-0420","43608","73","1","1.10","1.6","2023-07-19T14:55:00","120","2023/07/19","14:55:00","-15.795647203922272","35.00268633267842","0.2","13","300","64","98","-583","-26954","145","1","150","149.65","113.42","36.23","30.92","30.7","11.66","90340","31.19","DUALSPOT-UV-BLUE-GREEN-RED-IR","724241","663367","909517","11.063499","3.914547","0.023236","838310","856781","838602","7.285605","2.472484","0.023598","826579","837526","830406","6.087239","2.031213","0.025460","853915","848141","889509","4.721659","1.544080","0.020123","753227","872598","961503","2.926538","0.907950","0.000000","2333","2855","3141","2089","2376","2523","1995","2239","2361","1892","2025","2090","1528","1639","1528","DualSpot on"
"MA200-0420","43609","73","1","1.10","1.6","2023-07-19T15:00:00","120","2023/07/19","15:00:00","-15.79564517736435","35.00274349981919","0.0","13","300","64","97","-629","-26970","354","1","150","150.54","113.55","36.99","30.82","30.6","11.52","90336","31.13","DUALSPOT-UV-BLUE-GREEN-RED-IR","721466","662608","910122","11.517094","4.092994","0.021149","835588","855698","838557","7.607416","2.593106","0.024439","824711","837106","830805","6.359566","2.130192","0.023293","852006","847429","889424","4.935338","1.618781","0.019875","753271","873383","962790","3.054533","0.951017","0.014893","2346","2833","3101","2101","2417","2580","1991","2221","2337","1888","2026","2093","1574","1626","1649","DualSpot on"
"MA200-0420","43610","73","1","1.10","1.6","2023-07-19T15:05:00","120","2023/07/19","15:05:00","-15.795633256435394","35.00272166635841","0.0","12","300","64","97","-692","-26936","284","1","150","149.97","113.20","36.77","30.79","30.5","11.45","90340","31.13","DUALSPOT-UV-BLUE-GREEN-RED-IR","717282","660525","908829","11.953329","4.268966","0.022878","831683","853348","837246","7.919368","2.710807","0.024914","821931","835682","830215","6.626364","2.228653","0.025703","850187","846783","889381","5.146680","1.693223","0.021728","751919","872559","962306","3.182962","0.994234","0.015646","2263","2811","3115","2042","2373","2545","1956","2223","2358","1873","2031","2108","1584","1642","1667","DualSpot on"
"MA200-0420","43611","73","1","1.10","1.6","2023-07-19T15:10:00","120","2023/07/19","15:10:00","-15.795660734176636","35.00276349973865","0.3","12","300","64","97","-570","-26950","175","1","150","149.96","113.23","36.73","30.77","30.6","11.49","90332","31.06","DUALSPOT-UV-BLUE-GREEN-RED-IR","713907","659151","908579","12.394953","4.446739","0.022046","829133","852428","837286","8.233393","2.827871","0.022510","824088","839285","834608","6.892258","2.326423","0.024363","846902","844661","887828","5.356758","1.766843","0.020014","754733","876545","967109","3.311258","1.038588","0.026462","2290","2843","3152","2055","2362","2523","1949","2210","2342","1861","2011","2084","1582","1687","1734","DualSpot on"
"MA200-0420","43612","73","1","1.10","1.6","2023-07-19T15:15:00","120","2023/07/19","15:15:00","-15.795644700527191","35.0027213327121","0.2","13","300","64","97","-641","-27075","162","1","150","150.08","113.35","36.74","30.77","30.7","11.52","90336","31.06","DUALSPOT-UV-BLUE-GREEN-RED-IR","710300","657624","908128","12.856056","4.635124","0.022516","825920","850870","836817","8.561220","2.952307","0.024191","821683","838356","834521","7.172080","2.428305","0.021916","845680","844669","888527","5.578160","1.845183","0.021604","749383","871114","961558","3.446180","1.083315","0.009337","2389","3011","3362","2144","2511","2704","2049","2302","2431","1959","2139","2228","1662","1700","1718","DualSpot on"
"MA200-0420","43613","73","1","1.10","1.6","2023-07-19T15:20:00","120","2023/07/19","15:20:00","-15.795623183250427","35.00274533312768","0.0","13","300","64","97","-632","-27047","204","1","150","150.27","113.46","36.81","30.71","30.6","11.44","90332","31.00","DUALSPOT-UV-BLUE-GREEN-RED-IR","706086","655671","907375","13.364265","4.844841","0.022373","822238","848978","836123","8.925575","3.092802","0.025082","817834","836048","833188","7.482824","2.545488","0.026385","848226","848549","893389","5.824068","1.933663","0.024088","751730","874723","966047","3.598447","1.135398","0.020417","2630","3346","3753","2380","2829","3067","2273","2642","2833","2174","2411","2529","1874","1976","2023","DualSpot on"
"MA200-0420","43614","73","1","1.10","1.6","2023-07-19T15:25:00","120","2023/07/19","15:25:00","-15.795600175857544","35.00272616627626","0.1","13","300","64","97","-564","-27032","192","1","150","150.09","113.42","36.67","30.63","30.6","11.36","90340","30.88","DUALSPOT-UV-BLUE-GREEN-RED-IR","703217","654957","908344","13.881868","5.059479","0.022172","819763","848357","836747","9.299451","3.238135","0.025472","816279","836084","834274","7.802383","2.666700","0.026700","841102","842759","888127","6.078524","2.026139","0.025814","747186","870295","961690","3.752817","1.190721","0.036530","2680","3438","3872","2443","2938","3202","2339","2744","2954","2250","2530","2669","1901","2107","2203","DualSpot on"
"MA200-0420","43615","73","1","1.10","1.6","2023-07-19T15:30:00","120","2023/07/19","15:30:00","-15.795659482479095","35.002711166162044","0.4","12","300","64","97","-662","-26958","125","1","150","149.89","113.59","36.30","30.55","30.8","11.39","90340","30.81","DUALSPOT-UV-BLUE-GREEN-RED-IR","698227","652413","906879","14.433266","5.289497","0.022530","815459","845978","835685","9.697313","3.393006","0.025895","813218","834717","833962","8.143843","2.796042","0.027018","838895","841999","888211","6.350213","2.126183","0.029323","746479","870423","962381","3.918851","1.248710","0.030600","2851","3721","4225","2596","3162","3467","2495","2958","3199","2399","2765","2948","2042","2231","2320","DualSpot on"
"MA200-0420","43616","73","1","1.10","1.6","2023-07-19T15:35:00","120","2023/07/19","15:35:00","-15.795621156692505","35.002749666105956","0.2","12","300","64","98","-658","-27029","112","1","150","149.74","113.43","36.30","30.47","30.7","11.27","90340","30.63","DUALSPOT-UV-BLUE-GREEN-RED-IR","696864","653308","910365","15.011713","5.533771","0.022381","815681","848336","839400","10.115360","3.558850","0.026676","807645","830841","831257","8.503304","2.934383","0.027774","838751","843389","890621","6.636183","2.230795","0.026707","746902","871951","964687","4.097950","1.311665","0.030825","2995","3952","4510","2732","3386","3741","2630","3163","3444","2529","2890","3074","2205","2422","2524","DualSpot on"
"MA200-0420","43617","73","1","1.10","1.6","2023-07-19T15:40:00","120","2023/07/19","15:40:00","-15.795693218708038","35.002702499506995","0.0","12","300","64","97","-568","-27072","-96","1","150","149.47","113.14","36.33","30.35","30.5","11.07","90340","30.50","DUALSPOT-UV-BLUE-GREEN-RED-IR","688528","647676","904791","15.600468","5.786182","0.022288","813517","848243","840765","10.543624","3.731024","0.026627","806040","830999","832596","8.868976","3.079299","0.029787","838306","844459","892728","6.926769","2.340281","0.029981","743014","868338","961322","4.270624","1.375268","0.041791","3056","4081","4685","2806","3513","3901","2683","3312","3646","2576","3023","3252","2131","2445","2595","DualSpot on"
"MA200-0420","43618","73","1","1.10","1.6","2023-07-19T15:45:00","120","2023/07/19","15:45:00","-15.795703172683716","35.00267249974422","0.0","13","300","64","97","-696","-27019","431","1","150","150.15","113.35","36.80","30.20","30.4","10.89","90336","30.31","DUALSPOT-UV-BLUE-GREEN-RED-IR","686640","648051","907623","16.186485","6.039123","0.021290","806522","843081","837119","10.971355","3.903764","0.025044","804762","831584","834380","9.237027","3.223194","0.025864","831556","839225","888131","7.219054","2.449256","0.025423","743816","870238","964026","4.447357","1.439876","0.035345","3036","4037","4633","2797","3480","3857","2695","3246","3541","2587","2971","3168","2178","2452","2584","DualSpot on"
"MA200-0420","43619","73","1","1.10","1.6","2023-07-19T15:50:00","120","2023/07/19","15:50:00","-15.795608341693878","35.002755999565125","0.1","13","300","64","97","-732","-27019","8","1","150","149.89","113.55","36.34","30.12","30.5","10.86","90332","30.31","DUALSPOT-UV-BLUE-GREEN-RED-IR","681859","645589","906285","16.736418","6.278240","0.021786","801855","840199","835596","11.370138","4.065621","0.025901","801755","830164","834115","9.578916","3.359235","0.028454","827834","836869","886562","7.492024","2.553310","0.029992","742271","869330","963597","4.613174","1.500217","0.036586","2844","3864","4477","2603","3301","3690","2499","3108","3436","2411","2872","3110","2040","2319","2454","DualSpot on"
"MA200-0420","43620","73","1","1.10","1.6","2023-07-19T15:55:00","120","2023/07/19","15:55:00","-15.795611321926117","35.00273416633718","0.1","13","300","64","97","-620","-26984","208","1","150","150.46","114.06","36.39","30.01","30.6","10.81","90324","30.06","DUALSPOT-UV-BLUE-GREEN-RED-IR","679194","645075","907877","17.302984","6.528297","0.022020","799620","839916","836697","11.780321","4.232359","0.025430","800107","830248","835297","9.930975","3.498292","0.027053","828388","838889","889667","7.772373","2.659344","0.028291","742897","871027","966077","4.782074","1.562988","0.041129","2917","4035","4713","2665","3396","3806","2562","3172","3503","2465","2923","3160","2068","2409","2574","DualSpot on"
"MA200-0420","43621","73","1","1.10","1.6","2023-07-19T16:00:00","120","2023/07/19","16:00:00","-15.795648336410522","35.00282283267006","0.1","13","300","64","97","-633","-26983","212","1","150","149.44","113.27","36.17","29.82","30.7","10.71","90328","29.88","DUALSPOT-UV-BLUE-GREEN-RED-IR","675003","643135","907346","17.867650","6.775158","0.020870","796481","838647","836835","12.190703","4.400724","0.025293","792413","823958","830224","10.284590","3.639417","0.027115","826289","838235","889877","8.053074","2.765123","0.026738","742624","871612","967339","4.950832","1.627265","0.045074","2928","4008","4669","2685","3450","3883","2591","3239","3594","2486","2934","3168","2081","2482","2679","DualSpot on"
"MA200-0420","43622","73","1","1.10","1.6","2023-07-19T16:05:00","120","2023/07/19","16:05:00","-15.795615792274475","35.002755999565125","0.1","13","300","64","97","-636","-27008","364","1","150","149.84","113.76","36.07","29.66","31.0","10.71","90340","29.69","DUALSPOT-UV-BLUE-GREEN-RED-IR","672778","642866","909096","18.386898","7.005047","0.021226","795423","839441","838968","12.581210","4.561687","0.025432","790683","823831","831206","10.621863","3.775436","0.027928","825651","838991","891645","8.326751","2.868925","0.027660","737913","866952","962786","5.115719","1.689426","0.043008","2680","3743","4396","2544","3307","3742","2461","3130","3499","2413","2886","3135","2024","2407","2595","DualSpot on"
"MA200-0420","43623","73","1","1.10","1.6","2023-07-19T16:10:00","120","2023/07/19","16:10:00","-15.795637726783752","35.002740166382864","0.1","13","300","64","97","-640","-27003","524","1","150","150.02","113.69","36.34","29.56","31.7","10.98","90336","29.56","DUALSPOT-UV-BLUE-GREEN-RED-IR","666921","639129","905944","18.918382","7.246319","0.021420","789103","834716","835678","12.983562","4.730722","0.025493","790985","825885","834465","10.972565","3.919157","0.027805","820196","834907","888280","8.610343","2.980531","0.030352","740121","870469","967389","5.293806","1.762331","0.055968","2745","3900","4616","2623","3448","3921","2561","3283","3685","2502","3081","3388","2188","2802","3109","DualSpot on"
"MA200-0420","43624","73","1","1.10","1.6","2023-07-19T16:15:00","120","2023/07/19","16:15:00","-15.79554158449173","35.00273283268325","0.2","13","300","64","98","-568","-26919","-888","1","150","150.36","113.70","36.66","29.43","31.5","10.77","90336","29.50","DUALSPOT-UV-BLUE-GREEN-RED-IR","665292","639389","908471","19.437436","7.478054","0.019790","788357","835818","838128","13.372559","4.893195","0.023763","785153","821405","831091","11.311831","4.057463","0.025800","820569","836658","891116","8.886274","3.088200","0.027415","736149","866733","963880","5.466797","1.828846","0.041039","2681","3712","4357","2536","3285","3717","2477","3132","3498","2434","2946","3219","2125","2534","2740","DualSpot on"
"MA200-0420","43625","73","1","1.10","1.6","2023-07-19T16:20:00","120","2023/07/19","16:20:00","-15.795611321926117","35.00276833306998","0.2","13","300","64","97","-625","-26966","258","1","150","150.08","113.39","36.69","29.43","31.5","10.75","90328","29.94","DUALSPOT-UV-BLUE-GREEN-RED-IR","659608","635831","905610","19.982288","7.725540","0.019861","783178","832338","836104","13.788268","5.068494","0.023496","785387","823450","834390","11.674931","4.206832","0.025502","815649","833168","888413","9.183393","3.203904","0.025916","737751","869657","967840","5.657726","1.900977","0.035589","2822","3961","4679","2717","3541","4020","2658","3379","3785","2628","3163","3450","2352","2746","2945","DualSpot on"
"MA200-0420","43626","73","1","1.10","1.6","2023-07-19T16:25:00","120","2023/07/19","16:25:00","-15.795611321926117","35.002702499506995","0.2","13","300","64","97","-712","-26920","100","1","150","150.28","113.43","36.85","29.61","31.0","10.71","90328","30.13","DUALSPOT-UV-BLUE-GREEN-RED-IR","655550","633565","904449","20.473698","7.951851","0.019818","778486","829065","834139","14.155364","5.225713","0.023691","781617","821022","833023","11.994763","4.338703","0.024729","811797","830584","886540","9.446436","3.307881","0.026478","734146","866367","964795","5.833414","1.964675","0.025527","2544","3607","4282","2399","3162","3609","2341","2971","3328","2326","2830","3102","2163","2414","2542","DualSpot on"
"MA200-0420","43627","73","1","1.10","1.6","2023-07-19T16:30:00","120","2023/07/19","16:30:00","-15.795648992061615","35.00277349981479","0.2","13","300","64","97","-629","-27004","120","1","150","150.40","113.61","36.78","29.64","30.3","10.35","90324","29.94","DUALSPOT-UV-BLUE-GREEN-RED-IR","653631","633342","906107","20.948266","8.173912","0.020145","777362","829470","835776","14.497561","5.374422","0.024297","780751","821542","834587","12.292708","4.462429","0.024997","811007","830936","887811","9.688196","3.405243","0.028204","734647","867869","967016","5.994980","2.024244","0.028888","2453","3545","4244","2232","2996","3447","2177","2792","3143","2134","2655","2937","1986","2262","2402","DualSpot on"
"MA200-0420","43628","73","1","1.10","1.6","2023-07-19T16:35:00","120","2023/07/19","16:35:00","-15.795633256435394","35.002682499587536","0.1","13","300","64","97","-696","-26952","260","1","150","149.76","113.86","35.89","29.49","29.8","10.01","90332","29.56","DUALSPOT-UV-BLUE-GREEN-RED-IR","651212","632869","907684","21.486686","8.419170","0.019664","775734","829545","837145","14.869077","5.530366","0.023235","774328","816313","830360","12.608978","4.590600","0.024576","810986","832200","890016","9.941700","3.502010","0.024704","730126","863380","962591","6.153105","2.082906","0.034282","2777","4013","4809","2418","3220","3695","2306","2964","3341","2233","2704","2960","1940","2283","2458","DualSpot on"
"MA200-0420","43629","73","1","1.10","1.6","2023-07-19T16:40:00","120","2023/07/19","16:40:00","-15.795617401599884","35.00277899974026","0.1","14","300","64","98","-736","-27075","-16","1","150","149.69","114.41","35.28","29.31","29.8","9.84","90328","29.38","DUALSPOT-UV-BLUE-GREEN-RED-IR","645970","629776","905717","22.082890","8.690125","0.019866","771009","826596","835750","15.314968","5.718633","0.024219","770455","814064","829403","12.999127","4.751662","0.026787","808011","830748","889615","10.257972","3.627154","0.029711","729163","863304","963254","6.355493","2.158479","0.038115","3060","4511","5452","2889","3956","4592","2831","3790","4343","2773","3559","3989","2471","2992","3261","DualSpot on"
"MA200-0420","43630","73","1","1.10","1.6","2023-07-19T16:45:00","120","2023/07/19","16:45:00","-15.795641005039215","35.00277299946174","0.2","13","300","64","98","-587","-26850","33","1","150","149.95","114.22","35.73","29.04","30.0","9.72","90320","28.94","DUALSPOT-UV-BLUE-GREEN-RED-IR","644348","630001","908197","22.603870","8.929390","0.019295","770823","828315","838908","15.713314","5.888468","0.023366","769639","814904","831459","13.346227","4.896841","0.026025","801588","825578","885049","10.542378","3.737886","0.026058","729877","865084","965900","6.529751","2.226695","0.042272","2679","3932","4751","2585","3523","4085","2523","3373","3865","2498","3108","3444","2131","2666","2943","DualSpot on"
"MA200-0420","43631","73","1","1.10","1.6","2023-07-19T16:50:00","120","2023/07/19","16:50:00","-15.795638859272003","35.00277533312328","0.2","14","300","64","97","-612","-26991","62","1","150","150.02","114.48","35.54","28.72","30.6","9.70","90316","28.63","DUALSPOT-UV-BLUE-GREEN-RED-IR","637357","627259","909731","23.858578","9.532166","0.019988","766751","827394","840626","16.441696","6.198518","0.022704","766898","814906","833532","13.950207","5.143785","0.023960","800160","826556","887720","11.019149","3.922149","0.024997","726391","862515","964098","6.822817","2.337001","0.035780","6437","9961","12305","4716","6466","7526","4380","5768","6579","4178","5201","5766","3576","4335","4731","DualSpot on"
"MA200-0420","43632","73","1","1.10","1.6","2023-07-19T16:55:00","120","2023/07/19","16:55:00","-15.795622408390045","35.00283283274621","0.1","14","300","64","97","-579","-26958","95","1","150","150.46","113.88","36.58","28.46","31.0","9.69","90336","28.38","DUALSPOT-UV-BLUE-GREEN-RED-IR","630017","623233","908122","24.843006","10.000538","0.017954","760930","824011","839418","17.063092","6.465916","0.020715","761854","812022","832370","14.471502","5.360969","0.022144","795386","823671","886058","11.428535","4.081744","0.021816","724589","861714","964120","7.069414","2.433156","0.034774","5077","7520","9165","4045","5418","6256","3800","4928","5592","3606","4376","4804","3025","3671","4011","DualSpot on"
"MA200-0420","43633","73","1","1.10","1.6","2023-07-19T17:00:00","120","2023/07/19","17:00:00","-15.795692503452301","35.002738166134804","0.3","14","300","64","97","-637","-27075","304","1","150","149.89","113.94","35.95","28.18","31.4","9.63","90336","28.06","DUALSPOT-UV-BLUE-GREEN-RED-IR","620391","618065","906585","26.212444","10.663933","0.018101","753163","819626","838049","17.923686","6.837652","0.020856","755817","808963","831698","15.186271","5.658233","0.022163","790801","821747","885931","11.989764","4.302130","0.023042","722416","860908","964462","7.408521","2.562011","0.032146","7059","10840","13433","5599","7666","8941","5208","6865","7850","4941","6151","6828","4157","5007","5457","DualSpot on"
"MA200-0420","43634","73","1","1.10","1.6","2023-07-19T17:05:00","120","2023/07/19","17:05:00","-15.795562982559204","35.00273883296177","0.4","14","300","64","98","-652","-27003","212","1","150","150.41","113.98","36.43","27.94","31.7","9.57","90340","27.81","DUALSPOT-UV-BLUE-GREEN-RED-IR","613507","614058","904771","27.125656","11.107185","0.017240","746754","815500","836135","18.550330","7.112756","0.020343","751162","806449","831041","15.722124","5.885076","0.021727","792867","825997","892009","12.416253","4.471331","0.022060","720750","860329","964815","7.674726","2.666525","0.033789","4705","7147","8839","4075","5598","6545","3903","5170","5928","3754","4660","5170","3262","4008","4404","DualSpot on"
"MA200-0420","43635","73","1","1.10","1.6","2023-07-19T17:10:00","120","2023/07/19","17:10:00","-15.795642018318176","35.00276783318259","0.0","13","300","64","97","-612","-27028","104","1","150","150.03","113.96","36.07","27.69","32.1","9.52","90348","27.50","DUALSPOT-UV-BLUE-GREEN-RED-IR","610061","614287","910215","28.290780","11.670731","0.016736","745882","818222","841789","19.343934","7.456832","0.019426","745451","803525","830362","16.402588","6.168924","0.020585","787607","823284","891004","12.968466","4.688335","0.021173","718879","859929","965676","8.027014","2.800566","0.029525","6005","9177","11405","5162","7072","8270","4957","6533","7484","4861","6036","6701","4318","5191","5659","DualSpot on"
"MA200-0420","43636","73","1","1.10","1.6","2023-07-19T17:15:00","120","2023/07/19","17:15:00","-15.795691132545471","35.00281483284198","0.1","13","300","64","98","-724","-26860","348","1","150","149.69","113.07","36.62","27.42","32.3","9.40","90348","27.25","DUALSPOT-UV-BLUE-GREEN-RED-IR","602971","610313","908761","29.301864","12.164185","0.015847","738856","813957","840183","20.096448","7.787527","0.018322","744429","805497","834774","17.070862","6.452282","0.019454","781710","819844","889275","13.526947","4.911472","0.019846","716408","859021","966035","8.407701","2.946183","0.025933","5252","7914","9804","4933","6694","7808","4906","6424","7346","4955","6113","6773","4703","5555","6014","DualSpot on"
"MA200-0420","43637","73","1","1.10","1.6","2023-07-19T17:20:00","120","2023/07/19","17:20:00","-15.795669198036194","35.00283149955794","0.2","13","300","64","98","-608","-27044","164","1","150","150.28","112.19","38.09","27.16","32.6","9.32","90340","27.00","DUALSPOT-UV-BLUE-GREEN-RED-IR","592943","604698","907469","30.810604","12.933685","0.015059","729676","808820","838982","21.182998","8.266661","0.015526","737146","802102","834637","18.025138","6.852918","0.015325","775112","816977","888993","14.330793","5.225915","0.013482","712608","857517","966373","8.963980","3.150631","0.012590","7898","11865","14735","7179","9324","10697","7061","8732","9756","7188","8282","8909","6926","7497","7807","DualSpot on"
"MA200-0420","43638","73","1","1.10","1.6","2023-07-19T17:25:00","120","2023/07/19","17:25:00","-15.795671343803406","35.00273083290085","0.1","13","300","64","97","-641","-26970","233","1","150","150.42","112.61","37.81","26.91","32.9","9.21","90332","26.69","DUALSPOT-UV-BLUE-GREEN-RED-IR","574635","593947","906564","33.831832","14.615837","0.015864","713600","799845","837463","23.225976","9.198758","0.016042","723378","795260","833823","19.806496","7.608798","0.015133","762276","810969","887691","15.846828","5.812574","0.012239","705079","854479","966541","10.041245","3.521554","0.003742","15758","26128","34016","13449","18273","21436","13133","16595","18755","13507","15565","16757","13364","13703","13885","DualSpot on"
"MA200-0420","43639","73","1","1.10","1.6","2023-07-19T17:30:00","120","2023/07/19","17:30:00","-15.795756757259369","35.00268499949016","0.3","13","300","64","97","-656","-26960","136","1","150","149.67","112.65","37.02","26.68","33.1","9.12","90332","26.50","DUALSPOT-UV-BLUE-GREEN-RED-IR","560549","585410","906253","36.310372","16.049751","0.015883","702678","794393","838097","24.857946","9.965364","0.016793","713442","790555","833945","21.216956","8.221586","0.016238","753083","806944","887374","17.036822","6.278961","0.013714","699947","853036","967662","10.892761","3.810431","0.004337","12923","22749","30532","10739","15350","18435","10395","13741","15859","10598","12638","13829","10559","10900","11083","DualSpot on"
"MA200-0420","43640","73","1","1.10","1.6","2023-07-19T17:35:00","120","2023/07/19","17:35:00","-15.795513331890106","35.00282483268529","0.2","13","300","64","98","-688","-26968","44","1","150","149.96","112.74","37.22","26.46","33.5","9.08","90344","26.31","DUALSPOT-UV-BLUE-GREEN-RED-IR","548954","578867","906716","38.440048","17.218422","0.014188","691661","788912","838963","26.533228","10.754394","0.015746","702859","785517","834316","22.743368","8.901508","0.016035","743529","803073","888070","18.380818","6.834700","0.015603","689479","845780","963128","11.923241","4.192502","0.013389","11095","18443","24406","11015","15716","18920","11240","15167","17692","11960","14981","16769","12768","14341","15193","DualSpot on"
"MA200-0420","43641","73","1","1.10","1.6","2023-07-19T17:40:00","120","2023/07/19","17:40:00","-15.795653522014618","35.00274533312768","0.1","13","300","64","97","-632","-26847","44","1","150","149.69","112.68","37.01","26.22","33.8","9.02","90344","26.00","DUALSPOT-UV-BLUE-GREEN-RED-IR","536222","570398","903041","40.393068","18.291466","0.013651","679152","780663","835807","27.985654","11.434496","0.014950","692438","779477","832652","24.045280","9.475643","0.015018","733391","797390","885810","19.509108","7.293784","0.014145","683227","842529","962346","12.757782","4.496534","0.011297","10180","17027","22694","9555","13621","16430","9592","12878","15014","10046","12443","13875","10346","11474","12088","DualSpot on"
"MA200-0420","43642","73","1","1.10","1.6","2023-07-19T17:45:00","120","2023/07/19","17:45:00","-15.795603513717651","35.00276866625063","0.5","13","300","64","98","-652","-26956","64","1","150","150.41","113.19","37.22","25.96","34.1","8.91","90340","25.81","DUALSPOT-UV-BLUE-GREEN-RED-IR","528375","566174","904952","42.048688","19.227570","0.013557","672548","777964","837731","29.182732","12.005885","0.014879","686526","777425","834523","25.116838","9.957899","0.015101","728732","796687","888433","20.432220","7.674833","0.014210","680805","843089","965423","13.427044","4.746537","0.012953","8591","14773","19982","7840","11381","13857","7859","10758","12662","8182","10272","11529","8259","9384","9998","DualSpot on"
"MA200-0420","43643","73","1","1.10","1.6","2023-07-19T17:50:00","120","2023/07/19","17:50:00","-15.795665979385376","35.00274833291769","0.4","14","300","64","98","-750","-26833","275","1","150","150.08","112.73","37.35","25.81","34.3","8.90","90336","25.63","DUALSPOT-UV-BLUE-GREEN-RED-IR","520653","561279","904198","43.469916","20.033474","0.013088","664732","773332","837106","30.288508","12.532612","0.014114","676151","769882","830125","26.125068","10.411819","0.014305","723077","794581","889293","21.320576","8.041806","0.013313","673283","837262","961080","14.094177","4.994281","0.011188","7405","12674","17177","7271","10454","12701","7425","10090","11856","7906","9857","11039","8267","9266","9814","DualSpot on"
"MA200-0420","43644","73","1","1.10","1.6","2023-07-19T17:55:00","120","2023/07/19","17:55:00","-15.795658349990845","35.00276883295737","0.1","14","300","64","98","-628","-26908","-76","1","150","150.02","113.15","36.87","25.62","34.5","8.79","90348","25.44","DUALSPOT-UV-BLUE-GREEN-RED-IR","514504","558664","907990","45.078460","20.919582","0.012492","658215","771202","840479","31.675694","13.208679","0.014510","669451","767534","832539","27.409730","11.007903","0.015134","717390","793449","892502","22.466956","8.540303","0.015606","669921","837523","964790","14.978512","5.347139","0.017288","8349","14118","19112","9088","13595","16818","9426","13424","16107","10164","13566","15652","10917","13371","14732","DualSpot on"
"MA200-0420","43645","73","1","1.10","1.6","2023-07-19T18:00:00","120","2023/07/19","18:00:00","-15.795615255832672","35.00283816619776","0.0","14","300","64","97","-700","-26932","180","1","150","149.82","112.91","36.91","25.47","34.7","8.73","90352","25.38","DUALSPOT-UV-BLUE-GREEN-RED-IR","509424","555777","908913","46.167976","21.536224","0.012525","647592","762288","834606","32.607452","13.674331","0.014620","663974","764703","832896","28.270248","11.418333","0.015392","706664","784916","885857","23.227664","8.878652","0.015873","666915","836545","965996","15.555820","5.588406","0.019480","5667","9813","13438","6117","9353","11690","6327","9232","11201","6759","9197","10706","7142","9132","10247","DualSpot on"
"MA200-0420","43646","73","1","1.10","1.6","2023-07-19T18:05:00","120","2023/07/19","18:05:00","-15.79564368724823","35.00278433319181","0.1","15","300","64","97","-620","-26836","40","1","150","150.02","112.91","37.10","25.33","34.8","8.66","90356","25.19","DUALSPOT-UV-BLUE-GREEN-RED-IR","502895","551062","906192","47.171744","22.096794","0.012046","645645","763263","839283","33.470428","14.103603","0.014053","657966","760897","831851","29.067140","11.797698","0.014805","705704","786857","890822","23.926578","9.190319","0.015339","662646","833814","964904","16.082684","5.805245","0.017612","5221","8874","12093","5665","8577","10697","5859","8488","10285","6210","8427","9810","6518","8164","9094","DualSpot on"
"MA200-0420","43647","73","1","1.10","1.6","2023-07-19T18:10:00","120","2023/07/19","18:10:00","-15.795632481575012","35.002816666383296","0.0","15","300","64","97","-692","-27003","132","1","150","150.15","113.19","36.96","25.19","34.9","8.59","90364","25.06","DUALSPOT-UV-BLUE-GREEN-RED-IR","499827","549764","908314","48.011380","22.561532","0.011818","642309","762032","840881","34.172468","14.453133","0.013939","655041","760092","833485","29.705806","12.101254","0.014634","698809","781603","887079","24.483300","9.436702","0.014968","657682","829563","961625","16.498272","5.975477","0.017292","4356","7386","10071","4597","7011","8780","4684","6819","8287","4934","6688","7788","5129","6434","7176","DualSpot on"
"MA200-0420","43648","73","1","1.10","1.6","2023-07-19T18:15:00","120","2023/07/19","18:15:00","-15.795692801475525","35.00274749961682","0.2","15","300","64","97","-658","-26912","66","1","150","150.08","112.72","37.36","25.07","35.0","8.53","90376","24.94","DUALSPOT-UV-BLUE-GREEN-RED-IR","491683","543403","903306","49.099308","23.169140","0.011499","632696","754019","835739","35.069672","14.897976","0.013199","647239","754275","830361","30.527738","12.489784","0.013723","695245","780727","888895","25.200736","9.754527","0.014061","655827","829869","964054","17.036866","6.193712","0.015196","5669","9551","13020","5900","8825","10986","6054","8632","10418","6385","8533","9890","6675","8159","9006","DualSpot on"
"MA200-0420","43649","73","1","1.10","1.6","2023-07-19T18:20:00","120","2023/07/19","18:20:00","-15.795620024204254","35.002805499592796","0.0","14","300","64","98","-660","-26819","128","1","150","149.71","113.38","36.33","24.94","35.0","8.42","90372","24.81","DUALSPOT-UV-BLUE-GREEN-RED-IR","489286","543343","908573","50.174056","23.770084","0.011682","626244","749653","834687","35.973272","15.353447","0.013901","644105","753815","833192","31.355362","12.890134","0.014799","687761","775414","885751","25.928806","10.083550","0.015498","651138","826591","962470","17.588456","6.422498","0.018023","5567","9716","13452","5907","9295","11817","6060","9149","11307","6442","9087","10770","6795","8798","9949","DualSpot on"
"MA200-0420","43650","73","1","1.10","1.6","2023-07-19T18:25:00","120","2023/07/19","18:25:00","-15.795650839805603","35.00280366605148","0.1","14","300","68","98","-688","-26856","280","2","150","150.45","115.99","34.46","24.82","35.2","8.38","90376","24.69","DUALSPOT-UV-BLUE-GREEN-RED-IR","801045","713864","906575","0.000000","0.000000","0.000000","902922","911550","841578","0.000000","0.000000","0.000000","880028","884488","832957","0.000000","0.000000","0.000000","892039","882911","886054","0.000000","0.000000","0.000000","785434","908815","968570","0.000000","0.000000","0.000000","","","","","","","","","","","","","","","","Tape advance-DualSpot on"
"MA200-0420","43651","73","1","1.10","1.6","2023-07-19T18:30:00","120","2023/07/19","18:30:00","-15.795677363872528","35.00276849954389","0.1","14","300","68","98","-604","-26972","215","2","150","149.74","115.83","33.90","24.69","35.2","8.29","90388","24.56","DUALSPOT-UV-BLUE-GREEN-RED-IR","786595","711626","909468","0.000000","0.000000","0.000000","886822","903784","837553","0.000000","0.000000","0.000000","868246","879536","830940","0.000000","0.000000","0.000000","888807","885207","890526","0.000000","0.000000","0.000000","779695","905786","966837","0.000000","0.000000","0.000000","","","","","","","","","","","","","","","","Tape advance-DualSpot on"
"MA200-0420","43652","73","1","1.10","1.6","2023-07-19T18:35:00","120","2023/07/19","18:35:00","-15.795649349689484","35.00278916629031","0.2","14","300","64","98","-700","-26904","-41","2","150","149.65","115.61","34.04","24.59","35.4","8.26","90400","24.50","DUALSPOT-UV-BLUE-GREEN-RED-IR","761361","703311","907130","2.986499","0.914943","0.000000","876686","904323","842045","1.669526","0.469535","0.000000","859692","879716","834306","1.378953","0.379431","0.000000","875521","878999","886872","1.082643","0.291609","0.000000","772097","901565","964167","0.692823","0.186213","0.000000","15172","15789","15172","10705","10227","10705","9902","9255","9902","9395","8596","9395","8371","7643","8371","DualSpot on"
"MA200-0420","43653","73","1","1.10","1.6","2023-07-19T18:40:00","120","2023/07/19","18:40:00","-15.795633673667908","35.00278399977833","0.1","13","300","64","98","-641","-26829","33","2","150","150.62","116.45","34.17","24.50","35.5","8.23","90412","24.44","DUALSPOT-UV-BLUE-GREEN-RED-IR","734018","693422","903826","6.290445","1.966491","0.017432","856485","895848","838942","3.638625","1.043319","-0.002699","843643","873301","832057","3.006071","0.843036","-0.013963","869186","880670","891662","2.357492","0.644473","0.000000","764442","897875","962344","1.507211","0.411607","0.000000","16664","18074","18716","12535","12448","12413","11600","11263","11132","10983","10360","10983","9769","9214","9769","DualSpot on"
"MA200-0420","43654","73","1","1.10","1.6","2023-07-19T18:45:00","120","2023/07/19","18:45:00","-15.7957244515419","35.00274149957113","0.2","13","300","64","98","-660","-26996","344","2","150","150.67","116.31","34.36","24.43","35.6","8.22","90420","24.31","DUALSPOT-UV-BLUE-GREEN-RED-IR","721431","692221","909123","8.610256","2.724899","0.015689","841817","889649","836820","5.116254","1.484489","0.002914","831645","868507","830450","4.243386","1.201903","-0.006115","859756","877216","890646","3.332843","0.918388","-0.021898","763562","900940","967309","2.136427","0.585060","0.000000","11714","12965","13544","9418","9519","9560","8832","8671","8608","8413","7998","7840","7557","7052","7557","DualSpot on"
"MA200-0420","43655","73","1","1.10","1.6","2023-07-19T18:50:00","120","2023/07/19","18:50:00","-15.795631647109985","35.00275449943729","0.1","13","300","64","98","-652","-27208","-276","2","150","149.76","116.15","33.60","24.35","35.8","8.21","90420","24.25","DUALSPOT-UV-BLUE-GREEN-RED-IR","705455","686427","907866","10.723024","3.431261","0.017368","829048","884752","835778","6.521096","1.912963","0.010932","826312","870178","835048","5.439661","1.559221","0.007997","849647","872846","888662","4.293953","1.194778","-0.001947","758071","898503","966398","2.764700","0.763442","0.000000","10683","12346","13129","8966","9452","9654","8550","8828","8939","8301","8251","8232","7556","7415","7556","DualSpot on"
"MA200-0420","43656","73","1","1.10","1.6","2023-07-19T18:55:00","120","2023/07/19","18:55:00","-15.795627415180206","35.00277749961242","0.1","13","300","64","97","-720","-26841","320","2","150","149.73","115.70","34.03","24.29","35.9","8.21","90424","24.25","DUALSPOT-UV-BLUE-GREEN-RED-IR","687659","679136","905204","12.969782","4.200775","0.015084","820928","885702","840810","8.102387","2.404403","0.009196","813292","864735","833287","6.807144","1.973146","0.005783","844671","874676","893424","5.411696","1.521111","-0.001919","751199","895126","964887","3.515817","0.977023","-0.013728","11406","13281","14180","10132","10705","10947","9812","10098","10214","9692","9620","9592","9069","8767","8651","DualSpot on"
"MA200-0420","43657","73","1","1.10","1.6","2023-07-19T19:00:00","120","2023/07/19","19:00:00","-15.795646667480469","35.00277883303352","0.2","13","300","64","98","-596","-27060","124","2","150","150.08","115.96","34.12","24.24","35.9","8.18","90428","24.19","DUALSPOT-UV-BLUE-GREEN-RED-IR","675463","677280","910220","15.320339","5.030824","0.014980","804875","878216","838103","9.753736","2.929592","0.010614","800098","859157","831521","8.237661","2.414024","0.007621","832802","869506","891252","6.582485","1.869294","0.002225","743884","891405","963113","4.311622","1.211702","0.000694","11906","14288","15452","10557","11410","11776","10242","10727","10928","10129","10237","10280","9587","9607","9615","DualSpot on"
"MA200-0420","43658","73","1","1.10","1.6","2023-07-19T19:05:00","120","2023/07/19","19:05:00","-15.795645534992218","35.00274116615765","0.1","13","300","64","97","-604","-26972","68","2","150","149.56","115.76","33.80","24.16","36.0","8.16","90428","24.13","DUALSPOT-UV-BLUE-GREEN-RED-IR","662240","672071","909473","17.220038","5.719040","0.015380","792407","872686","836598","11.144596","3.386426","0.013639","790015","855340","831067","9.453328","2.802163","0.012393","823993","866260","890664","7.586373","2.177848","0.009048","738773","889573","963098","4.998668","1.415545","0.004374","9639","11958","13111","8907","10018","10503","8718","9533","9876","8700","9157","9342","8291","8424","8476","DualSpot on"
"MA200-0420","43659","73","1","1.10","1.6","2023-07-19T19:10:00","120","2023/07/19","19:10:00","-15.795690298080444","35.00270199938677","0.3","13","300","64","98","-672","-26624","248","2","150","149.67","115.63","34.04","24.13","36.1","8.17","90436","24.06","DUALSPOT-UV-BLUE-GREEN-RED-IR","650277","666548","907221","18.797120","6.297855","0.014390","782945","868741","835907","12.262517","3.753966","0.011737","780860","851049","829425","10.424520","3.110248","0.009534","815102","861675","888073","8.381420","2.417861","0.004102","737941","892006","967222","5.540691","1.572214","-0.004726","8011","9986","10981","7167","8003","8372","6973","7513","7743","6898","7073","7144","6548","6428","6381","DualSpot on"
"MA200-0420","43660","73","1","1.10","1.6","2023-07-19T19:15:00","120","2023/07/19","19:15:00","-15.79566514492035","35.002755832858384","0.2","13","300","72","97","-752","-26956","76","2","150","149.63","115.95","33.67","24.06","36.2","8.16","90444","24.00","DUALSPOT-UV-BLUE-GREEN-RED-IR","637272","660658","905319","20.599922","6.973556","0.014822","776992","869491","840190","13.529325","4.175860","0.012954","672796","738727","722550","11.524615","3.465003","0.011844","806049","857462","886220","9.281828","2.693861","0.007829","732655","889429","966162","6.149523","1.749958","0.001216","9131","11787","13145","8099","9288","9820","7876","8747","9121","7790","8223","8401","7334","7374","7390","DualSpot on"
"MA200-0420","43661","73","1","1.10","1.6","2023-07-19T19:20:00","120","2023/07/19","19:20:00","-15.795641124248505","35.00277066626586","0.3","13","300","64","98","-645","-26979","29","2","150","150.65","115.74","34.91","24.00","36.3","8.14","90448","23.94","DUALSPOT-UV-BLUE-GREEN-RED-IR","624474","654990","904046","22.492154","7.693317","0.012636","765207","863836","838428","14.854480","4.622293","0.009778","767144","848906","833422","12.673946","3.839010","0.008031","804559","861460","892920","10.226339","2.984871","0.002896","727562","887270","965629","6.793766","1.939409","-0.005323","9602","12111","13415","8487","9481","9930","8244","8895","9178","8187","8364","8437","7775","7581","7504","DualSpot on"
"MA200-0420","43662","73","1","1.10","1.6","2023-07-19T19:25:00","120","2023/07/19","19:25:00","-15.795660734176636","35.00277766631916","0.2","13","300","64","97","-608","-27070","212","2","150","149.44","115.56","33.88","23.95","36.4","8.12","90456","23.88","DUALSPOT-UV-BLUE-GREEN-RED-IR","614783","653138","908778","24.578038","8.502426","0.013455","752083","857648","836869","16.388599","5.151832","0.012545","754884","842917","831278","14.023168","4.286486","0.011342","792548","855215","889594","11.349242","3.338829","0.008489","720222","883152","963404","7.573971","2.173956","0.004554","10601","14028","15840","9841","11587","12388","9693","10966","11526","9748","10482","10788","9431","9671","9768","DualSpot on"
"MA200-0420","43663","73","1","1.10","1.6","2023-07-19T19:30:00","120","2023/07/19","19:30:00","-15.795639991760254","35.00273716612719","0.2","13","300","64","97","-692","-26836","156","2","150","150.15","116.30","33.85","23.88","36.5","8.11","90460","23.81","DUALSPOT-UV-BLUE-GREEN-RED-IR","600813","645363","904466","26.403160","9.225800","0.013539","744220","856270","839552","17.766478","5.636239","0.013146","748194","842213","833996","15.242166","4.699630","0.012614","781767","849417","886463","12.370889","3.668103","0.010716","713014","878664","960593","8.288892","2.390848","0.006799","9217","12553","14345","8782","10610","11459","8701","10134","10773","8813","9760","10160","8587","8952","9100","DualSpot on"
"MA200-0420","43664","73","1","1.10","1.6","2023-07-19T19:35:00","120","2023/07/19","19:35:00","-15.795641303062439","35.002773666288704","0.1","13","300","64","98","-632","-26780","-84","2","150","150.01","115.79","34.22","23.84","36.7","8.14","90460","23.81","DUALSPOT-UV-BLUE-GREEN-RED-IR","591717","642125","906230","28.126912","9.924973","0.012989","735648","853450","840728","19.065912","6.103832","0.012720","736165","834899","830068","16.393297","5.097705","0.012082","775542","848112","887913","13.336961","3.985262","0.010240","709452","878367","962289","8.967953","2.600936","0.006909","8743","12001","13777","8319","10130","10982","8253","9658","10292","8370","9298","9694","8192","8576","8733","DualSpot on"
"MA200-0420","43665","73","1","1.10","1.6","2023-07-19T19:40:00","120","2023/07/19","19:40:00","-15.795652687549591","35.0027478330303","0.1","13","300","64","98","-720","-26812","-95","2","150","149.89","115.36","34.52","23.81","36.8","8.15","90464","23.69","DUALSPOT-UV-BLUE-GREEN-RED-IR","584852","640200","909188","29.623272","10.550415","0.012870","724705","846746","837596","20.191810","6.518734","0.012613","731098","834487","832556","17.388584","5.450570","0.012192","771718","848619","890930","14.170077","4.263803","0.010133","707433","879325","965159","9.552692","2.789629","0.010426","7618","10640","12312","7235","8909","9707","7162","8485","9089","7245","8094","8460","7080","7635","7863","DualSpot on"
"MA200-0420","43666","73","1","1.10","1.6","2023-07-19T19:45:00","120","2023/07/19","19:45:00","-15.795662522315979","35.0027464996092","0.1","13","300","64","98","-825","-26725","-650","2","150","149.63","115.88","33.75","23.77","36.9","8.17","90464","23.69","DUALSPOT-UV-BLUE-GREEN-RED-IR","577482","637251","910357","31.018520","11.137280","0.013196","717426","843867","838057","21.256954","6.916505","0.013874","724621","832152","833057","18.334774","5.790643","0.013900","767274","848151","892844","14.963343","4.533622","0.012968","704007","878416","965876","10.111534","2.969198","0.012610","7072","10213","11973","6814","8737","9664","6779","8365","9097","6868","8020","8521","6737","7432","7721","DualSpot on"
"MA200-0420","43667","73","1","1.10","1.6","2023-07-19T19:50:00","120","2023/07/19","19:50:00","-15.795614957809448","35.00279033300467","0.0","13","300","64","98","-720","-26941","262","2","150","149.77","115.84","33.93","23.75","37.0","8.21","90468","23.69","DUALSPOT-UV-BLUE-GREEN-RED-IR","568182","632668","910084","32.600070","11.827782","0.013342","708983","840003","837907","22.414428","7.356024","0.013654","717248","829092","833122","19.357814","6.162285","0.013457","759044","843911","890998","15.826210","4.829364","0.012423","699854","876840","966048","10.717106","3.164771","0.011849","8019","11952","14191","7407","9602","10674","7332","9092","9915","7473","8744","9302","7302","8051","8365","DualSpot on"
"MA200-0420","43668","73","1","1.10","1.6","2023-07-19T19:55:00","120","2023/07/19","19:55:00","-15.795586824417114","35.00280199944973","0.2","13","300","64","97","-708","-26816","-20","2","150","150.27","115.73","34.54","23.71","37.2","8.23","90472","23.63","DUALSPOT-UV-BLUE-GREEN-RED-IR","553411","623409","905565","34.735500","12.800488","0.013082","700651","837519","840161","23.867430","7.914796","0.012626","705471","822086","829931","20.630452","6.626448","0.011940","747841","837322","887317","16.900656","5.195126","0.009974","691904","871474","962464","11.485744","3.405111","0.005507","10838","16538","19865","9307","11991","13322","9129","11155","12113","9314","10622","11203","9278","9719","9904","DualSpot on"
"MA200-0420","43669","73","1","1.10","1.6","2023-07-19T20:00:00","120","2023/07/19","20:00:00","-15.795632779598236","35.002684499602765","0.0","13","300","64","97","-732","-27044","456","2","150","149.77","115.27","34.50","23.65","37.3","8.21","90472","23.56","DUALSPOT-UV-BLUE-GREEN-RED-IR","533873","612109","903764","38.121828","14.424950","0.012915","683945","828378","838396","26.064174","8.802265","0.013262","696104","820581","834318","22.489674","7.334302","0.012790","735500","831647","886053","18.421334","5.730988","0.011117","684230","867898","961694","12.522346","3.735568","0.006786","17254","27656","33988","14127","19070","21590","13390","17034","18797","13235","15583","16643","12562","13380","13728","DualSpot on"
"MA200-0420","43670","73","1","1.10","1.6","2023-07-19T20:05:00","120","2023/07/19","20:05:00","-15.79563969373703","35.00268949940801","0.3","14","300","64","98","-772","-26944","-160","2","150","150.27","115.88","34.39","23.59","37.4","8.22","90476","23.50","DUALSPOT-UV-BLUE-GREEN-RED-IR","521510","605545","904723","40.581744","15.614456","0.012459","672663","823271","839377","27.846880","9.539075","0.013425","685124","815332","834037","24.048718","7.944936","0.013435","731944","834544","893400","19.728356","6.207923","0.012713","682234","870720","967777","13.441673","4.040168","0.010607","12468","20313","25220","11404","15881","18213","11170","14740","16501","11316","13912","15104","11082","12371","12925","DualSpot on"
"MA200-0420","43671","73","1","1.10","1.6","2023-07-19T20:10:00","120","2023/07/19","20:10:00","-15.795591115951538","35.00279966625385","0.0","14","300","64","98","-720","-26872","-220","2","150","149.87","115.83","34.04","23.52","37.6","8.21","90472","23.44","DUALSPOT-UV-BLUE-GREEN-RED-IR","504676","596921","908624","44.242152","17.452336","0.012187","653262","811534","836649","30.411946","10.633852","0.013488","668582","806346","832321","26.257590","8.836522","0.013717","716919","826883","891278","21.547982","6.888548","0.013282","672720","865785","966432","14.690990","4.463780","0.012316","18561","31711","40278","16416","23841","27833","15832","21745","24744","15760","20059","22079","15066","17383","18395","DualSpot on"
"MA200-0420","43672","73","1","1.10","1.6","2023-07-19T20:15:00","120","2023/07/19","20:15:00","-15.795601844787598","35.00280999974348","0.0","14","300","64","98","-844","-26816","-232","2","150","149.63","115.44","34.18","23.46","37.7","8.21","90472","23.38","DUALSPOT-UV-BLUE-GREEN-RED-IR","491329","588408","907422","46.848004","18.785194","0.011705","644620","809564","841713","32.378952","11.496498","0.013194","656874","800143","831794","27.991882","9.556212","0.013528","705499","820956","889816","23.010354","7.450870","0.013311","665409","862094","965681","15.722717","4.818600","0.012007","13258","22901","29356","12631","18707","22052","12472","17479","20074","12709","16503","18320","12484","14499","15390","DualSpot on"
"MA200-0420","43673","73","1","1.10","1.6","2023-07-19T20:20:00","120","2023/07/19","20:20:00","-15.795618057250977","35.00278249965049","0.2","13","300","64","98","-737","-26779","179","2","150","149.94","115.58","34.36","23.40","37.8","8.18","90468","23.31","DUALSPOT-UV-BLUE-GREEN-RED-IR","477954","578634","902930","49.101752","19.960362","0.011397","631187","800258","838732","34.127596","12.292121","0.013285","648010","796413","833583","29.561018","10.238754","0.014033","692516","812347","885352","24.360034","8.000654","0.014592","656420","855757","962114","16.708767","5.185808","0.016055","11452","20090","26006","11215","17167","20517","11270","16493","19260","11715","16054","18176","11917","14930","16286","DualSpot on"
"MA200-0420","43674","73","1","1.10","1.6","2023-07-19T20:25:00","120","2023/07/19","20:25:00","-15.795508027076721","35.002816332736984","0.2","13","300","64","98","-704","-26879","245","2","150","150.00","115.09","34.91","23.35","37.8","8.16","90472","23.25","DUALSPOT-UV-BLUE-GREEN-RED-IR","470248","575847","909772","51.488328","21.201176","0.010648","618460","792546","837955","36.079720","13.172305","0.012022","636371","790140","833408","31.354050","11.005497","0.012341","682255","807870","886080","25.938640","8.633179","0.012519","648716","852116","962299","17.911786","5.631969","0.013682","12179","20874","26961","12574","18689","22205","12934","18233","21098","13761","18176","20379","14602","17851","19342","DualSpot on"
"MA200-0420","43675","73","1","1.10","1.6","2023-07-19T20:30:00","120","2023/07/19","20:30:00","-15.79554283618927","35.0028181662783","0.1","13","300","68","98","-760","-26884","320","3","150","150.01","113.52","36.49","23.32","37.9","8.18","90464","23.25","DUALSPOT-UV-BLUE-GREEN-RED-IR","780659","708632","906428","0.000000","0.000000","0.000000","890434","909236","841433","0.000000","0.000000","0.000000","867925","880014","830449","0.000000","0.000000","0.000000","887944","884293","888999","0.000000","0.000000","0.000000","779878","904753","964553","0.000000","0.000000","0.000000","","","","","","","","","","","","","","","","Tape advance-DualSpot on"
"MA200-0420","43676","73","1","1.10","1.6","2023-07-19T20:35:00","120","2023/07/19","20:35:00","-15.795543253421783","35.00278649944812","0.1","13","300","68","98","-1183","-26516","33","3","150","150.21","113.93","36.29","23.30","38.0","8.17","90468","23.19","DUALSPOT-UV-BLUE-GREEN-RED-IR","750760","701118","911133","0.000000","0.000000","0.000000","864159","898935","839847","0.000000","0.000000","0.000000","851552","877150","834271","0.000000","0.000000","0.000000","869784","877240","887353","0.000000","0.000000","0.000000","769119","899766","963034","0.000000","0.000000","0.000000","","","","","","","","","","","","","","","","Tape advance-DualSpot on"
"MA200-0420","43677","73","1","1.10","1.6","2023-07-19T20:40:00","120","2023/07/19","20:40:00","-15.795575737953186","35.00280866632238","0.1","13","300","64","97","-756","-26696","-1596","3","150","150.28","113.64","36.64","23.23","38.0","8.13","90468","23.13","DUALSPOT-UV-BLUE-GREEN-RED-IR","720402","689096","908755","3.877954","1.472948","0.057493","839826","888222","837249","2.551943","0.890016","0.000000","831787","869166","832794","2.174065","0.739598","0.000000","860056","877675","892989","1.759870","0.581956","0.000000","764269","901250","968170","1.165723","0.372613","0.000000","20043","23610","25794","16647","18006","16647","15883","16757","15883","15537","15933","15537","14330","14205","14330","DualSpot on"
"MA200-0420","43678","73","1","1.10","1.6","2023-07-19T20:45:00","120","2023/07/19","20:45:00","-15.795630514621735","35.00275533297099","0.3","12","300","64","98","-624","-27052","48","3","150","150.42","113.60","36.82","23.21","38.1","8.14","90464","23.13","DUALSPOT-UV-BLUE-GREEN-RED-IR","700398","681121","907988","6.616009","2.555582","0.039869","823806","882009","837139","4.473424","1.582521","0.032994","817311","863335","832042","3.843128","1.324832","0.028869","846944","872139","891484","3.130666","1.046885","0.020811","756336","897508","967081","2.101316","0.675156","0.000000","14157","17269","19229","12539","13942","14710","12198","13195","13720","12106","12668","12950","11505","11478","11505","DualSpot on"
"MA200-0420","43679","73","1","1.10","1.6","2023-07-19T20:50:00","120","2023/07/19","20:50:00","-15.795519530773163","35.00283049955033","0.4","12","300","64","97","-680","-27003","292","3","150","149.69","113.47","36.22","23.18","38.1","8.10","90464","23.06","DUALSPOT-UV-BLUE-GREEN-RED-IR","682359","673199","906469","9.065685","3.562111","0.035412","808044","874632","835575","6.218417","2.233379","0.033455","804047","857556","831006","5.361815","1.875150","0.032076","835101","866981","890054","4.382798","1.483511","0.027933","749098","894005","966052","2.956199","0.960465","0.000000","12680","16320","18676","11400","13320","14395","11112","12613","13420","11071","12093","12615","10524","11002","10524","DualSpot on"
"MA200-0420","43680","73","1","1.10","1.6","2023-07-19T20:55:00","120","2023/07/19","20:55:00","-15.795629680156708","35.00274749961682","0.2","12","300","64","97","-692","-26934","65","3","150","150.34","113.90","36.44","23.13","38.2","8.09","90468","23.00","DUALSPOT-UV-BLUE-GREEN-RED-IR","666417","665789","904686","11.234360","4.471830","0.030333","800347","874796","840687","7.787957","2.829474","0.029163","792500","852592","830380","6.732226","2.377343","0.027263","824735","862544","889039","5.514097","1.881070","0.023570","742817","891087","965390","3.729881","1.220087","0.018154","11183","14663","16964","10215","12126","13217","9988","11441","12234","9964","10945","11453","9488","9952","10178","DualSpot on"
"MA200-0420","43681","73","1","1.10","1.6","2023-07-19T21:00:00","120","2023/07/19","21:00:00","-15.795599639415741","35.00277299946174","0.1","12","300","64","98","-640","-26940","72","3","150","150.41","113.74","36.66","23.08","38.1","8.02","90468","23.00","DUALSPOT-UV-BLUE-GREEN-RED-IR","657039","664203","910628","13.310020","5.365413","0.027038","786954","868122","839238","9.302741","3.419089","0.026561","785256","851815","833772","8.058563","2.877438","0.025918","813520","856797","886623","6.616638","2.280130","0.023863","735696","886978","963438","4.493105","1.478077","0.015054","10718","14315","16744","9872","11921","13112","9681","11324","12237","9724","10920","11548","9373","9829","10053","DualSpot on"
"MA200-0420","43682","73","1","1.10","1.6","2023-07-19T21:05:00","120","2023/07/19","21:05:00","-15.795629382133484","35.00281483284198","0.1","12","300","64","98","-668","-26875","76","3","150","149.50","113.61","35.89","23.02","38.0","7.94","90468","22.94","DUALSPOT-UV-BLUE-GREEN-RED-IR","643099","656936","907951","15.161247","6.170643","0.025631","773832","860859","836677","10.683177","3.956371","0.025208","774592","846640","832484","9.275858","3.334588","0.024543","810448","859155","892263","7.631546","2.643791","0.022332","729394","883509","961943","5.198055","1.715463","0.017243","9570","13177","15653","9007","11097","12327","8895","10574","11517","8962","10165","10803","8667","9239","9521","DualSpot on"
"MA200-0420","43683","73","1","1.10","1.6","2023-07-19T21:10:00","120","2023/07/19","21:10:00","-15.79567801952362","35.00266766641289","0.2","12","300","64","98","-711","-26969","96","3","150","149.77","113.35","36.43","22.98","37.9","7.87","90468","22.88","DUALSPOT-UV-BLUE-GREEN-RED-IR","632188","651678","907438","16.819728","6.919346","0.024224","763903","856070","836231","11.919017","4.457927","0.024811","765764","842570","832044","10.364784","3.762251","0.024941","801992","855021","891044","8.541825","2.985014","0.023850","729341","887034","967943","5.826675","1.939765","0.024351","8594","12072","14503","8082","10207","11476","7976","9747","10756","8057","9398","10118","7747","8602","9028","DualSpot on"
"MA200-0420","43684","73","1","1.10","1.6","2023-07-19T21:15:00","120","2023/07/19","21:15:00","-15.7955521941185","35.00279249972664","0.1","12","300","64","98","-680","-26988","208","3","150","150.15","113.76","36.38","22.93","37.9","7.82","90472","22.88","DUALSPOT-UV-BLUE-GREEN-RED-IR","621193","645736","905522","18.364570","7.625759","0.023069","759497","857004","841221","13.094648","4.945880","0.024719","756786","837875","830871","11.403933","4.178339","0.024955","794338","851392","890221","9.410924","3.317795","0.024818","724107","884062","966765","6.430130","2.153271","0.021433","7975","11404","13838","7660","9942","11327","7583","9494","10600","7664","9176","10000","7410","8197","8594","DualSpot on"
"MA200-0420","43685","73","1","1.10","1.6","2023-07-19T21:20:00","120","2023/07/19","21:20:00","-15.79557067155838","35.0028013328556","0.3","12","300","64","98","-728","-27000","-4","3","150","150.42","113.72","36.70","22.87","38.0","7.81","90472","22.75","DUALSPOT-UV-BLUE-GREEN-RED-IR","616212","645423","911085","19.782490","8.284137","0.021750","749379","850992","839101","14.184447","5.400437","0.022622","753228","838744","834944","12.369174","4.567337","0.022876","786177","846887","888246","10.223266","3.629306","0.022111","719290","881365","965803","6.993490","2.358324","0.023141","7323","10537","12853","7104","9182","10460","7046","8800","9827","7166","8516","9259","6920","7805","8256","DualSpot on"
"MA200-0420","43686","73","1","1.10","1.6","2023-07-19T21:25:00","120","2023/07/19","21:25:00","-15.795580267906189","35.00275683309883","0.1","12","300","64","98","-654","-26995","79","3","150","150.15","113.86","36.28","22.84","38.1","7.82","90468","22.75","DUALSPOT-UV-BLUE-GREEN-RED-IR","607414","640507","909656","21.066234","8.895412","0.021885","741897","847229","838841","15.159064","5.813563","0.023007","745954","834877","834033","13.233776","4.920173","0.023331","779409","843350","887015","10.951034","3.911481","0.023022","714647","878524","964475","7.504614","2.542949","0.022386","6622","9895","12287","6345","8440","9743","6304","8073","9120","6412","7802","8574","6270","7108","7537","DualSpot on"
"MA200-0420","43687","73","1","1.10","1.6","2023-07-19T21:30:00","120","2023/07/19","21:30:00","-15.795585811138153","35.00274816621095","0.3","12","300","64","98","-704","-26891","244","3","150","149.61","113.89","35.72","22.83","38.3","7.89","90476","22.75","DUALSPOT-UV-BLUE-GREEN-RED-IR","600104","636712","909459","22.256824","9.465973","0.021512","734551","843182","838144","16.073212","6.205880","0.023329","740277","832506","834491","14.049486","5.257868","0.024078","774268","841297","887310","11.642945","4.184448","0.024647","711787","877763","965369","7.998224","2.722790","0.024605","6140","9381","11780","5950","8141","9520","5946","7848","8986","6095","7666","8548","6054","7033","7538","DualSpot on"
"MA200-0420","43688","73","1","1.10","1.6","2023-07-19T21:35:00","120","2023/07/19","21:35:00","-15.795658886432648","35.002755832858384","0.0","12","300","64","98","-658","-26929","-233","3","150","149.65","113.74","35.90","22.80","38.5","7.93","90472","22.69","DUALSPOT-UV-BLUE-GREEN-RED-IR","592247","632583","909451","23.573582","10.115841","0.021074","726865","839153","838035","17.110442","6.674707","0.024233","732538","828099","833474","14.980296","5.664273","0.025454","773275","844112","893259","12.440001","4.518047","0.027218","706603","874537","963961","8.578810","2.944807","0.028397","6799","10631","13512","6760","9680","11548","6794","9398","10981","7030","9322","10629","7130","8638","9427","DualSpot on"
"MA200-0420","43689","73","1","1.10","1.6","2023-07-19T21:40:00","120","2023/07/19","21:40:00","-15.795600533485413","35.002742332872","0.1","11","300","64","98","-684","-26944","180","3","150","149.69","113.90","35.79","22.75","38.7","7.96","90472","22.63","DUALSPOT-UV-BLUE-GREEN-RED-IR","579861","624446","904773","25.146504","10.887333","0.019777","713861","830207","833973","18.405390","7.247681","0.021862","721587","821406","830947","16.157391","6.166752","0.022717","762671","837696","890255","13.460942","4.934264","0.023739","699453","869724","961413","9.319340","3.227228","0.026441","8111","12661","16135","8428","11868","14103","8579","11656","13555","8992","11667","13215","9082","11023","12052","DualSpot on"
"MA200-0420","43690","73","1","1.10","1.6","2023-07-19T21:45:00","120","2023/07/19","21:45:00","-15.795627236366272","35.002796499757096","0.1","11","300","64","98","-696","-26788","119","3","150","150.42","113.81","36.61","22.69","39.3","8.13","90472","22.56","DUALSPOT-UV-BLUE-GREEN-RED-IR","564565","616381","905764","27.936928","12.295319","0.018032","702416","828141","841587","20.936646","8.407192","0.019802","705515","813671","831776","18.517684","7.214177","0.020698","746679","830038","889942","15.551903","5.818949","0.021533","693442","870429","968162","10.886181","3.846404","0.023968","14401","22586","29020","16488","23476","28165","17218","23750","27919","18433","24241","27714","19232","23623","26022","DualSpot on"
"MA200-0420","43691","73","1","1.10","1.6","2023-07-19T21:50:00","120","2023/07/19","21:50:00","-15.795614957809448","35.00283466652036","0.1","12","300","64","98","-684","-26936","-20","3","150","150.02","113.66","36.35","22.66","39.6","8.22","90472","22.56","DUALSPOT-UV-BLUE-GREEN-RED-IR","551689","608759","905099","30.179280","13.470711","0.017753","682396","813207","834359","22.974570","9.370740","0.019451","691724","806093","831157","20.423412","8.078450","0.020018","734061","823918","889830","17.250626","6.550604","0.020786","684481","865863","968005","12.172523","4.357609","0.022531","11587","18991","24960","13291","19649","24029","13919","19738","23546","14994","20192","23375","15809","19644","21783","DualSpot on"
"MA200-0420","43692","73","1","1.10","1.6","2023-07-19T21:55:00","120","2023/07/19","21:55:00","-15.79563719034195","35.00276366644539","0.1","12","300","64","98","-688","-26872","136","3","150","150.54","114.38","36.16","22.61","40.2","8.39","90472","22.50","DUALSPOT-UV-BLUE-GREEN-RED-IR","546039","606923","910553","31.818630","14.377689","0.018156","676767","812523","839786","24.456254","10.102663","0.020009","685617","804821","835308","21.811964","8.736436","0.020821","723361","817469","887764","18.493250","7.105951","0.021725","677376","861603","966927","13.113056","4.742037","0.023978","8418","14731","19935","9603","15004","18806","10079","15106","18465","10900","15407","18220","11487","14850","16755","DualSpot on"
"MA200-0420","43693","73","1","1.10","1.6","2023-07-19T22:00:00","120","2023/07/19","22:00:00","-15.795649886131287","35.0027464996092","0.0","12","300","64","98","-624","-27044","107","3","150","149.56","113.66","35.90","22.61","40.7","8.58","90468","22.56","DUALSPOT-UV-BLUE-GREEN-RED-IR","538016","601353","908683","33.092842","15.093929","0.017803","667575","806081","837821","25.596244","10.667859","0.019309","677404","799630","834102","22.879426","9.242706","0.019978","715813","813256","886930","19.454434","7.531674","0.020376","671421","857867","965599","13.857498","5.037152","0.020657","6584","11719","16026","7435","11672","14700","7796","11709","14361","8484","11898","14055","9149","11484","12818","DualSpot on"
"MA200-0420","43694","73","1","1.10","1.6","2023-07-19T22:05:00","120","2023/07/19","22:05:00","-15.795621871948242","35.00273716612719","0.1","13","300","64","97","-656","-26963","-116","3","150","149.96","114.37","35.59","22.60","41.1","8.69","90468","22.50","DUALSPOT-UV-BLUE-GREEN-RED-IR","533895","599285","910876","34.109036","15.681679","0.017994","662992","803985","839405","26.478174","11.120545","0.019948","668982","792978","830489","23.703348","9.644793","0.020639","712223","812418","889046","20.192562","7.870569","0.021683","668913","857545","967462","14.432072","5.270896","0.022595","5218","9699","13511","5716","9428","12116","5981","9378","11709","6475","9552","11518","7018","9173","10414","DualSpot on"
"MA200-0420","43695","73","1","1.10","1.6","2023-07-19T22:10:00","120","2023/07/19","22:10:00","-15.79566901922226","35.0027053328231","0.1","13","300","64","98","-675","-26916","204","3","150","150.21","114.22","35.99","22.55","41.3","8.73","90464","22.44","DUALSPOT-UV-BLUE-GREEN-RED-IR","528635","595222","908720","34.858844","16.124832","0.017775","657379","799624","837622","27.107994","11.446126","0.019393","667947","794149","834101","24.284946","9.930918","0.020053","706397","808042","886344","20.708430","8.104945","0.020307","665210","854840","965965","14.826534","5.429042","0.020262","3855","7231","10136","4087","6705","8618","4227","6599","8240","4531","6532","7819","4824","6137","6896","DualSpot on"
"MA200-0420","43696","73","1","1.10","1.6","2023-07-19T22:15:00","120","2023/07/19","22:15:00","-15.795695662498474","35.00261666672304","0.1","13","300","64","97","-648","-26903","172","3","150","150.27","114.14","36.13","22.52","41.6","8.84","90460","22.44","DUALSPOT-UV-BLUE-GREEN-RED-IR","523884","591988","908208","35.714280","16.614243","0.016843","652029","795968","836880","27.844362","11.821925","0.018513","663539","791653","834252","24.971566","10.264158","0.019028","702516","806278","886859","21.324220","8.386275","0.019797","662120","853278","966091","15.310982","5.628754","0.021125","4402","7956","11047","4782","7710","9870","4994","7657","9515","5412","7811","9366","5929","7721","8763","DualSpot on"
"MA200-0420","43697","73","1","1.10","1.6","2023-07-19T22:20:00","120","2023/07/19","22:20:00","-15.795605301856995","35.00276999967173","0.1","13","300","64","97","-552","-27096","764","3","150","150.34","114.45","35.89","22.48","42.2","8.98","90448","22.38","DUALSPOT-UV-BLUE-GREEN-RED-IR","519784","588728","906387","36.299508","16.966522","0.017446","648181","793082","835900","28.319726","12.065073","0.018495","659236","788269","832448","25.406644","10.476303","0.019119","703892","809608","892064","21.709190","8.558772","0.019098","658986","850754","964328","15.601086","5.741961","0.017883","3003","5765","8189","3078","5022","6465","3155","4907","6136","3374","4822","5764","3540","4406","4910","DualSpot on"
"MA200-0420","43698","73","1","1.10","1.6","2023-07-19T22:25:00","120","2023/07/19","22:25:00","-15.795557141304016","35.00279216631316","0.3","13","300","64","98","-720","-27088","128","3","150","149.87","114.18","35.70","22.44","42.5","9.06","90452","22.38","DUALSPOT-UV-BLUE-GREEN-RED-IR","516650","586489","906061","36.869648","17.314060","0.017404","644940","790811","835526","28.778490","12.308097","0.019049","656828","787016","832887","25.824744","10.686224","0.019682","701895","808870","892762","22.076786","8.728202","0.019912","657624","850395","965035","15.883228","5.858665","0.021316","2932","5718","8184","2978","5047","6592","3040","4882","6182","3230","4762","5763","3451","4567","5218","DualSpot on"
"MA200-0420","43699","73","1","1.10","1.6","2023-07-19T22:30:00","120","2023/07/19","22:30:00","-15.795675694942474","35.00275316601619","0.1","12","300","64","98","-724","-26872","-100","3","150","150.21","113.98","36.23","22.42","42.7","9.10","90444","22.31","DUALSPOT-UV-BLUE-GREEN-RED-IR","513183","583837","905006","37.424624","17.650532","0.016886","646883","794821","841742","29.219470","12.544541","0.018692","653223","784250","831617","26.224514","10.888787","0.019216","697909","805797","890838","22.427736","8.894295","0.019955","654849","848135","963500","16.148746","5.967230","0.019338","2859","5454","7770","2868","4837","6319","2911","4641","5869","3089","4599","5591","3254","4185","4731","DualSpot on"
"MA200-0420","43700","73","1","1.10","1.6","2023-07-19T22:35:00","120","2023/07/19","22:35:00","-15.79556918144226","35.002751833060756","0.2","12","300","64","98","-680","-26932","460","3","150","150.47","114.49","35.98","22.39","42.8","9.11","90440","22.31","DUALSPOT-UV-BLUE-GREEN-RED-IR","513806","585850","911131","37.973920","17.981082","0.016716","642718","791330","839942","29.651416","12.774486","0.018530","650586","782564","831505","26.616436","11.087886","0.019305","694953","803803","890046","22.767158","9.054050","0.019875","653137","847184","963428","16.401718","6.071153","0.019993","2817","5396","7715","2796","4737","6207","2841","4594","5845","2974","4454","5432","3086","4035","4592","DualSpot on"
"MA200-0420","43701","73","1","1.10","1.6","2023-07-19T22:40:00","120","2023/07/19","22:40:00","-15.795659184455872","35.00276149949059","0.2","12","300","64","98","-608","-26896","140","3","150","149.63","114.41","35.21","22.38","42.8","9.12","90440","22.31","DUALSPOT-UV-BLUE-GREEN-RED-IR","510930","583801","910894","38.515532","18.308686","0.016822","640032","789593","840033","30.080284","13.003020","0.018718","647342","780144","830567","27.001544","11.282763","0.019456","691922","801713","889138","23.101334","9.211893","0.020378","650767","845321","962342","16.653561","6.176641","0.021896","2780","5464","7897","2778","4811","6359","2794","4594","5887","2930","4497","5536","3074","4185","4839","DualSpot on"
"MA200-0420","43702","73","1","1.10","1.6","2023-07-19T22:45:00","120","2023/07/19","22:45:00","-15.795609474182129","35.002747166436166","0.1","12","300","64","98","-564","-26919","-296","3","150","150.15","114.43","35.72","22.37","42.9","9.14","90436","22.25","DUALSPOT-UV-BLUE-GREEN-RED-IR","507611","581190","909677","39.035484","18.619762","0.016310","636529","786765","838827","30.486686","13.217639","0.018033","644634","778314","830116","27.368444","11.467886","0.018808","689462","800196","888747","23.419754","9.361299","0.019468","649186","844459","962304","16.892436","6.275077","0.019973","2668","5115","7346","2632","4454","5848","2662","4302","5485","2791","4196","5131","2916","3849","4401","DualSpot on"
"MA200-0420","43703","73","1","1.10","1.6","2023-07-19T22:50:00","120","2023/07/19","22:50:00","-15.795563638210297","35.002811999525875","0.2","13","300","64","98","-684","-27019","-8","3","150","149.74","114.14","35.60","22.33","43.0","9.12","90436","22.25","DUALSPOT-UV-BLUE-GREEN-RED-IR","504968","579228","909165","39.501312","18.900364","0.016227","633411","784262","837827","30.852376","13.415450","0.018315","645715","780855","834248","27.697606","11.637279","0.019080","691426","803665","893872","23.705498","9.498042","0.019881","650872","847690","966857","17.104000","6.365222","0.021533","2397","4629","6677","2375","4119","5460","2394","3950","5077","2511","3853","4750","2589","3537","4099","DualSpot on"
"MA200-0420","43704","73","1","1.10","1.6","2023-07-19T22:55:00","120","2023/07/19","22:55:00","-15.795595705509186","35.00272583286278","0.2","13","300","64","98","-633","-27079","87","3","150","150.21","114.65","35.56","22.33","43.1","9.18","90440","22.25","DUALSPOT-UV-BLUE-GREEN-RED-IR","502419","577405","908793","39.959804","19.174336","0.016028","631064","782670","837694","31.213788","13.604798","0.017617","644221","780355","835071","28.024634","11.800313","0.018269","684989","797423","888079","23.989068","9.629929","0.018963","649963","847572","967563","17.314704","6.450754","0.019049","2348","4525","6533","2336","3947","5191","2368","3806","4852","2481","3720","4552","2567","3360","3830","DualSpot on"
"MA200-0420","43705","73","1","1.10","1.6","2023-07-19T23:00:00","120","2023/07/19","23:00:00","-15.795614123344421","35.002796166343614","0.1","13","300","64","98","-664","-26924","-4","3","150","150.21","114.18","36.03","22.28","43.1","9.11","90452","22.19","DUALSPOT-UV-BLUE-GREEN-RED-IR","498536","574348","907297","40.567944","19.540546","0.015693","627063","779407","836365","31.688338","13.862354","0.017713","640028","776887","833214","28.451784","12.023147","0.018653","685733","799803","892350","24.357986","9.809413","0.019523","646870","844817","965567","17.586800","6.570646","0.022030","3128","5969","8609","3081","5298","7023","3105","5134","6618","3241","4997","6181","3329","4647","5434","DualSpot on"
"MA200-0420","43706","73","1","1.10","1.6","2023-07-19T23:05:00","120","2023/07/19","23:05:00","-15.795699298381805","35.00270966603421","0.1","13","300","64","98","-700","-26912","88","3","150","149.44","114.22","35.22","22.18","43.1","9.02","90456","22.06","DUALSPOT-UV-BLUE-GREEN-RED-IR","496030","573149","909112","41.269744","19.949452","0.015329","625055","778985","838311","32.239636","14.151398","0.017221","634621","772226","830277","28.949950","12.271866","0.017893","680013","794949","888726","24.788888","10.012662","0.018980","642651","840804","962348","17.905442","6.708058","0.021738","3608","6819","9823","3578","6083","8044","3621","5863","7512","3784","5789","7148","3897","5450","6380","DualSpot on"
"MA200-0420","43707","73","1","1.10","1.6","2023-07-19T23:10:00","120","2023/07/19","23:10:00","-15.795716643333435","35.00272649945691","0.0","13","300","64","98","-636","-26980","-200","3","150","150.15","115.05","35.10","22.11","43.0","8.95","90464","22.00","DUALSPOT-UV-BLUE-GREEN-RED-IR","490869","568871","906344","42.017416","20.390716","0.015347","619528","774181","835797","32.828960","14.466279","0.017461","633418","772730","833095","29.482106","12.546648","0.018539","673549","789257","884352","25.252230","10.236717","0.019638","638765","837355","959818","18.250808","6.860037","0.022726","3817","7384","10747","3797","6650","8898","3840","6499","8469","4040","6404","8015","4193","6048","7165","DualSpot on"
"MA200-0420","43708","73","1","1.10","1.6","2023-07-19T23:15:00","120","2023/07/19","23:15:00","-15.795640528202057","35.00276133301668","0.1","13","300","64","98","-675","-27045","-237","3","150","150.54","114.53","36.00","22.06","42.9","8.86","90464","21.94","DUALSPOT-UV-BLUE-GREEN-RED-IR","486187","565421","905162","42.841724","20.872310","0.014613","619650","776772","841460","33.478962","14.806055","0.016221","629255","769921","832564","30.071562","12.842281","0.016947","676230","794554","892466","25.765366","10.480367","0.017951","640333","841272","965919","18.637184","7.026479","0.020005","4227","7856","11304","4207","6996","9207","4272","6817","8713","4494","6789","8362","4712","6457","7514","DualSpot on"
"MA200-0420","43709","73","1","1.10","1.6","2023-07-19T23:20:00","120","2023/07/19","23:20:00","-15.795665323734283","35.002764999633655","0.0","13","300","64","98","-800","-26737","150","3","150","149.90","114.56","35.34","21.98","42.8","8.76","90468","21.88","DUALSPOT-UV-BLUE-GREEN-RED-IR","481604","562006","904114","43.680208","21.367676","0.014691","614763","773007","840350","34.142288","15.158481","0.016548","628908","771793","837130","30.672272","13.148682","0.017393","670966","790505","890105","26.285286","10.730434","0.018480","637170","838962","964901","19.027104","7.198161","0.021405","4299","8232","11999","4292","7392","9867","4353","7197","9331","4553","7098","8854","4754","6786","8022","DualSpot on"
"MA200-0420","43710","73","1","1.10","1.6","2023-07-19T23:25:00","120","2023/07/19","23:25:00","-15.795712649822235","35.00273316609673","0.3","13","300","64","98","-692","-27024","68","3","150","150.35","114.10","36.26","21.89","43.0","8.74","90472","21.75","DUALSPOT-UV-BLUE-GREEN-RED-IR","478473","560137","905357","44.461936","21.830040","0.014136","606184","764476","833814","34.769248","15.490623","0.015707","621996","765411","832617","31.240532","13.437570","0.016415","663242","783433","884261","26.783136","10.966694","0.016995","631967","833842","960588","19.397438","7.359786","0.019367","4024","7490","10833","4073","6791","8974","4135","6615","8487","4377","6537","8035","4534","6227","7262","DualSpot on"
"MA200-0420","43711","73","1","1.10","1.6","2023-07-19T23:30:00","120","2023/07/19","23:30:00","-15.795635342597961","35.00276416633278","0.1","13","300","64","98","-640","-26836","40","3","150","149.69","114.26","35.43","21.79","43.1","8.67","90480","21.63","DUALSPOT-UV-BLUE-GREEN-RED-IR","474255","556981","904551","45.260248","22.309440","0.014333","606758","767472","839976","35.406928","15.834358","0.016149","618154","762843","832335","31.821232","13.737881","0.016975","664170","786570","889988","27.287000","11.212764","0.018098","633328","837378","966257","19.775112","7.528671","0.021058","4103","7946","11682","4137","7191","9662","4219","7036","9176","4424","6967","8741","4617","6658","7912","DualSpot on"
"MA200-0420","43712","73","1","1.10","1.6","2023-07-19T23:35:00","120","2023/07/19","23:35:00","-15.795718610286713","35.00272399955429","0.2","13","300","64","97","-597","-27082","-37","3","150","149.94","114.18","35.76","21.66","43.1","8.57","90484","21.50","DUALSPOT-UV-BLUE-GREEN-RED-IR","471435","555536","906775","46.095452","22.810818","0.013986","603834","766147","841613","36.081068","16.198357","0.015735","612073","757523","829138","32.431160","14.055522","0.016622","657910","781303","886352","27.822080","11.472614","0.017383","629028","833518","963584","20.171788","7.706385","0.020349","4296","8234","12091","4377","7545","10126","4435","7373","9621","4701","7289","9105","4853","6941","8232","DualSpot on"
"MA200-0420","43713","73","1","1.10","1.6","2023-07-19T23:40:00","120","2023/07/19","23:40:00","-15.795734167098999","35.002711666282266","0.0","13","300","64","98","-662","-26925","95","3","150","150.21","114.33","35.88","21.55","43.2","8.50","90484","21.38","DUALSPOT-UV-BLUE-GREEN-RED-IR","467986","553821","910002","47.178812","23.471676","0.013831","596184","759540","838571","36.993488","16.702911","0.015718","608589","756250","831475","33.273598","14.502191","0.016529","654790","780481","888770","28.567086","11.849379","0.017886","627167","833617","966214","20.741478","7.971756","0.021227","5565","10818","16018","5916","10424","14136","6117","10335","13594","6537","10535","13368","6960","10331","12436","DualSpot on"
"MA200-0420","43714","73","1","1.10","1.6","2023-07-19T23:45:00","120","2023/07/19","23:45:00","-15.795696318149567","35.00269616628066","0.0","12","300","64","98","-604","-26875","252","3","150","150.02","114.44","35.58","21.45","43.3","8.43","90488","21.31","DUALSPOT-UV-BLUE-GREEN-RED-IR","460771","547550","905305","48.216400","24.096520","0.013521","587346","751311","833418","37.868556","17.179410","0.015290","605291","755042","833676","34.077684","14.925049","0.016188","647205","774251","884781","29.281948","12.203419","0.017217","621699","828855","963133","21.293606","8.223451","0.020274","5325","10315","15300","5668","9928","13465","5833","9867","13010","6266","9983","12638","6739","9882","11859","DualSpot on"
"MA200-0420","43715","73","1","1.10","1.6","2023-07-19T23:50:00","120","2023/07/19","23:50:00","-15.795678317546844","35.00271016638726","0.4","12","300","64","98","-656","-26900","76","3","150","149.84","114.56","35.28","21.33","43.4","8.37","90480","21.13","DUALSPOT-UV-BLUE-GREEN-RED-IR","459485","547780","910404","49.063364","24.616536","0.013575","586708","752780","838246","38.563800","17.562308","0.015336","600546","751339","832346","34.718504","15.261557","0.016048","647005","776186","889434","29.846848","12.481575","0.016994","621794","830949","967413","21.728492","8.418076","0.019569","4342","8657","13002","4499","8045","11011","4644","7919","10487","4947","7910","10039","5303","7706","9226","DualSpot on"
"MA200-0420","43716","73","1","1.10","1.6","2023-07-19T23:55:00","120","2023/07/19","23:55:00","-15.795688211917877","35.0027526661288","0.0","13","300","64","98","-620","-26854","33","3","150","150.15","114.55","35.60","21.20","43.6","8.33","90476","21.06","DUALSPOT-UV-BLUE-GREEN-RED-IR","454483","543337","907366","49.827080","25.096562","0.013512","581026","747517","835339","39.192044","17.913266","0.015182","599234","751697","835324","35.292900","15.571311","0.016100","646705","777819","893610","30.356918","12.738486","0.017026","618199","827848","965579","22.120846","8.600121","0.020186","3915","7920","11984","4065","7309","10039","4163","7224","9641","4467","7240","9246","4784","7144","8644","DualSpot on"
"MA200-0420","43717","73","1","1.10","1.6","2023-07-20T00:00:00","120","2023/07/20","00:00:00","-15.795661568641663","35.00278016645461","0.2","13","300","64","97","-654","-26979","79","3","150","149.97","114.32","35.64","21.09","43.9","8.34","90460","20.94","DUALSPOT-UV-BLUE-GREEN-RED-IR","449868","540174","908322","50.941008","25.779484","0.012990","575914","744178","836120","40.158076","18.451944","0.014774","590823","744232","831030","36.187108","16.049982","0.015557","636937","769076","887191","31.154114","13.142212","0.016665","615024","826392","966645","22.742988","8.887212","0.019377","5723","11253","16919","6264","11203","15401","6493","11149","14859","6996","11363","14550","7602","11251","13591","DualSpot on"
"MA200-0420","43718","73","1","1.10","1.6","2023-07-20T00:05:00","120","2023/07/20","00:05:00","-15.79565054178238","35.00275433296338","0.2","12","300","68","98","-679","-27079","204","4","150","150.15","115.36","34.78","21.02","44.3","8.41","90460","20.88","DUALSPOT-UV-BLUE-GREEN-RED-IR","781686","704199","904131","0.000000","0.000000","0.000000","882129","897812","836291","0.000000","0.000000","0.000000","865696","875640","832503","0.000000","0.000000","0.000000","880280","875469","886897","0.000000","0.000000","0.000000","771968","893784","963349","0.000000","0.000000","0.000000","","","","","","","","","","","","","","","","Tape advance-DualSpot on"
"MA200-0420","43719","73","1","1.10","1.6","2023-07-20T00:10:00","120","2023/07/20","00:10:00","-15.795595288276672","35.00277566630393","0.2","13","300","68","97","-672","-27008","12","4","150","149.47","115.29","34.17","20.93","44.6","8.43","90460","20.81","DUALSPOT-UV-BLUE-GREEN-RED-IR","770801","704397","910262","0.000000","0.000000","0.000000","875323","899596","841556","0.000000","0.000000","0.000000","855288","872348","832406","0.000000","0.000000","0.000000","872080","873117","887146","0.000000","0.000000","0.000000","767390","892538","963790","0.000000","0.000000","0.000000","","","","","","","","","","","","","","","","Tape advance-DualSpot on"
"MA200-0420","43720","73","1","1.10","1.6","2023-07-20T00:15:00","120","2023/07/20","00:15:00","-15.795555710792542","35.00278833298944","0.1","13","300","64","98","-640","-26763","452","4","150","149.77","115.50","34.27","20.84","45.0","8.47","90456","20.69","DUALSPOT-UV-BLUE-GREEN-RED-IR","756698","698376","906690","1.459299","0.468805","0.000000","864321","893974","838775","0.934785","0.291979","0.000000","851351","873087","835178","0.791573","0.244897","0.000000","869651","874518","890271","0.627747","0.189983","0.000000","766706","894287","966810","0.402076","0.115365","0.000000","7421","8034","7421","5999","6315","5999","5689","5932","5689","5452","5561","5452","4863","4702","4863","DualSpot on"
"MA200-0420","43721","73","1","1.10","1.6","2023-07-20T00:20:00","120","2023/07/20","00:20:00","-15.795665502548218","35.00273783272132","0.2","13","300","64","98","-672","-26603","-212","4","150","149.32","115.32","33.99","20.79","45.3","8.52","90452","20.63","DUALSPOT-UV-BLUE-GREEN-RED-IR","745937","694824","906200","2.835016","0.920915","0.000000","855596","890365","837727","1.827395","0.573259","0.000000","844315","870400","834537","1.547014","0.479257","0.000000","863863","872351","889676","1.230325","0.371989","0.000000","763501","893017","966501","0.791032","0.227640","0.000000","7006","7811","7006","5737","6134","5737","5438","5723","5438","5242","5371","5242","4711","4614","4711","DualSpot on"
"MA200-0420","43722","73","1","1.10","1.6","2023-07-20T00:25:00","120","2023/07/20","00:25:00","-15.795710802078247","35.0027778330259","0.1","13","300","64","97","-652","-26924","372","4","150","149.94","115.46","34.48","20.75","45.6","8.57","90448","20.63","DUALSPOT-UV-BLUE-GREEN-RED-IR","739214","694526","909763","4.136209","1.357856","0.037782","845158","884565","834563","2.676117","0.847101","0.000000","835965","866036","832270","2.268701","0.707030","0.000000","855403","867232","886033","1.807142","0.550295","0.000000","758294","889294","963517","1.165737","0.335491","0.000000","6619","7442","7845","5449","5887","5449","5189","5484","5189","5012","5187","5012","4533","4369","4533","DualSpot on"
"MA200-0420","43723","73","1","1.10","1.6","2023-07-20T00:30:00","120","2023/07/20","00:30:00","-15.795734167098999","35.00268416618928","0.2","13","300","64","98","-668","-26880","164","4","150","150.15","115.13","35.02","20.71","45.8","8.60","90448","20.56","DUALSPOT-UV-BLUE-GREEN-RED-IR","731603","692844","911376","5.350145","1.778366","0.032160","839665","883546","835778","3.471797","1.110833","0.033534","831026","864844","832971","2.945943","0.927371","0.000000","851748","866749","887077","2.351660","0.723308","0.000000","756538","889473","964715","1.522241","0.441716","0.000000","6193","7052","7480","5123","5582","5798","4883","5223","4883","4745","4956","4745","4325","4237","4325","DualSpot on"
"MA200-0420","43724","73","1","1.10","1.6","2023-07-20T00:35:00","120","2023/07/20","00:35:00","-15.795731127262115","35.00272449944168","0.2","13","300","64","98","-664","-26903","-188","4","150","150.08","115.65","34.43","20.66","46.1","8.67","90444","20.50","DUALSPOT-UV-BLUE-GREEN-RED-IR","721243","688075","908777","6.490122","2.183395","0.034763","837779","885932","840182","4.222616","1.364368","0.039172","824895","862182","832161","3.588310","1.140761","0.040427","853254","871326","893233","2.868957","0.890278","0.000000","752969","887350","963426","1.860925","0.542992","0.000000","5789","6908","7476","4812","5458","5766","4611","5145","5393","4487","4864","4487","4090","4108","4090","DualSpot on"
"MA200-0420","43725","73","1","1.10","1.6","2023-07-20T00:40:00","120","2023/07/20","00:40:00","-15.795582473278046","35.00275733298622","0.1","13","300","64","98","-652","-26988","228","4","150","150.47","115.76","34.71","20.64","46.5","8.77","90440","20.50","DUALSPOT-UV-BLUE-GREEN-RED-IR","711522","683612","906392","7.584926","2.571281","0.028392","829589","881588","838098","4.956269","1.607185","0.026828","822855","863677","835301","4.216207","1.342696","0.022776","845700","866669","889886","3.379198","1.049522","0.016494","753391","890018","967229","2.199691","0.639007","0.000000","5555","6562","7079","4698","5185","5418","4503","4829","4981","4422","4602","4683","4088","3863","4088","DualSpot on"
"MA200-0420","43726","73","1","1.10","1.6","2023-07-20T00:45:00","120","2023/07/20","00:45:00","-15.795612633228302","35.00272366637364","0.1","13","300","64","98","-684","-26832","-64","4","150","149.84","115.61","34.22","20.63","46.8","8.87","90440","20.50","DUALSPOT-UV-BLUE-GREEN-RED-IR","706249","683216","909343","8.655270","2.956577","0.028552","825744","881723","840243","5.680498","1.847547","0.026811","814373","858390","831865","4.839208","1.544082","0.024610","843754","867649","892312","3.885714","1.206937","0.017376","747600","885316","963051","2.538116","0.735295","0.000000","5437","6612","7222","4643","5206","5478","4473","4885","5078","4395","4614","4713","4089","3930","4089","DualSpot on"
"MA200-0420","43727","73","1","1.10","1.6","2023-07-20T00:50:00","120","2023/07/20","00:50:00","-15.795676529407501","35.002749499399215","0.3","14","300","64","98","-640","-27108","728","4","150","149.41","115.09","34.32","20.62","47.5","9.05","90440","20.50","DUALSPOT-UV-BLUE-GREEN-RED-IR","698936","680233","908496","9.607683","3.302934","0.026097","819906","879234","839680","6.320543","2.062618","0.025081","809550","856489","831498","5.388243","1.722163","0.021203","840360","866835","892690","4.331807","1.345558","0.013294","745795","885032","963537","2.833946","0.819360","0.000000","4860","5928","6487","4122","4646","4899","3960","4308","4471","3888","4052","4126","3590","3422","3590","DualSpot on"
"MA200-0420","43728","73","1","1.10","1.6","2023-07-20T00:55:00","120","2023/07/20","00:55:00","-15.795644998550415","35.00271266628988","0.1","14","300","64","98","-716","-27029","100","4","150","150.15","115.54","34.60","20.66","47.9","9.21","90436","20.56","DUALSPOT-UV-BLUE-GREEN-RED-IR","693560","679031","910078","10.552502","3.653440","0.025346","816517","879332","841577","6.962793","2.279800","0.023132","806164","856099","832623","5.942243","1.904178","0.021028","830588","859420","886333","4.783513","1.488170","0.015249","744091","884896","964255","3.136907","0.906887","-0.016675","4802","5949","6556","4120","4652","4911","3980","4367","4549","3922","4134","4230","3662","3533","3480","DualSpot on"
"MA200-0420","43729","73","1","1.10","1.6","2023-07-20T01:00:00","120","2023/07/20","01:00:00","-15.795719981193542","35.002720499644056","0.0","14","300","64","98","-754","-26787","-441","4","150","150.35","115.58","34.77","20.70","48.2","9.34","90440","20.63","DUALSPOT-UV-BLUE-GREEN-RED-IR","682452","672581","905055","11.611910","4.050653","0.023649","805940","872251","837009","7.718056","2.542263","0.024367","802405","855814","834186","6.598576","2.125979","0.023357","828191","860051","888546","5.323742","1.665019","0.021393","742645","885459","965932","3.505647","1.017478","-0.001175","5383","6710","7421","4844","5596","5966","4714","5296","5573","4689","5103","5291","4456","4443","4438","DualSpot on"
"MA200-0420","43730","73","1","1.10","1.6","2023-07-20T01:05:00","120","2023/07/20","01:05:00","-15.795696020126343","35.002644333057106","0.2","13","300","64","98","-604","-26936","1016","4","150","149.65","115.76","33.88","20.74","48.4","9.45","90444","20.69","DUALSPOT-UV-BLUE-GREEN-RED-IR","677509","671367","906518","12.501934","4.394520","0.026428","802165","871568","838145","8.326050","2.758443","0.029198","798934","855026","834917","7.121987","2.306700","0.029474","825927","860182","889922","5.752588","1.805818","0.026191","741168","885508","966836","3.796444","1.106308","0.015282","4515","5960","6743","3893","4729","5144","3753","4428","4751","3716","4168","4375","3509","3662","3725","DualSpot on"
"MA200-0420","43731","73","1","1.10","1.6","2023-07-20T01:10:00","120","2023/07/20","01:10:00","-15.795652687549591","35.00269249943085","0.2","13","300","64","98","-712","-26884","-316","4","150","149.96","115.65","34.31","20.77","48.5","9.52","90436","20.69","DUALSPOT-UV-BLUE-GREEN-RED-IR","671515","669023","906351","13.372103","4.728397","0.023346","797083","869343","837765","8.915586","2.966553","0.024854","794229","852857","834250","7.628019","2.476960","0.021731","821495","857970","888824","6.165829","1.940011","0.019678","738166","883674","965640","4.076639","1.189448","0.000077","4419","5715","6425","3778","4496","4854","3632","4120","4354","3584","3924","4079","3384","3385","3385","DualSpot on"
"MA200-0420","43732","73","1","1.10","1.6","2023-07-20T01:15:00","120","2023/07/20","01:15:00","-15.795608818531036","35.00277033308521","0.1","13","300","64","98","-545","-26983","-104","4","150","149.38","114.97","34.41","20.80","48.7","9.59","90432","20.69","DUALSPOT-UV-BLUE-GREEN-RED-IR","666406","667901","908198","14.334856","5.095949","0.020894","793641","869388","839725","9.584538","3.199702","0.020664","786764","848092","831197","8.206099","2.671993","0.019345","820366","859534","891825","6.639182","2.092737","0.015408","737746","885178","968228","4.400301","1.284222","-0.007159","4918","6274","7021","4313","5023","5378","4174","4705","4962","4130","4453","4601","3932","3847","3812","DualSpot on"
"MA200-0420","43733","73","1","1.10","1.6","2023-07-20T01:20:00","120","2023/07/20","01:20:00","-15.795619189739227","35.00273883296177","0.1","13","300","64","98","-620","-27060","1048","4","150","150.34","115.05","35.30","20.81","48.8","9.64","90428","20.69","DUALSPOT-UV-BLUE-GREEN-RED-IR","659484","665320","908416","15.410618","5.510992","0.018572","787798","867242","839993","10.354794","3.475076","0.019242","781362","845960","831016","8.874595","2.902108","0.017296","815988","858111","891914","7.189169","2.274550","0.014169","734909","884089","968115","4.777015","1.398378","-0.003693","5492","6906","7694","4963","5783","6198","4824","5412","5698","4796","5168","5340","4574","4518","4494","DualSpot on"
"MA200-0420","43734","73","1","1.10","1.6","2023-07-20T01:25:00","120","2023/07/20","01:25:00","-15.795645356178284","35.00271966611035","0.2","13","300","64","98","-820","-27075","156","4","150","150.08","115.39","34.70","20.83","49.1","9.75","90428","20.69","DUALSPOT-UV-BLUE-GREEN-RED-IR","653165","662313","907323","16.249607","5.839956","0.019801","782046","864225","838803","10.945210","3.683346","0.018902","776535","843569","830130","9.386449","3.077513","0.018321","810803","855052","890000","7.610953","2.411992","0.014332","732150","882578","967253","5.064459","1.481500","-0.011315","4270","5568","6296","3793","4449","4782","3682","4196","4447","3667","3974","4116","3479","3346","3291","DualSpot on"
"MA200-0420","43735","73","1","1.10","1.6","2023-07-20T01:30:00","120","2023/07/20","01:30:00","-15.795694649219513","35.00271666655317","0.2","13","300","64","98","-696","-26840","24","4","150","149.53","115.46","34.07","20.85","49.2","9.80","90420","20.75","DUALSPOT-UV-BLUE-GREEN-RED-IR","649677","662068","910013","17.083274","6.174555","0.021107","779796","864909","841279","11.529232","3.897410","0.023226","774138","843703","831746","9.894623","3.256643","0.022716","803875","850113","886114","8.031174","2.553984","0.021836","726415","877407","962429","5.354063","1.568992","0.006072","4240","5768","6632","3749","4657","5121","3654","4364","4713","3651","4181","4427","3503","3587","3621","DualSpot on"
"MA200-0420","43736","73","1","1.10","1.6","2023-07-20T01:35:00","120","2023/07/20","01:35:00","-15.795662701129913","35.0027526661288","0.3","14","300","64","98","-720","-26884","-24","4","150","150.08","115.88","34.21","20.85","49.4","9.85","90420","20.75","DUALSPOT-UV-BLUE-GREEN-RED-IR","644346","659885","910094","17.912282","6.511894","0.020819","775327","863183","841429","12.118829","4.114002","0.022290","770060","842057","831611","10.408764","3.438676","0.022044","806647","855482","892965","8.459898","2.697299","0.019240","728809","882160","968546","5.653454","1.660317","0.007975","4202","5792","6701","3772","4694","5168","3683","4418","4780","3711","4203","4433","3609","3729","3779","DualSpot on"
"MA200-0420","43737","73","1","1.10","1.6","2023-07-20T01:40:00","120","2023/07/20","01:40:00","-15.795556128025055","35.00269749970175","0.2","12","300","64","98","-680","-26991","88","4","150","150.35","115.83","34.52","20.83","49.5","9.87","90416","20.69","DUALSPOT-UV-BLUE-GREEN-RED-IR","637758","656452","908518","18.771378","6.860828","0.019385","769117","859542","839746","12.728179","4.338843","0.020855","765542","840026","831219","10.945606","3.629422","0.020412","802009","853108","891877","8.908983","2.849105","0.018511","726051","880813","967975","5.971071","1.756273","0.003208","4356","5937","6848","3899","4828","5309","3847","4587","4954","3889","4412","4657","3830","3883","3905","DualSpot on"
"MA200-0420","43738","73","1","1.10","1.6","2023-07-20T01:45:00","120","2023/07/20","01:45:00","-15.795594990253448","35.002697832882404","0.1","12","300","64","98","-676","-26861","-411","4","150","150.08","115.80","34.28","20.81","49.7","9.90","90416","20.69","DUALSPOT-UV-BLUE-GREEN-RED-IR","632362","654002","908134","19.578282","7.193203","0.019519","764194","857104","839146","13.296765","4.552281","0.021767","761184","837892","830608","11.444616","3.810602","0.022135","797800","850955","890892","9.325628","2.994267","0.022150","723400","879345","967260","6.265913","1.847495","0.009570","4092","5694","6624","3640","4615","5122","3577","4387","4791","3609","4247","4549","3556","3716","3783","DualSpot on"
"MA200-0420","43739","73","1","1.10","1.6","2023-07-20T01:50:00","120","2023/07/20","01:50:00","-15.795615792274475","35.002751666354015","0.1","12","300","64","98","-728","-26888","-80","4","150","150.28","116.03","34.24","20.81","49.9","9.96","90416","20.69","DUALSPOT-UV-BLUE-GREEN-RED-IR","626950","651276","907141","20.328358","7.501400","0.018859","759337","854501","838266","13.829645","4.750890","0.020679","761635","840928","834980","11.908512","3.976596","0.020311","793367","848391","889387","9.712623","3.125640","0.018680","720323","877249","965778","6.537950","1.929980","0.005734","3796","5286","6157","3404","4299","4768","3319","4024","4378","3346","3849","4087","3275","3365","3402","DualSpot on"
"MA200-0420","43740","73","1","1.10","1.6","2023-07-20T01:55:00","120","2023/07/20","01:55:00","-15.795565783977509","35.002811166225","0.3","12","300","64","97","-656","-26952","-44","4","150","149.76","115.60","34.16","20.81","50.0","10.01","90412","20.69","DUALSPOT-UV-BLUE-GREEN-RED-IR","623144","650077","908217","21.056800","7.803837","0.018598","756463","853996","839459","14.351648","4.948980","0.021087","754184","835115","830593","12.365143","4.142731","0.020874","792851","849937","892161","10.092521","3.256126","0.019167","720080","878582","967996","6.802744","2.012126","0.009735","3701","5200","6083","3347","4299","4800","3279","4038","4420","3297","3832","4087","3199","3359","3426","DualSpot on"
"MA200-0420","43741","73","1","1.10","1.6","2023-07-20T02:00:00","120","2023/07/20","02:00:00","-15.795622408390045","35.00274099945091","0.3","12","300","64","98","-640","-27047","152","4","150","149.72","115.87","33.84","20.79","50.2","10.05","90408","20.63","DUALSPOT-UV-BLUE-GREEN-RED-IR","618291","647703","907528","21.764854","8.095936","0.018211","751512","851199","838323","14.874675","5.143231","0.019719","750283","833228","830047","12.823737","4.307342","0.019988","788072","846913","890172","10.475351","3.386604","0.018883","717071","876567","966607","7.075042","2.093446","0.004365","3589","5069","5945","3346","4254","4735","3285","4037","4418","3314","3867","4132","3282","3356","3387","DualSpot on"
"MA200-0420","43742","73","1","1.10","1.6","2023-07-20T02:05:00","120","2023/07/20","02:05:00","-15.795481085777283","35.002854499500245","0.0","12","300","64","98","-716","-27200","100","4","150","149.63","116.39","33.24","20.79","50.5","10.14","90408","20.69","DUALSPOT-UV-BLUE-GREEN-RED-IR","614093","646039","907971","22.492188","8.404270","0.019392","748230","850359","839312","15.427966","5.357563","0.022898","746871","832015","830377","13.313396","4.489303","0.023475","785329","846252","890739","10.887583","3.532335","0.023926","715433","876304","967200","7.366459","2.187554","0.021304","3670","5448","6509","3524","4780","5449","3492","4545","5080","3553","4399","4805","3497","3955","4148","DualSpot on"
"MA200-0420","43743","73","1","1.10","1.6","2023-07-20T02:10:00","120","2023/07/20","02:10:00","-15.7957883477211","35.00269849947654","0.8","12","300","64","98","-704","-26908","-280","4","150","150.41","115.84","34.57","20.77","50.6","10.15","90400","20.63","DUALSPOT-UV-BLUE-GREEN-RED-IR","608545","642976","906711","23.262310","8.737663","0.018018","742731","847106","838011","16.006430","5.588800","0.021414","742417","829651","829667","13.822967","4.686636","0.022459","780966","843871","889639","11.317960","3.692176","0.023522","712393","874355","966001","7.669035","2.286770","0.016080","3904","5664","6722","3702","4958","5632","3652","4739","5296","3727","4638","5079","3648","4009","4162","DualSpot on"
"MA200-0420","43744","73","1","1.10","1.6","2023-07-20T02:15:00","120","2023/07/20","02:15:00","-15.79564255475998","35.002769666258246","0.3","12","300","64","98","-780","-26719","12","4","150","150.28","115.88","34.40","20.77","50.8","10.21","90400","20.63","DUALSPOT-UV-BLUE-GREEN-RED-IR","605090","641733","907474","23.915954","9.015816","0.017154","739602","846046","838547","16.498316","5.776244","0.018415","743739","833421","834725","14.258512","4.844542","0.017601","778035","842672","889543","11.683083","3.818068","0.016553","710687","873791","966139","7.926260","2.366389","0.007226","3313","4749","5618","3146","4039","4520","3120","3810","4166","3161","3671","3919","3100","3233","3289","DualSpot on"
"MA200-0420","43745","73","1","1.10","1.6","2023-07-20T02:20:00","120","2023/07/20","02:20:00","-15.795654654502869","35.00269733299501","0.4","11","300","64","98","-636","-26988","232","4","150","151.58","115.92","35.66","20.77","51.0","10.27","90400","20.63","DUALSPOT-UV-BLUE-GREEN-RED-IR","599604","638243","904956","24.549450","9.284607","0.015428","734110","842254","836295","16.975348","5.958253","0.015909","740114","831560","834175","14.680339","4.998382","0.014944","774409","840687","888527","12.038948","3.939908","0.011928","707952","872024","964917","8.180568","2.441996","-0.006167","3210","4426","5166","3050","3783","4179","3021","3581","3870","3080","3427","3596","3064","2961","2917","DualSpot on"
"MA200-0420","43746","73","1","1.10","1.6","2023-07-20T02:25:00","120","2023/07/20","02:25:00","-15.795663177967072","35.002720166230574","0.1","11","300","64","98","-640","-26763","328","4","150","149.53","115.92","33.62","20.76","51.0","10.27","90396","20.63","DUALSPOT-UV-BLUE-GREEN-RED-IR","596644","637397","906295","25.196018","9.565128","0.017634","731713","841959","837587","17.455784","6.147128","0.020300","737480","830795","834742","15.106435","5.159657","0.020960","771912","839915","888867","12.398126","4.068433","0.020825","706851","872120","965838","8.437056","2.523522","0.014278","3276","4901","5895","3072","4165","4758","3051","3982","4465","3108","3835","4190","3091","3387","3514","DualSpot on"
"MA200-0420","43747","73","1","1.10","1.6","2023-07-20T02:30:00","120","2023/07/20","02:30:00","-15.795589804649353","35.00271266628988","0.1","10","300","64","98","-725","-26983","-29","4","150","150.41","115.95","34.45","20.75","51.1","10.27","90396","20.63","DUALSPOT-UV-BLUE-GREEN-RED-IR","593600","636378","907331","25.817196","9.840210","0.017125","729170","841362","838565","17.922800","6.335485","0.019865","730260","824758","830002","15.518839","5.319753","0.020497","769707","839400","889448","12.745692","4.196933","0.020949","705654","872118","966612","8.682076","2.606383","0.018996","3146","4689","5640","2985","4052","4636","2952","3858","4330","3007","3742","4102","2951","3359","3534","DualSpot on"
"MA200-0420","43748","73","1","1.10","1.6","2023-07-20T02:35:00","120","2023/07/20","02:35:00","-15.795689642429352","35.0027353328187","0.1","10","300","64","98","-624","-26916","-32","4","150","150.41","116.03","34.37","20.74","51.1","10.27","90388","20.63","DUALSPOT-UV-BLUE-GREEN-RED-IR","589184","633716","905809","26.397664","10.093910","0.016476","724637","838296","836972","18.356880","6.508607","0.019023","731214","827760","834263","15.902237","5.467334","0.019703","767404","838575","889616","13.070259","4.314697","0.019226","703132","870356","965370","8.915255","2.679526","0.008710","2938","4335","5199","2773","3733","4261","2743","3564","3994","2806","3437","3748","2807","2972","3043","DualSpot on"
"MA200-0420","43749","73","1","1.10","1.6","2023-07-20T02:40:00","120","2023/07/20","02:40:00","-15.795504987239838","35.00277233286761","0.2","10","300","64","98","-652","-26916","-88","4","150","150.28","115.84","34.44","20.73","51.2","10.29","90388","20.63","DUALSPOT-UV-BLUE-GREEN-RED-IR","586066","632370","906316","26.978936","10.357037","0.017010","722209","837686","837857","18.793348","6.688059","0.019837","728526","826657","834388","16.287918","5.619500","0.020444","763959","836548","888553","13.394870","4.435158","0.020200","701502","869703","965371","9.144957","2.754643","0.013677","2947","4487","5447","2793","3862","4453","2764","3668","4144","2811","3509","3854","2770","3046","3166","DualSpot on"
"MA200-0420","43750","73","1","1.10","1.6","2023-07-20T02:45:00","120","2023/07/20","02:45:00","-15.79560661315918","35.00275116646662","0.1","10","300","64","98","-716","-26956","356","4","150","149.76","115.84","33.92","20.72","51.3","10.30","90388","20.63","DUALSPOT-UV-BLUE-GREEN-RED-IR","579867","628354","903757","27.757812","10.710331","0.017005","715569","832941","835320","19.409186","6.948234","0.021029","723763","823974","833618","16.839184","5.844206","0.022279","759423","833977","887429","13.862731","4.616971","0.023737","698447","867844","964428","9.480274","2.868900","0.020048","3949","6117","7480","3941","5686","6659","3951","5500","6323","4052","5377","6039","4043","4705","4992","DualSpot on"
"MA200-0420","43751","73","1","1.10","1.6","2023-07-20T02:50:00","120","2023/07/20","02:50:00","-15.795739948749542","35.00272533297539","0.1","10","300","64","98","-696","-26700","144","4","150","150.28","116.15","34.12","20.72","51.3","10.30","90384","20.63","DUALSPOT-UV-BLUE-GREEN-RED-IR","570372","624247","905490","29.557446","11.536392","0.016234","707591","829760","836375","20.633956","7.453465","0.018779","716522","821047","834174","17.899020","6.262930","0.019362","753506","832140","888467","14.746523","4.947531","0.019752","694768","866858","965291","10.092052","3.070805","0.014923","9100","14218","17494","7816","10975","12762","7575","10187","11593","7633","9718","10771","7357","8265","8662","DualSpot on"
