"Serial number","Datum ID","Session ID","Data format version","Firmware version","App version","Date / time local","Timezone offset (mins)","Date local (yyyy/MM/dd)","Time local (hh:mm:ss)","GPS lat (ddmm.mmmmm)","GPS long (dddmm.mmmmm)","GPS speed (km/h)","GPS sat count","Timebase (s)","Status","Battery remaining (%)","Accel X","Accel Y","Accel Z","Tape position","Flow setpoint (mL/min)","Flow total (mL/min)","Flow1 (mL/min)","Flow2 (mL/min)","Sample temp (C)","Sample RH (%)","Sample dewpoint (C)","Internal pressure (Pa)","Internal temp (C)","Optical config","UV Sen1","UV Sen2","UV Ref","UV ATN1","UV ATN2","UV K","Blue Sen1","Blue Sen2","Blue Ref","Blue ATN1","Blue ATN2","Blue K","Green Sen1","Green Sen2","Green Ref","Green ATN1","Green ATN2","Green K","Red Sen1","Red Sen2","Red Ref","Red ATN1","Red ATN2","Red K","IR Sen1","IR Sen2","IR Ref","IR ATN1","IR ATN2","IR K","UV BC1","UV BC2","UV BCc","Blue BC1","Blue BC2","Blue BCc","Green BC1","Green BC2","Green BCc","Red BC1","Red BC2","Red BCc","IR BC1","IR BC2","IR BCc","Readable status"
"MA200-0416","27142","79","1","1.10","1.4","2023-05-23T14:00:01","120","2023/05/23","14:00:01","-15.745589315891266","35.00624383194372","0.2","14","30","66","49","1368","-4020","-26203","6","150","150.16","113.88","36.28","0.00","0.0","-204.27","91528","32.88","DUALSPOT-UV-BLUE-GREEN-RED-IR","846799","735293","898196","0.000000","0.000000","0.000000","871351","995242","819223","0.000000","0.000000","0.000000","936707","960724","841988","0.000000","0.000000","0.000000","764138","814393","742270","0.000000","0.000000","0.000000","763549","888533","973886","0.000000","0.000000","0.000000","","","","","","","","","","","","","","","","Start up"
"MA200-0416","27143","79","1","1.10","1.4","2023-05-23T14:00:31","120","2023/05/23","14:00:31","-15.74559098482132","35.006255832500756","0.1","13","30","66","49","1132","-4152","-26063","6","150","150.03","113.13","36.90","33.55","37.0","16.86","91524","33.13","DUALSPOT-UV-BLUE-GREEN-RED-IR","851186","739571","903714","0.000000","0.000000","0.000000","822639","939900","773959","0.000000","0.000000","0.000000","907658","931203","816323","0.000000","0.000000","0.000000","883680","942354","858956","0.000000","0.000000","0.000000","745489","867996","951632","0.000000","0.000000","0.000000","","","","","","","","","","","","","","","","Start up"
"MA200-0416","27144","79","1","1.10","1.4","2023-05-23T14:01:01","120","2023/05/23","14:01:01","-15.745575726032257","35.0062474985607","0.3","13","30","66","48","1120","-4116","-25866","6","150","150.66","113.85","36.81","33.58","37.0","16.90","91528","33.25","DUALSPOT-UV-BLUE-GREEN-RED-IR","851836","740510","905083","0.000000","0.000000","0.000000","811494","927441","763779","0.000000","0.000000","0.000000","903119","926809","812546","0.000000","0.000000","0.000000","883753","942593","859242","0.000000","0.000000","0.000000","745088","867658","951294","0.000000","0.000000","0.000000","","","","","","","","","","","","","","","","Start up"
"MA200-0416","27145","79","1","1.10","1.4","2023-05-23T14:01:31","120","2023/05/23","14:01:31","-15.745592713356018","35.00624299887568","0.1","13","30","66","48","1096","-4136","-25963","6","150","149.57","114.12","35.44","33.59","37.1","16.92","91528","33.31","DUALSPOT-UV-BLUE-GREEN-RED-IR","855493","744057","909575","0.000000","0.000000","0.000000","814581","931215","767013","0.000000","0.000000","0.000000","905026","928945","814513","0.000000","0.000000","0.000000","887783","947018","863353","0.000000","0.000000","0.000000","747731","870833","954826","0.000000","0.000000","0.000000","","","","","","","","","","","","","","","","Start up"
"MA200-0416","27146","79","1","1.10","1.4","2023-05-23T14:02:01","120","2023/05/23","14:02:01","-15.745604157447815","35.006231165491045","0.2","13","30","66","48","1264","-3984","-26180","6","150","149.63","113.92","35.71","33.62","37.1","16.95","91528","33.38","DUALSPOT-UV-BLUE-GREEN-RED-IR","848580","738425","902881","0.000000","0.000000","0.000000","809400","925568","762448","0.000000","0.000000","0.000000","901658","925670","811680","0.000000","0.000000","0.000000","888843","948315","864601","0.000000","0.000000","0.000000","748400","871724","955836","0.000000","0.000000","0.000000","","","","","","","","","","","","","","","","Start up"
"MA200-0416","27147","79","1","1.10","1.4","2023-05-23T14:02:31","120","2023/05/23","14:02:31","-15.74560695886612","35.00622516591102","0.2","13","30","64","48","1029","-3950","-26158","6","150","149.73","113.71","36.02","33.63","37.2","17.01","91524","33.38","DUALSPOT-UV-BLUE-GREEN-RED-IR","849077","739231","904084","0.000000","0.000000","0.000000","809931","926470","763249","0.000000","0.000000","0.000000","906753","931108","816529","0.000000","0.000000","0.000000","882239","941390","858317","0.000000","0.000000","0.000000","744484","867213","950928","0.000000","0.000000","0.000000","","","","","","","","","","","","","","","",""
"MA200-0416","27148","79","1","1.10","1.4","2023-05-23T14:03:01","120","2023/05/23","14:03:01","-15.745598256587982","35.006224498618394","0.1","13","30","64","47","1044","-3807","-26200","6","150","150.01","114.25","35.76","33.65","37.3","17.06","91524","33.44","DUALSPOT-UV-BLUE-GREEN-RED-IR","847018","737912","902599","0.076611","0.019872","0.000000","807739","924230","761511","0.043362","0.012969","0.000000","906266","930813","816369","0.031054","0.009006","0.000000","888131","947824","864272","0.023359","0.008445","0.000000","743049","865640","949223","0.012639","0.003712","0.000000","3938","3264","3938","2813","2688","2813","2256","2090","2256","2051","2369","2051","1545","1450","1545",""
"MA200-0416","27149","79","1","1.10","1.4","2023-05-23T14:03:31","120","2023/05/23","14:03:31","-15.745586156845093","35.00623283209279","0.1","12","30","64","48","-5836","-3344","-25544","6","150","149.83","113.96","35.87","33.67","37.3","17.11","91520","33.44","DUALSPOT-UV-BLUE-GREEN-RED-IR","849315","740470","906009","0.181173","0.047258","0.000000","810248","927484","764315","0.100677","0.028705","0.000000","901271","925971","812200","0.071048","0.019043","0.000000","883092","942701","859657","0.051409","0.014591","0.000000","744539","867513","951327","0.031034","0.007110","0.000000","5389","4484","5389","3728","3252","3728","2913","2323","2913","2469","1718","2469","2254","1323","2254",""
"MA200-0416","27150","79","1","1.10","1.4","2023-05-23T14:04:01","120","2023/05/23","14:04:01","-15.745573163032532","35.00623683165759","0.6","12","30","64","48","-17284","-13928","11584","6","150","149.85","114.33","35.52","33.68","37.2","17.08","91524","33.44","DUALSPOT-UV-BLUE-GREEN-RED-IR","849358","740834","906598","0.249803","0.065650","0.000000","810308","927819","764645","0.140803","0.038282","0.000000","906672","931740","817305","0.103259","0.027102","0.000000","883612","943382","860268","0.073856","0.019586","0.000000","744744","867809","951689","0.047121","0.012653","0.000000","3525","3041","3525","2601","1998","2601","2339","1883","2339","1969","1410","1969","1965","2179","1965",""
"MA200-0416","27151","79","1","1.10","1.4","2023-05-23T14:04:31","120","2023/05/23","14:04:31","-15.745570838451385","35.006249331869185","0.4","12","30","64","48","-22928","-10864","-564","6","150","150.49","113.96","36.53","33.71","37.2","17.07","91516","33.44","DUALSPOT-UV-BLUE-GREEN-RED-IR","848684","740578","906461","0.311975","0.083522","0.000000","809728","927359","764360","0.176173","0.046245","0.000000","902469","927568","813714","0.129759","0.032294","0.000000","884825","944829","861646","0.094008","0.022662","0.000000","745667","868968","953019","0.058092","0.016431","0.000000","3204","2873","3204","2300","1616","2300","1930","1180","1930","1774","844","1774","1344","1444","1344",""
"MA200-0416","27152","79","1","1.10","1.4","2023-05-23T14:05:01","120","2023/05/23","14:05:01","-15.74559998512268","35.00623699882999","0.1","13","30","64","47","-24636","456","1611","6","150","149.49","113.60","35.89","33.72","37.2","17.09","91520","33.50","DUALSPOT-UV-BLUE-GREEN-RED-IR","846083","738636","904238","0.370862","0.100889","0.000000","807766","925399","762815","0.209432","0.054912","0.000000","900585","925837","812237","0.155663","0.039184","0.000000","882241","942211","859294","0.112688","0.026333","0.000000","743851","866918","950782","0.069747","0.019359","0.000000","3044","2841","3044","2170","1790","2170","1893","1593","1893","1649","1026","1649","1433","1139","1433",""
"MA200-0416","27153","79","1","1.10","1.4","2023-05-23T14:05:31","120","2023/05/23","14:05:31","-15.745592832565308","35.006238498725","0.1","13","30","64","47","-24460","236","3448","6","150","150.35","114.38","35.98","33.74","37.2","17.12","91520","33.44","DUALSPOT-UV-BLUE-GREEN-RED-IR","847763","740453","906675","0.440898","0.121360","0.000000","809739","927887","764980","0.247919","0.068550","0.000000","901566","927027","813347","0.184208","0.048488","0.000000","884401","944663","861600","0.132840","0.034350","0.000000","745243","868606","952676","0.083354","0.024329","0.000000","3596","3342","3596","2494","2810","2494","2072","2147","2072","1767","2235","1767","1661","1929","1661",""
"MA200-0416","27154","79","1","1.10","1.4","2023-05-23T14:06:01","120","2023/05/23","14:06:01","-15.745615780353546","35.00624216534197","0.3","13","30","64","47","-24520","70","3354","6","150","150.17","114.19","35.98","33.76","37.3","17.19","91520","33.50","DUALSPOT-UV-BLUE-GREEN-RED-IR","848237","741259","907801","0.511469","0.140092","0.000000","809743","928177","765253","0.285905","0.076757","0.000000","901367","927025","813417","0.212437","0.054931","0.000000","883642","943990","861006","0.152623","0.037652","0.000000","744742","868123","952170","0.096155","0.026918","0.000000","3629","3057","3629","2466","1690","2466","2052","1486","2052","1738","920","1738","1565","1005","1565",""
"MA200-0416","27155","79","1","1.10","1.4","2023-05-23T14:06:31","120","2023/05/23","14:06:31","-15.74559897184372","35.00623433245346","0.0","13","30","64","47","-24644","336","3207","6","150","149.09","115.75","33.33","33.77","37.5","17.27","91516","33.50","DUALSPOT-UV-BLUE-GREEN-RED-IR","845458","739198","905460","0.581885","0.159671","0.000000","808122","926566","764037","0.325024","0.086860","0.000000","899665","925419","812101","0.240356","0.061482","0.000000","881502","941827","859097","0.171273","0.042486","0.000000","743702","867000","950969","0.109540","0.031114","0.000000","3573","3449","3573","2505","2246","2505","2002","1631","2002","1616","1454","1616","1615","1758","1615",""
"MA200-0416","27156","79","1","1.10","1.4","2023-05-23T14:07:01","120","2023/05/23","14:07:01","-15.745609641075134","35.006233332678676","0.0","13","30","64","47","-24444","420","3339","6","150","150.29","114.00","36.29","33.79","37.7","17.36","91520","33.50","DUALSPOT-UV-BLUE-GREEN-RED-IR","847758","741545","908501","0.642182","0.175500","0.000000","809334","928217","765450","0.361204","0.096838","0.000000","901114","927147","813616","0.265073","0.067025","0.000000","884878","945583","862530","0.189757","0.046009","0.000000","745127","868738","952904","0.120286","0.032826","0.000000","3106","2561","3106","2352","2038","2352","1800","1268","1800","1626","973","1626","1316","658","1316",""
"MA200-0416","27157","79","1","1.10","1.4","2023-05-23T14:07:31","120","2023/05/23","14:07:31","-15.745631992816925","35.006229165475816","0.1","13","30","64","47","-24204","532","4068","6","150","150.28","113.59","36.70","33.81","37.9","17.46","91516","33.50","DUALSPOT-UV-BLUE-GREEN-RED-IR","847381","741645","908833","0.718175","0.196575","0.000000","809683","928925","766106","0.399887","0.105361","0.000000","900750","927023","813560","0.294828","0.073421","0.000000","884809","945665","862638","0.208979","0.050247","0.000000","744951","868628","952825","0.133668","0.035782","0.000000","3929","3373","3929","2524","1721","2524","2174","1447","2174","1697","1158","1697","1645","1125","1645",""
"MA200-0416","27158","79","1","1.10","1.4","2023-05-23T14:08:01","120","2023/05/23","14:08:01","-15.745627522468567","35.00622333260253","0.3","13","30","64","47","-24362","-79","3504","6","150","149.45","113.68","35.76","33.83","38.0","17.52","91516","33.56","DUALSPOT-UV-BLUE-GREEN-RED-IR","846331","741412","908818","0.838344","0.229930","0.000000","809057","928713","766113","0.475943","0.127952","0.000000","900644","927284","813944","0.352127","0.090312","0.000000","885026","946173","863281","0.252693","0.062621","0.000000","745014","868895","953198","0.161867","0.044739","0.000000","6208","5478","6208","4959","4682","4959","4184","3921","4184","3857","3471","3857","3465","3498","3465",""
"MA200-0416","27159","79","1","1.10","1.4","2023-05-23T14:08:31","120","2023/05/23","14:08:31","-15.745639145374298","35.006226332392544","0.1","13","30","64","47","-24428","792","4496","6","150","149.38","113.90","35.47","33.86","38.0","17.54","91508","33.56","DUALSPOT-UV-BLUE-GREEN-RED-IR","846832","742258","910066","0.926244","0.254497","0.000000","809468","929499","766857","0.530326","0.142967","0.000000","900529","927417","814143","0.394964","0.102663","0.000000","884640","945971","863079","0.281584","0.068843","0.000000","744731","868686","953025","0.183053","0.050494","0.000000","4532","4067","4532","3539","3137","3539","3122","2890","3122","2544","1759","2544","2598","2266","2598",""
"MA200-0416","27160","79","1","1.10","1.4","2023-05-23T14:09:01","120","2023/05/23","14:09:01","-15.745620846748352","35.006213165353984","0.1","13","30","64","47","-24016","937","4370","6","150","149.83","114.08","35.75","33.87","38.0","17.55","91516","33.63","DUALSPOT-UV-BLUE-GREEN-RED-IR","846153","742024","909954","0.995619","0.273777","0.000000","809143","929412","766888","0.568955","0.153732","0.000000","900600","927681","814434","0.423187","0.109857","0.000000","885639","947173","864266","0.304412","0.075906","0.000000","745273","869395","953815","0.196107","0.054025","0.000000","3571","3167","3571","2510","2232","2510","2053","1670","2053","2007","1982","2007","1598","1380","1598",""
"MA200-0416","27161","79","1","1.10","1.4","2023-05-23T14:09:31","120","2023/05/23","14:09:31","-15.74561083316803","35.00621966551989","0.0","13","30","64","47","-23976","804","3639","6","150","150.03","114.52","35.51","33.89","37.9","17.54","91504","33.63","DUALSPOT-UV-BLUE-GREEN-RED-IR","839602","736630","903521","1.058128","0.291496","0.000000","804357","924120","762593","0.606101","0.164501","0.000000","901049","928331","815043","0.449908","0.116986","0.000000","885778","947500","864586","0.323742","0.080513","0.000000","745629","869865","954376","0.209751","0.057583","0.000000","3206","2930","3206","2404","2248","2404","1937","1666","1937","1693","1301","1693","1664","1399","1664",""
"MA200-0416","27162","79","1","1.10","1.4","2023-05-23T14:10:01","120","2023/05/23","14:10:01","-15.745604932308197","35.00622799899429","0.0","13","30","64","47","-24352","892","4204","6","150","149.57","113.76","35.80","33.91","37.9","17.57","91508","33.63","DUALSPOT-UV-BLUE-GREEN-RED-IR","839175","736557","903568","1.117996","0.307931","0.000000","803756","923676","762300","0.640231","0.171566","0.000000","900781","928225","815041","0.476563","0.122273","0.000000","887126","949069","866036","0.342160","0.084174","0.000000","745561","869865","954430","0.221057","0.060879","0.000000","3090","2696","3090","2224","1462","2224","1945","1226","1945","1624","1025","1624","1388","1286","1388",""
"MA200-0416","27163","79","1","1.10","1.4","2023-05-23T14:10:31","120","2023/05/23","14:10:31","-15.745501101016998","35.00613333238289","1.3","13","30","64","46","-25076","-324","2972","6","150","149.46","113.96","35.50","33.92","38.1","17.64","91504","33.69","DUALSPOT-UV-BLUE-GREEN-RED-IR","839852","737490","904869","1.178399","0.325162","0.000000","805096","925450","763814","0.675630","0.180999","0.000000","901274","928961","815709","0.503253","0.127381","0.000000","886667","948713","865756","0.361222","0.087636","0.000000","745693","870123","954723","0.232395","0.063795","0.000000","3113","2850","3113","2302","1969","2302","1944","1194","1944","1678","978","1678","1389","1147","1389",""
"MA200-0416","27164","79","1","1.10","1.4","2023-05-23T14:11:01","120","2023/05/23","14:11:01","-15.745276808738708","35.00604533217847","0.8","13","30","64","46","-23788","544","3480","6","150","149.96","114.00","35.96","33.94","38.2","17.71","91512","33.69","DUALSPOT-UV-BLUE-GREEN-RED-IR","837999","736195","903438","1.242488","0.342374","0.000000","803121","923461","762244","0.713676","0.190793","0.000000","900132","927973","814893","0.531966","0.136089","0.000000","885337","947446","864647","0.382190","0.092625","0.000000","745196","869618","954178","0.246114","0.067590","0.000000","3301","2811","3301","2474","2019","2474","2090","2010","2090","1845","1391","1845","1681","1474","1681",""
"MA200-0416","27165","79","1","1.10","1.4","2023-05-23T14:11:31","120","2023/05/23","14:11:31","-15.744975745677948","35.006010498385876","0.9","12","30","64","46","-25264","-2008","4544","6","150","149.32","113.81","35.50","33.96","38.3","17.79","91540","33.69","DUALSPOT-UV-BLUE-GREEN-RED-IR","840196","738399","906294","1.299418","0.358804","0.000000","804714","925505","763979","0.746107","0.199705","0.000000","901570","929636","816396","0.556338","0.141793","0.000000","880320","942189","859889","0.399750","0.097417","0.000000","741560","865413","949606","0.255674","0.070389","0.000000","2938","2718","2938","2112","1860","2112","1777","1333","1777","1547","1354","1547","1173","1101","1173",""
"MA200-0416","27166","79","1","1.10","1.4","2023-05-23T14:12:01","120","2023/05/23","14:12:01","-15.744667053222656","35.00591966556385","1.1","12","30","64","47","-25141","-1116","837","6","150","149.73","114.23","35.50","33.99","38.5","17.86","91572","33.75","DUALSPOT-UV-BLUE-GREEN-RED-IR","839880","738414","906422","1.354207","0.374692","0.000000","804901","925976","764467","0.779008","0.208436","0.000000","901676","929902","816707","0.581509","0.148934","0.000000","880943","943003","860638","0.415939","0.099974","0.000000","742338","866396","950730","0.267702","0.073095","0.000000","2817","2628","2817","2135","1823","2135","1829","1669","1829","1421","722","1421","1470","1064","1470",""
"MA200-0416","27167","79","1","1.10","1.4","2023-05-23T14:12:31","120","2023/05/23","14:12:31","-15.744414329528809","35.00580266583711","1.2","12","30","64","46","-25176","-2840","2932","6","150","150.29","114.00","36.29","34.01","38.6","17.93","91588","33.75","DUALSPOT-UV-BLUE-GREEN-RED-IR","841012","739776","908247","1.418151","0.391876","0.000000","805546","926973","765331","0.813996","0.216453","0.000000","901824","930250","817059","0.607914","0.154769","0.000000","880814","942985","860699","0.436598","0.105178","0.000000","741805","865862","950161","0.280387","0.076484","0.000000","3294","2781","3294","2275","1637","2275","1922","1335","1922","1818","1438","1818","1554","1304","1554",""
"MA200-0416","27168","79","1","1.10","1.4","2023-05-23T14:13:01","120","2023/05/23","14:13:01","-15.744174182415009","35.00571149820462","1.1","12","30","64","46","-25232","-1788","3884","6","150","149.87","114.71","35.16","34.04","38.7","17.99","91612","33.81","DUALSPOT-UV-BLUE-GREEN-RED-IR","841161","740181","908913","1.474434","0.409057","0.000000","805260","926830","765286","0.847178","0.227123","0.000000","901992","930579","817407","0.633562","0.163120","0.000000","882501","944919","862482","0.453865","0.110054","0.000000","742013","866183","950513","0.291521","0.078433","0.000000","2881","2870","2881","2144","2249","2144","1856","1971","1856","1510","1391","1510","1355","774","1355",""
"MA200-0416","27169","79","1","1.10","1.4","2023-05-23T14:13:31","120","2023/05/23","14:13:31","-15.74387139081955","35.0056089987047","1.4","12","30","64","46","-24536","-1392","2232","6","150","149.76","114.16","35.60","34.05","38.7","18.00","91636","33.81","DUALSPOT-UV-BLUE-GREEN-RED-IR","841058","740377","909335","1.529409","0.425996","0.000000","805852","927715","766111","0.880318","0.237583","0.000000","897614","926267","813651","0.657827","0.168257","0.000000","882872","945452","863007","0.471252","0.114470","0.000000","742264","866556","950968","0.302547","0.081809","0.000000","2828","2794","2828","2152","2178","2152","1764","1198","1764","1527","1244","1527","1349","1324","1349",""
"MA200-0416","27170","79","1","1.10","1.4","2023-05-23T14:14:01","120","2023/05/23","14:14:01","-15.74360054731369","35.00571383209899","1.2","12","30","64","46","-24840","-2320","3476","6","150","150.70","114.42","36.28","34.07","38.7","18.03","91676","33.81","DUALSPOT-UV-BLUE-GREEN-RED-IR","841650","741232","910566","1.595206","0.445367","0.000000","800178","921469","761024","0.917756","0.246494","0.000000","897949","926761","814177","0.686014","0.176030","0.000000","883198","945939","863517","0.492548","0.119627","0.000000","742165","866498","950968","0.317558","0.086127","0.000000","3377","3136","3377","2425","1820","2425","2045","1778","2045","1867","1425","1867","1832","1662","1832",""
"MA200-0416","27171","79","1","1.10","1.4","2023-05-23T14:14:31","120","2023/05/23","14:14:31","-15.743342757225037","35.005730165634304","1.0","12","30","64","46","-26262","-2083","3212","6","150","149.63","114.16","35.47","34.09","38.8","18.09","91708","33.81","DUALSPOT-UV-BLUE-GREEN-RED-IR","841448","741488","911055","1.671579","0.468009","0.000000","801040","922757","762175","0.962960","0.259374","0.000000","897666","926725","814223","0.719613","0.183380","0.000000","882700","945610","863239","0.516212","0.124395","0.000000","741852","866254","950732","0.332607","0.090757","0.000000","3929","3749","3929","2935","2691","2935","2443","1720","2443","2079","1348","2079","1841","1823","1841",""
"MA200-0416","27172","79","1","1.10","1.4","2023-05-23T14:15:01","120","2023/05/23","14:15:01","-15.74329388141632","35.00550449825823","1.0","12","30","64","46","-25280","-2600","-676","6","150","149.87","113.92","35.95","34.12","38.8","18.12","91716","33.88","DUALSPOT-UV-BLUE-GREEN-RED-IR","833979","735285","903608","1.742777","0.488563","0.000000","800897","922813","762334","1.002913","0.270223","0.000000","897657","926915","814434","0.749844","0.191861","0.000000","883711","946859","864390","0.537872","0.129407","0.000000","742454","867027","951621","0.346815","0.094499","0.000000","3670","3358","3670","2599","2237","2599","2203","1958","2203","1907","1398","1907","1742","1454","1742",""
"MA200-0416","27173","79","1","1.10","1.4","2023-05-23T14:15:31","120","2023/05/23","14:15:31","-15.743315517902374","35.0052548320964","1.4","12","30","64","46","-25372","-3712","2352","6","150","149.83","114.48","35.35","34.16","38.8","18.14","91752","33.88","DUALSPOT-UV-BLUE-GREEN-RED-IR","834471","735992","904675","1.806094","0.507154","0.000000","801430","923721","763114","1.038146","0.279163","0.000000","898069","927524","815031","0.776433","0.199783","0.000000","884288","947599","865125","0.558024","0.134861","0.000000","743560","868416","953163","0.359285","0.097246","0.000000","3248","3088","3248","2281","1874","2281","1928","1860","1928","1766","1547","1766","1521","1085","1521",""
"MA200-0416","27174","79","1","1.10","1.4","2023-05-23T14:16:01","120","2023/05/23","14:16:01","-15.743108689785004","35.00518999900669","0.7","12","30","64","46","-25132","-2844","-2904","6","150","149.33","114.24","35.09","34.18","38.8","18.17","91740","33.94","DUALSPOT-UV-BLUE-GREEN-RED-IR","834475","736323","905229","1.864974","0.523376","0.000000","801697","924236","763628","1.072221","0.289159","0.000000","898248","927887","815389","0.801265","0.205546","0.000000","885114","948624","866093","0.575667","0.138867","0.000000","743202","868066","952821","0.371233","0.101917","0.000000","3027","2715","3027","2211","2112","2211","1804","1363","1804","1549","1145","1549","1460","1859","1460",""
"MA200-0416","27175","79","1","1.10","1.4","2023-05-23T14:16:31","120","2023/05/23","14:16:31","-15.742868721485138","35.00517049897462","1.1","12","30","64","46","-24936","-5404","-10704","6","150","150.01","114.73","35.27","34.20","38.8","18.18","91696","33.94","DUALSPOT-UV-BLUE-GREEN-RED-IR","834161","736352","905430","1.924601","0.540653","0.000000","801747","924546","763947","1.107239","0.297681","0.000000","898523","928337","815852","0.827533","0.211132","0.000000","878228","941396","859534","0.593763","0.140768","0.000000","743290","868274","953052","0.383783","0.103528","0.000000","3052","2876","3052","2262","1790","2262","1900","1314","1900","1582","540","1582","1528","637","1528",""
"MA200-0416","27176","79","1","1.10","1.4","2023-05-23T14:17:01","120","2023/05/23","14:17:01","-15.742715716362","35.00534966541454","0.7","12","30","64","45","-24448","-2884","-2360","6","150","149.96","113.80","36.16","34.22","38.8","18.19","91664","33.94","DUALSPOT-UV-BLUE-GREEN-RED-IR","832772","735418","904437","1.980470","0.557262","0.000000","800363","923092","762832","1.137643","0.307947","0.000000","897248","927173","814878","0.850820","0.218873","0.000000","883340","946951","864659","0.611192","0.145996","0.000000","742356","867219","951976","0.396423","0.107440","0.000000","2883","2697","2883","1980","2104","1980","1698","1777","1698","1536","1450","1536","1551","1511","1551",""
"MA200-0416","27177","79","1","1.10","1.4","2023-05-23T14:17:31","120","2023/05/23","14:17:31","-15.742752373218536","35.00557983154431","0.7","12","30","64","46","-25168","-1284","-4644","6","150","150.24","114.23","36.01","34.24","38.7","18.18","91672","34.00","DUALSPOT-UV-BLUE-GREEN-RED-IR","834468","737224","906795","2.037330","0.573465","0.000000","802020","925279","764680","1.171213","0.315313","0.000000","898844","929026","816537","0.875902","0.222534","0.000000","879425","942920","861005","0.628823","0.149673","0.000000","743772","868974","953913","0.408014","0.110541","0.000000","2923","2643","2923","2178","1516","2178","1822","843","1822","1548","1024","1548","1417","1202","1417",""
"MA200-0416","27178","79","1","1.10","1.4","2023-05-23T14:18:01","120","2023/05/23","14:18:01","-15.74264907836914","35.005828998982906","1.5","13","30","64","45","-23464","-3655","-7015","6","150","150.03","113.80","36.22","34.26","38.7","18.18","91604","34.00","DUALSPOT-UV-BLUE-GREEN-RED-IR","835681","738594","908640","2.096438","0.590974","0.000000","803092","926749","765990","1.206236","0.325481","0.000000","899036","929421","816940","0.901240","0.228381","0.000000","879056","942658","860811","0.648868","0.153714","0.000000","744426","869837","954872","0.419847","0.113027","0.000000","3050","2839","3050","2281","2080","2281","1848","1340","1848","1767","1119","1767","1452","958","1452",""
"MA200-0416","27179","79","1","1.10","1.4","2023-05-23T14:18:31","120","2023/05/23","14:18:31","-15.742419064044952","35.00610216520727","1.1","13","30","64","46","-22344","-2760","-7984","6","150","150.03","114.12","35.91","34.29","38.8","18.24","91568","34.06","DUALSPOT-UV-BLUE-GREEN-RED-IR","835940","739138","909463","2.157137","0.607841","0.000000","802440","926231","765604","1.239550","0.332086","0.000000","896018","926465","814366","0.927824","0.235134","0.000000","880534","944403","862406","0.667363","0.156653","0.000000","741193","866122","950825","0.431943","0.116221","0.000000","3124","2759","3124","2164","1363","2164","1933","1561","1933","1625","821","1625","1480","1242","1480",""
"MA200-0416","27180","79","1","1.10","1.4","2023-05-23T14:19:01","120","2023/05/23","14:19:01","-15.742570579051971","35.006226832047105","0.8","13","30","64","45","-24196","-2884","2340","6","150","149.39","113.76","35.62","34.32","38.8","18.27","91576","34.06","DUALSPOT-UV-BLUE-GREEN-RED-IR","835852","739361","909921","2.215681","0.626131","0.000000","803486","927648","766876","1.275062","0.343894","0.000000","898806","929549","817126","0.954151","0.242161","0.000000","879906","943846","861920","0.685369","0.161057","0.000000","739989","864770","949386","0.443410","0.119597","0.000000","3022","3015","3022","2314","2457","2314","1921","1637","1921","1587","1240","1587","1408","1323","1408",""
"MA200-0416","27181","79","1","1.10","1.4","2023-05-23T14:19:31","120","2023/05/23","14:19:31","-15.742717027664185","35.00628099869937","0.5","12","30","64","46","-24884","-2508","976","6","150","149.70","114.24","35.46","34.35","38.8","18.30","91592","34.13","DUALSPOT-UV-BLUE-GREEN-RED-IR","835538","739400","910134","2.276751","0.644395","0.000000","803154","927487","766815","1.309865","0.352649","0.000000","895617","926418","814464","0.981020","0.248778","0.000000","881224","945388","863393","0.704425","0.165253","0.000000","740291","865217","949931","0.456871","0.123537","0.000000","3139","3025","3139","2258","1830","2258","1952","1549","1952","1673","1187","1673","1645","1552","1645",""
"MA200-0416","27182","79","1","1.10","1.4","2023-05-23T14:20:01","120","2023/05/23","14:20:01","-15.742879748344421","35.00644083181396","1.3","12","30","64","45","-25952","-7256","-3476","6","150","149.96","114.12","35.84","34.38","38.8","18.35","91608","34.13","DUALSPOT-UV-BLUE-GREEN-RED-IR","835803","739933","910902","2.332558","0.660009","0.000000","797495","921205","761692","1.343518","0.361745","0.000000","895764","926764","814789","1.004225","0.253563","0.000000","882589","946999","864874","0.723242","0.169623","0.000000","736562","860906","945196","0.468406","0.125969","0.000000","2872","2558","2872","2186","1881","2186","1688","1108","1688","1654","1223","1654","1412","948","1412",""
"MA200-0416","27183","79","1","1.10","1.4","2023-05-23T14:20:31","120","2023/05/23","14:20:31","-15.743001401424408","35.00669933250174","1.0","12","30","64","45","-25747","-1703","-3539","6","150","149.61","113.89","35.72","34.41","38.9","18.42","91588","34.13","DUALSPOT-UV-BLUE-GREEN-RED-IR","829100","734314","904133","2.387732","0.675695","0.000000","798428","922516","762828","1.374178","0.368873","0.000000","895950","927112","815154","1.028097","0.258999","0.000000","882073","946581","864549","0.739115","0.172162","0.000000","740776","865969","950752","0.480337","0.128392","0.000000","2845","2579","2845","1995","1479","1995","1740","1263","1740","1398","713","1398","1463","947","1463",""
"MA200-0416","27184","79","1","1.10","1.4","2023-05-23T14:21:01","120","2023/05/23","14:21:01","-15.742998540401459","35.0069009992294","0.8","12","30","64","45","-25679","-1783","-1133","6","150","150.23","114.28","35.95","34.42","39.0","18.46","91556","34.19","DUALSPOT-UV-BLUE-GREEN-RED-IR","829149","734689","904772","2.450730","0.693283","0.000000","798356","922661","762997","1.409447","0.377456","0.000000","896222","927583","815605","1.054763","0.264960","0.000000","883620","948378","866207","0.758093","0.175440","0.000000","740917","866188","951051","0.492319","0.130682","0.000000","3237","2873","3237","2287","1770","2287","1937","1376","1937","1666","915","1666","1464","890","1464",""
"MA200-0416","27185","79","1","1.10","1.4","2023-05-23T14:21:31","120","2023/05/23","14:21:31","-15.74297159910202","35.00708699924871","0.8","12","30","64","45","-24400","-3784","896","6","150","150.09","114.24","35.85","34.46","38.9","18.46","91552","34.19","DUALSPOT-UV-BLUE-GREEN-RED-IR","826931","733029","902885","2.516265","0.714115","0.000000","796801","921092","761828","1.447689","0.390737","0.000000","895053","926552","814754","1.081926","0.272572","0.000000","881794","946553","864577","0.777477","0.179958","0.000000","739685","864842","949590","0.507497","0.135564","0.000000","3369","3412","3369","2481","2746","2481","1974","1762","1974","1702","1264","1702","1856","1902","1856",""
"MA200-0416","27186","79","1","1.10","1.4","2023-05-23T14:22:01","120","2023/05/23","14:22:01","-15.74318152666092","35.007125499192625","1.1","12","30","64","45","-25712","-2003","1088","6","150","149.86","114.88","34.98","34.49","38.8","18.46","91588","34.25","DUALSPOT-UV-BLUE-GREEN-RED-IR","830770","736745","907644","2.574863","0.731498","0.000000","799073","923982","764248","1.480179","0.399160","0.000000","893381","925003","813488","1.106828","0.278061","0.000000","877671","942279","860714","0.796645","0.184822","0.000000","742383","868122","953220","0.520479","0.137804","0.000000","2996","2918","2996","2096","1784","2096","1799","1302","1799","1674","1394","1674","1578","894","1578",""
"MA200-0416","27187","79","1","1.10","1.4","2023-05-23T14:22:31","120","2023/05/23","14:22:31","-15.743353426456451","35.00704349856824","0.2","13","30","64","45","-24854","-1608","1066","6","150","149.57","114.16","35.40","34.51","38.7","18.44","91628","34.25","DUALSPOT-UV-BLUE-GREEN-RED-IR","830582","736918","907983","2.633078","0.746774","0.000000","799825","925043","765210","1.513063","0.408321","0.000000","896704","928607","816713","1.133084","0.286520","0.000000","876777","941469","860000","0.815695","0.188845","0.000000","742240","868004","953123","0.533870","0.142005","0.000000","2995","2534","2995","2135","1918","2135","1909","1983","1909","1674","1140","1674","1638","1657","1638",""
"MA200-0416","27188","79","1","1.10","1.4","2023-05-23T14:23:01","120","2023/05/23","14:23:01","-15.743530333042145","35.006950333248824","0.6","13","30","64","44","-24556","-855","-11408","6","150","147.77","114.88","32.89","34.52","38.6","18.39","91636","34.31","DUALSPOT-UV-BLUE-GREEN-RED-IR","827466","735446","906903","2.753979","0.785162","0.000000","797413","923081","763863","1.575076","0.425266","0.000000","895401","927856","816218","1.176280","0.297344","0.000000","876107","941138","859841","0.845241","0.196135","0.000000","741806","867735","952952","0.553325","0.146390","0.000000","6181","6854","6181","4001","3818","4001","3121","2732","3121","2580","2223","2580","2365","1862","2365",""
"MA200-0416","27189","79","1","1.10","1.4","2023-05-23T14:23:31","120","2023/05/23","14:23:31","-15.743728220462799","35.00697083212435","1.0","13","30","64","45","-25060","-2216","-4500","6","150","149.51","114.40","35.11","34.54","38.6","18.42","91604","34.31","DUALSPOT-UV-BLUE-GREEN-RED-IR","824731","736341","909766","3.526326","1.018058","-0.007088","798013","925708","766679","1.923531","0.526332","0.000000","890938","924567","813769","1.417333","0.364494","0.000000","876778","942870","861735","1.014411","0.242048","0.000000","741315","867676","953075","0.654090","0.174317","0.000000","39654","38966","38687","22580","21342","22580","17493","15880","17493","14836","13121","14836","12304","11112","12304",""
"MA200-0416","27190","79","1","1.10","1.4","2023-05-23T14:24:01","120","2023/05/23","14:24:01","-15.744011342525482","35.00690083252266","1.1","13","30","64","44","-24232","-2492","-5224","6","150","149.83","114.28","35.55","34.55","38.6","18.41","91580","34.31","DUALSPOT-UV-BLUE-GREEN-RED-IR","825058","736949","910695","3.599793","1.039873","-0.018976","798071","926038","767038","1.968699","0.538730","0.000000","891007","924857","814089","1.451134","0.373101","0.000000","877381","943656","862529","1.039856","0.248182","0.000000","742493","869186","954774","0.670566","0.176843","0.000000","3775","3604","3534","2930","2585","2930","2455","2010","2455","2233","1731","2233","2013","992","2013",""
"MA200-0416","27191","79","1","1.10","1.4","2023-05-23T14:24:31","120","2023/05/23","14:24:31","-15.744259893894196","35.0069816657342","0.8","13","30","64","44","-24404","-1880","-2796","6","150","149.73","114.21","35.52","34.57","38.6","18.43","91564","34.31","DUALSPOT-UV-BLUE-GREEN-RED-IR","817598","730779","903273","3.683347","1.062784","-0.054140","792628","920091","762203","2.016216","0.550222","0.000000","891867","925999","815169","1.486546","0.381863","0.000000","877701","944240","863071","1.064175","0.253087","0.000000","743176","870069","955764","0.684024","0.180315","0.000000","4297","3788","3582","3084","2398","3084","2574","2048","2574","2136","1385","2136","1646","1365","1646",""
"MA200-0416","27192","79","1","1.10","1.4","2023-05-23T14:25:01","120","2023/05/23","14:25:01","-15.744495809078217","35.00708433287218","1.3","13","30","64","44","-23252","-3160","-8115","6","150","149.92","114.57","35.35","34.60","38.6","18.45","91536","34.38","DUALSPOT-UV-BLUE-GREEN-RED-IR","815020","729041","901429","3.802995","1.096838","-0.032141","790670","918229","760817","2.085864","0.569097","0.000000","890442","924872","814309","1.541650","0.395882","0.000000","875917","942556","861650","1.103913","0.263065","0.000000","742335","869278","954982","0.711336","0.186115","0.000000","6133","5658","5465","4506","3958","4506","3993","3292","3993","3479","2832","3479","3329","2292","3329",""
"MA200-0416","27193","79","1","1.10","1.4","2023-05-23T14:25:31","120","2023/05/23","14:25:31","-15.744763791561127","35.00714049907401","1.1","13","30","64","44","-25416","-3452","-1356","6","150","150.24","114.42","35.82","34.62","38.5","18.44","91516","34.38","DUALSPOT-UV-BLUE-GREEN-RED-IR","817178","731307","904425","3.869727","1.117401","-0.005799","791951","919994","762383","2.130103","0.581823","0.000000","891257","925947","815332","1.574284","0.404411","0.000000","878799","945864","864710","1.128715","0.269168","0.000000","738652","865056","950374","0.726030","0.191143","0.000000","3425","3372","3350","2866","2633","2866","2367","1976","2367","2174","1709","2174","1794","1961","1794",""
"MA200-0416","27194","79","1","1.10","1.4","2023-05-23T14:26:01","120","2023/05/23","14:26:01","-15.745093643665314","35.007201498840004","0.9","13","30","64","44","-25196","-2216","-1552","6","150","149.51","114.12","35.38","34.64","38.4","18.42","91492","34.38","DUALSPOT-UV-BLUE-GREEN-RED-IR","817351","731897","905331","3.945822","1.139194","-0.030457","792569","921082","763365","2.179861","0.595485","0.000000","891307","926318","815736","1.615357","0.416368","0.000000","878691","945930","864887","1.158100","0.276452","0.000000","738344","864818","950184","0.746564","0.196043","0.000000","3916","3617","3496","3232","2862","3232","2988","2805","2988","2583","2065","2583","2513","1934","2513",""
"MA200-0416","27195","79","1","1.10","1.4","2023-05-23T14:26:31","120","2023/05/23","14:26:31","-15.74535447359085","35.007223999127746","1.0","13","30","64","44","-24576","-3076","-3284","6","150","149.51","114.44","35.07","34.66","38.3","18.40","91480","34.44","DUALSPOT-UV-BLUE-GREEN-RED-IR","815475","730492","903807","4.012464","1.161947","0.034526","791237","919764","762401","2.224671","0.610160","0.000000","889807","924954","814598","1.650369","0.427311","0.000000","877333","944654","863719","1.184850","0.284183","0.000000","737513","863940","949249","0.762657","0.200704","0.000000","3420","3811","3970","2902","3102","2902","2540","2591","2540","2345","2212","2345","1964","1857","1964",""
"MA200-0416","27196","79","1","1.10","1.4","2023-05-23T14:27:01","120","2023/05/23","14:27:01","-15.745503842830658","35.00741549860686","1.1","13","30","64","44","-24120","-2416","-1612","6","150","149.51","114.52","34.99","34.67","38.3","18.39","0","0.00","DUALSPOT-UV-BLUE-GREEN-RED-IR","817409","732589","906582","4.079679","1.179958","-0.051238","792590","921674","764042","2.266925","0.620985","0.000000","891409","926850","816354","1.682901","0.434911","0.000000","880031","947753","866616","1.207912","0.288659","0.000000","739053","865818","951378","0.778999","0.204058","0.000000","3447","3023","2851","2735","2293","2735","2358","1803","2358","2020","1283","2020","1993","1339","1993",""
"MA200-0416","27197","79","1","1.10","1.4","2023-05-23T14:27:31","120","2023/05/23","14:27:31","-15.745503842830658","35.00771416537464","1.2","13","30","64","44","-24664","-2788","80","6","150","149.54","114.23","35.31","34.69","38.3","18.42","0","0.00","DUALSPOT-UV-BLUE-GREEN-RED-IR","817421","732998","907258","4.152295","1.202144","-0.004032","792488","921828","764286","2.310675","0.633035","0.000000","887504","923003","813039","1.715213","0.443035","0.000000","872794","940083","859665","1.231449","0.294828","0.000000","739175","866100","951700","0.793317","0.208341","0.000000","3733","3690","3672","2839","2529","2839","2348","1909","2348","2067","1752","2067","1751","1694","1751",""
"MA200-0416","27198","79","1","1.10","1.4","2023-05-23T14:28:01","120","2023/05/23","14:28:01","-15.745440900325775","35.00800516549498","1.0","14","30","64","44","-25066","-3250","-545","6","150","150.03","114.44","35.59","34.73","38.3","18.46","91456","34.50","DUALSPOT-UV-BLUE-GREEN-RED-IR","817288","733179","907696","4.216415","1.222141","0.000941","792813","922444","764894","2.349138","0.643634","0.000000","888504","924260","814192","1.744312","0.449758","0.000000","874184","941762","861234","1.252973","0.299275","0.000000","740183","867376","953115","0.808713","0.212298","0.000000","3290","3300","3304","2491","2207","2491","2111","1568","2111","1886","1253","1886","1879","1553","1879",""
"MA200-0416","27199","79","1","1.10","1.4","2023-05-23T14:28:31","120","2023/05/23","14:28:31","-15.745328664779663","35.008160665631294","0.7","14","30","64","44","-25116","-6345","350","6","150","149.68","114.34","35.34","34.75","38.3","18.48","91460","34.56","DUALSPOT-UV-BLUE-GREEN-RED-IR","818337","734455","909455","4.282017","1.241771","-0.010961","793787","923886","766135","2.389949","0.655160","0.000000","891856","927951","817532","1.776701","0.459188","0.000000","873410","941110","860676","1.277113","0.305300","0.000000","739393","866539","952238","0.823112","0.216542","0.000000","3369","3262","3218","2645","2417","2645","2351","2215","2351","2118","1710","2118","1759","1677","1759",""
"MA200-0416","27200","79","1","1.10","1.4","2023-05-23T14:29:01","120","2023/05/23","14:29:01","-15.745074152946472","35.00808533281088","0.8","14","30","64","44","-24892","-2128","1732","6","150","149.57","114.24","35.32","34.77","38.4","18.53","91476","34.56","DUALSPOT-UV-BLUE-GREEN-RED-IR","817852","734408","909585","4.352808","1.260826","-0.051229","792781","923016","765481","2.432298","0.664472","0.000000","887931","924116","814180","1.808512","0.466185","0.000000","875027","943011","862480","1.300722","0.309789","0.000000","740023","867394","953229","0.839128","0.219502","0.000000","3639","3168","2976","2748","1954","2748","2311","1644","2311","2073","1274","2073","1958","1170","1958",""
"MA200-0416","27201","79","1","1.10","1.4","2023-05-23T14:29:31","120","2023/05/23","14:29:31","-15.744848012924194","35.00816533155739","1.1","14","30","64","44","-25450","-300","162","6","150","149.83","114.44","35.39","34.80","38.5","18.61","91484","34.63","DUALSPOT-UV-BLUE-GREEN-RED-IR","810594","728277","902155","4.423486","1.281187","-0.024110","793616","924273","766632","2.473658","0.675945","0.000000","888441","924847","814905","1.841664","0.473994","0.000000","875660","943859","863263","1.323032","0.314646","0.000000","740229","867748","953641","0.854850","0.223878","0.000000","3627","3379","3277","2679","2403","2679","2405","1831","2405","1955","1376","1955","1919","1727","1919",""
"MA200-0416","27202","79","1","1.10","1.4","2023-05-23T14:30:01","120","2023/05/23","14:30:01","-15.744852185249329","35.008339332416654","0.5","14","30","64","43","-23796","-2376","-3780","6","150","149.83","114.68","35.15","34.82","38.5","18.60","91468","34.63","DUALSPOT-UV-BLUE-GREEN-RED-IR","811435","729399","903770","4.495505","1.303962","0.009513","788408","918464","761924","2.516013","0.687885","0.000000","888514","925142","815231","1.872456","0.481546","0.000000","876009","944409","863803","1.346117","0.320065","0.000000","740481","868115","954095","0.870182","0.227822","0.000000","3688","3805","3853","2738","2518","2738","2229","1783","2229","2019","1546","2019","1867","1567","1867",""
"MA200-0416","27203","79","1","1.10","1.4","2023-05-23T14:30:31","120","2023/05/23","14:30:31","-15.744903206825256","35.00859166588634","1.1","14","30","64","44","-25524","-2840","-1588","6","150","149.57","114.40","35.17","34.85","38.4","18.60","91452","34.63","DUALSPOT-UV-BLUE-GREEN-RED-IR","811534","729964","904670","4.580716","1.328247","-0.024967","788794","919234","762639","2.561104","0.700437","0.000000","888218","925066","815223","1.903689","0.488162","0.000000","875923","944481","863936","1.369446","0.325626","0.000000","740458","868216","954237","0.885816","0.230821","0.000000","4374","4056","3925","2921","2646","2921","2266","1561","2266","2045","1586","2045","1909","1191","1909",""
"MA200-0416","27204","79","1","1.10","1.4","2023-05-23T14:31:01","120","2023/05/23","14:31:01","-15.744745016098022","35.00869183149189","1.2","15","30","64","43","-25468","-2932","959","6","150","150.49","115.75","34.74","34.88","38.5","18.66","91472","34.69","DUALSPOT-UV-BLUE-GREEN-RED-IR","808891","728264","902974","4.713203","1.368806","0.005837","787059","917627","761445","2.622276","0.716756","0.000000","887222","924339","814701","1.947069","0.500267","0.000000","874128","942798","862435","1.398390","0.330895","0.000000","739870","867610","953618","0.903265","0.234987","0.000000","6722","6857","6912","3917","3482","3917","3111","2893","3111","2508","1521","2508","2105","1675","2105",""
"MA200-0416","27205","79","1","1.10","1.4","2023-05-23T14:31:31","120","2023/05/23","14:31:31","-15.744530856609344","35.00869616586715","0.7","15","30","64","44","-25280","-2604","2684","6","150","149.37","114.53","34.84","34.91","38.5","18.68","91492","34.69","DUALSPOT-UV-BLUE-GREEN-RED-IR","809801","729836","905354","4.851980","1.412296","0.008439","788209","919400","763072","2.686506","0.735580","0.000000","884670","922014","812723","1.991790","0.511712","0.000000","877432","946564","865974","1.427853","0.338244","0.000000","736753","864108","949774","0.922153","0.239875","0.000000","7116","7332","7420","4157","4005","4157","3241","2727","3241","2580","2116","2580","2303","1960","2303",""
"MA200-0416","27206","79","1","1.10","1.4","2023-05-23T14:32:01","120","2023/05/23","14:32:01","-15.744350373744965","35.00854449905455","1.4","15","30","64","43","-24033","-2466","929","6","150","149.43","114.31","35.12","34.94","38.4","18.68","91512","34.75","DUALSPOT-UV-BLUE-GREEN-RED-IR","808033","728553","903925","4.942202","1.440706","0.006837","787124","918390","762304","2.732491","0.748968","0.000000","887625","925263","815640","2.024293","0.520748","0.000000","876091","945256","864812","1.450663","0.344043","0.000000","735950","863251","948871","0.937072","0.243753","0.000000","4636","4750","4798","2982","2825","2982","2360","2135","2360","2002","1656","2002","1823","1542","1823",""
"MA200-0416","27207","79","1","1.10","1.4","2023-05-23T14:32:31","120","2023/05/23","14:32:31","-15.744158387184143","35.008527498692274","0.5","15","30","64","43","-24732","-1827","1632","6","150","150.15","114.26","35.89","34.96","38.4","18.71","91524","34.75","DUALSPOT-UV-BLUE-GREEN-RED-IR","811292","731749","908048","4.993207","1.455183","-0.031526","789623","921554","764979","2.765232","0.756931","0.000000","888559","926442","816731","2.049834","0.525480","0.000000","877976","947404","866806","1.466983","0.346035","0.000000","741299","869609","955895","0.948787","0.246099","0.000000","2621","2369","2265","2124","1644","2124","1855","1094","1855","1432","556","1432","1432","913","1432",""
"MA200-0416","27208","79","1","1.10","1.4","2023-05-23T14:33:01","120","2023/05/23","14:33:01","-15.744153559207916","35.00857066549361","0.9","15","30","64","43","-21532","-2924","-6679","6","150","150.43","115.08","35.35","34.99","38.4","18.72","91516","34.75","DUALSPOT-UV-BLUE-GREEN-RED-IR","810761","731589","907982","5.049175","1.472745","0.005849","789171","921196","764773","2.798819","0.767713","0.000000","885351","923276","814016","2.076519","0.533991","0.000000","872024","941121","861122","1.486605","0.351458","0.000000","738020","865847","951801","0.962451","0.250226","0.000000","2856","2918","2943","2163","2261","2163","1925","1999","1925","1710","1539","1710","1658","1631","1658",""
"MA200-0416","27209","79","1","1.10","1.4","2023-05-23T14:33:31","120","2023/05/23","14:33:31","-15.744300901889801","35.008686165325344","0.6","15","30","64","43","-23924","-2027","-196","6","150","149.51","114.52","34.99","35.00","38.3","18.69","91492","34.81","DUALSPOT-UV-BLUE-GREEN-RED-IR","811726","732761","909631","5.105991","1.489969","-0.002163","790049","922517","765966","2.835756","0.778030","0.000000","884924","922986","813829","2.103025","0.540828","0.000000","871175","940348","860447","1.507282","0.356310","0.000000","737185","864930","950815","0.975902","0.253909","0.000000","2914","2891","2882","2391","2186","2391","1921","1622","1921","1811","1391","1811","1640","1470","1640",""
"MA200-0416","27210","79","1","1.10","1.4","2023-05-23T14:34:01","120","2023/05/23","14:34:01","-15.744448781013489","35.00869666505605","0.1","15","30","64","43","-24596","-4576","1365","6","150","149.57","114.56","35.01","35.03","38.3","18.69","91488","34.81","DUALSPOT-UV-BLUE-GREEN-RED-IR","806745","730412","907952","5.466999","1.604549","0.009491","787483","920507","764634","2.968293","0.815712","0.000000","883260","921942","813125","2.188587","0.564134","0.000000","869478","938983","859289","1.562023","0.370592","0.000000","736285","864160","950053","1.009647","0.261628","0.000000","18509","19224","19522","8576","7979","8576","6200","5527","6200","4794","4092","4794","4114","3080","4114",""
"MA200-0416","27211","79","1","1.10","1.4","2023-05-23T14:34:31","120","2023/05/23","14:34:31","-15.74437552690506","35.00883049797267","0.8","15","30","64","43","-24596","-824","2500","6","150","149.70","114.15","35.56","35.06","38.4","18.77","91492","34.88","DUALSPOT-UV-BLUE-GREEN-RED-IR","800410","725869","902995","5.774386","1.701345","0.002652","782846","915764","760919","3.086328","0.848602","-0.055120","884806","924022","815071","2.266533","0.584363","0.000000","872584","942695","862799","1.617032","0.382536","0.000000","737948","866263","952455","1.040937","0.269374","0.000000","15816","15990","16062","7665","6857","6551","5669","4723","5669","4834","3370","4834","3829","3043","3829",""
"MA200-0416","27212","79","1","1.10","1.4","2023-05-23T14:35:01","120","2023/05/23","14:35:01","-15.744172871112823","35.00882183108479","0.9","15","30","64","43","-24136","-2252","2872","6","150","149.83","114.52","35.31","35.08","38.4","18.79","91524","34.88","DUALSPOT-UV-BLUE-GREEN-RED-IR","800003","725938","903329","5.870032","1.731542","0.005593","783285","916589","761700","3.141862","0.864320","-0.040616","885024","924491","815606","2.307105","0.595766","0.000000","873440","943793","863868","1.644718","0.390195","0.000000","738316","866812","953093","1.059488","0.273595","0.000000","4905","5023","5072","3594","3300","3188","2941","2680","2941","2425","2176","2425","2262","1669","2262",""
"MA200-0416","27213","79","1","1.10","1.4","2023-05-23T14:35:31","120","2023/05/23","14:35:31","-15.743963241577148","35.00885766465217","0.6","15","30","64","43","-25496","-3164","-1188","6","150","150.11","114.27","35.84","35.11","38.4","18.82","91532","34.94","DUALSPOT-UV-BLUE-GREEN-RED-IR","800260","726478","904140","5.929256","1.750009","-0.001431","783530","917162","762256","3.182369","0.876581","-0.015987","884780","924450","815585","2.337169","0.603485","0.000000","873207","943707","863851","1.668530","0.396216","0.000000","738168","866729","953033","1.074312","0.277410","0.000000","3044","3026","3018","2627","2535","2500","2184","1787","2184","2090","1685","2090","1812","1486","1812",""
"MA200-0416","27214","79","1","1.10","1.4","2023-05-23T14:36:01","120","2023/05/23","14:36:01","-15.743674039840698","35.008708665147424","0.8","15","30","64","43","-24524","-1000","1964","6","150","149.86","114.50","35.36","35.13","38.3","18.82","91552","34.94","DUALSPOT-UV-BLUE-GREEN-RED-IR","800606","727017","904993","5.982127","1.767652","0.017137","783739","917625","762702","3.217512","0.887065","-0.015310","885092","924967","816120","2.365649","0.611347","0.000000","874226","944948","865014","1.688194","0.400781","0.000000","738659","867428","953841","1.088287","0.280764","0.000000","2712","2930","3022","2275","2198","2168","2065","1845","2065","1723","1295","1723","1705","1325","1705",""
"MA200-0416","27215","79","1","1.10","1.4","2023-05-23T14:36:31","120","2023/05/23","14:36:31","-15.743395566940308","35.00858033075929","1.0","15","30","64","43","-24560","-2252","-20","6","150","149.57","114.36","35.21","35.14","38.3","18.82","91576","35.00","DUALSPOT-UV-BLUE-GREEN-RED-IR","801442","728075","906462","6.037386","1.783649","-0.015312","783977","918127","763249","3.255987","0.897996","-0.036597","881541","921432","813085","2.394700","0.618815","0.000000","875115","946060","866097","1.709502","0.404781","0.000000","739052","867990","954480","1.104162","0.285799","0.000000","2838","2668","2597","2494","2301","2228","2109","1761","2109","1869","1139","1869","1939","1997","1939",""
"MA200-0416","27216","79","1","1.10","1.4","2023-05-23T14:37:01","120","2023/05/23","14:37:01","-15.743120908737183","35.00854766461998","0.8","15","30","64","42","-25928","-3044","-5968","6","150","150.09","114.80","35.30","35.16","38.3","18.84","91556","35.00","DUALSPOT-UV-BLUE-GREEN-RED-IR","799696","726824","905070","6.104222","1.805631","0.014751","782882","917180","762539","3.301161","0.910686","-0.041044","884723","925007","816298","2.429873","0.628418","0.000000","873005","943958","864207","1.734674","0.411396","0.000000","738827","867806","954359","1.119754","0.289363","0.000000","3419","3657","3758","2917","2665","2569","2543","2258","2543","2199","1880","2199","1897","1410","1897",""
"MA200-0416","27217","79","1","1.10","1.4","2023-05-23T14:37:31","120","2023/05/23","14:37:31","-15.742906033992767","35.008536332286894","1.0","15","30","64","43","-24069","-1784","-4734","6","150","149.43","114.76","34.67","35.19","38.2","18.81","91540","35.00","DUALSPOT-UV-BLUE-GREEN-RED-IR","801836","729075","908061","6.165285","1.824918","0.009872","784351","919143","764258","3.342134","0.922910","-0.005181","885542","926078","817353","2.464277","0.637465","0.000000","868153","938907","859635","1.760196","0.418567","0.000000","734899","863291","949401","1.136184","0.292747","0.000000","3125","3267","3327","2646","2614","2601","2488","2166","2488","2231","2075","2231","1999","1363","1999",""
"MA200-0416","27218","79","1","1.10","1.4","2023-05-23T14:38:01","120","2023/05/23","14:38:01","-15.742642760276794","35.00848366506398","1.1","15","30","64","42","-25495","-3358","-4475","6","150","149.09","113.13","35.96","35.21","38.0","18.76","91488","35.06","DUALSPOT-UV-BLUE-GREEN-RED-IR","800281","727936","906812","6.223117","1.843030","-0.003432","782886","917702","763160","3.381854","0.935297","-0.007962","881102","921645","813452","2.492684","0.644832","0.000000","867145","937958","858821","1.782804","0.423955","0.000000","734621","863069","949216","1.151155","0.296562","0.000000","3002","2958","2939","2602","2553","2534","2084","1700","2084","2005","1503","2005","1848","1481","1848",""
"MA200-0416","27219","79","1","1.10","1.4","2023-05-23T14:38:31","120","2023/05/23","14:38:31","-15.742324948310852","35.00849349796772","0.8","15","30","64","43","-22672","-3080","-5456","6","150","149.57","114.20","35.36","35.22","38.0","18.75","91444","35.06","DUALSPOT-UV-BLUE-GREEN-RED-IR","802610","730358","909950","6.277889","1.858831","-0.017154","785204","920630","765646","3.418386","0.944410","-0.107448","882168","922932","814687","2.522231","0.653165","0.000000","869631","940812","861486","1.803004","0.428980","0.000000","739937","869446","956210","1.165142","0.300651","0.000000","2817","2624","2543","2371","1910","1734","2147","1956","2147","1774","1425","1774","1710","1615","1710",""
"MA200-0416","27220","79","1","1.10","1.4","2023-05-23T14:39:01","120","2023/05/23","14:39:01","-15.742021560668945","35.00860433187336","1.0","15","30","64","42","-24184","-3600","-516","6","150","150.36","114.95","35.41","35.24","38.0","18.76","91416","35.06","DUALSPOT-UV-BLUE-GREEN-RED-IR","802059","730454","910454","6.360761","1.884780","0.003597","785170","921131","766246","3.470820","0.959693","-0.023140","881460","922661","814551","2.563393","0.663286","0.000000","868837","940272","861078","1.831752","0.433826","0.000000","739427","869013","955854","1.183723","0.305557","0.000000","4234","4304","4333","3381","3199","3130","2972","2372","2972","2508","1372","2508","2258","1935","2258",""
"MA200-0416","27221","79","1","1.10","1.4","2023-05-23T14:39:31","120","2023/05/23","14:39:31","-15.741966605186462","35.00886483117938","1.2","15","30","64","42","-25296","-3304","-3492","6","150","149.87","114.42","35.45","35.25","37.9","18.72","91416","35.06","DUALSPOT-UV-BLUE-GREEN-RED-IR","801592","730597","910905","6.509132","1.927709","-0.015926","785201","921589","766775","3.561181","0.985538","-0.033371","881464","922924","814921","2.628762","0.681954","0.000000","869606","941311","862099","1.880443","0.448960","0.000000","735356","864347","950744","1.213895","0.312335","0.000000","7616","7112","6901","5854","5404","5232","4743","4372","4743","4269","4283","4269","3683","2670","3683",""
"MA200-0416","27222","79","1","1.10","1.4","2023-05-23T14:40:01","120","2023/05/23","14:40:01","-15.742028534412384","35.009152663871646","0.9","15","30","64","42","-22056","-3907","-8820","6","150","150.43","114.44","35.99","35.26","37.8","18.69","91388","35.13","DUALSPOT-UV-BLUE-GREEN-RED-IR","794588","724532","903457","6.567734","1.945116","-0.013009","779542","915166","761520","3.599214","0.996135","-0.051944","882023","923749","815680","2.659184","0.689750","0.000000","869960","941860","862607","1.902169","0.453072","0.000000","735915","865093","951614","1.227594","0.316493","0.000000","3007","2841","2771","2463","2183","2075","2207","1798","2207","1904","1146","1904","1672","1614","1672",""
"MA200-0416","27223","79","1","1.10","1.4","2023-05-23T14:40:31","120","2023/05/23","14:40:31","-15.742187440395355","35.009489830583334","1.5","15","30","64","42","-24576","-3172","-1468","6","150","149.83","114.36","35.47","35.27","37.7","18.68","91376","35.13","DUALSPOT-UV-BLUE-GREEN-RED-IR","793723","724059","903021","6.627385","1.963132","-0.005829","784743","921568","766909","3.636891","1.005554","-0.100744","881451","923353","815375","2.687448","0.696927","0.000000","870502","942554","863313","1.921236","0.458038","0.000000","735730","864954","951451","1.240716","0.319389","0.000000","3063","2983","2949","2442","1968","1787","2051","1679","2051","1672","1404","1672","1602","1140","1602",""
"MA200-0416","27224","79","1","1.10","1.4","2023-05-23T14:41:01","120","2023/05/23","14:41:01","-15.742336690425873","35.00980683043599","0.9","15","30","64","42","-25788","-3392","-1880","6","150","149.92","114.15","35.77","35.29","37.7","18.70","91372","35.13","DUALSPOT-UV-BLUE-GREEN-RED-IR","794453","725106","904540","6.701822","1.985420","-0.010050","779277","915449","761926","3.684699","1.018976","-0.045559","881887","924025","816092","2.723897","0.706344","0.000000","870872","943163","863953","1.947569","0.464415","0.000000","735657","864953","951562","1.258157","0.324988","0.000000","3830","3659","3588","3104","2781","2658","2650","2185","2650","2314","1788","2314","2134","2186","2134",""
"MA200-0416","27225","79","1","1.10","1.4","2023-05-23T14:41:31","120","2023/05/23","14:41:31","-15.742434084415436","35.010155664756894","1.0","15","30","64","42","-24484","-2188","-3068","6","150","150.09","114.20","35.89","35.31","37.7","18.71","91360","35.13","DUALSPOT-UV-BLUE-GREEN-RED-IR","794139","725386","905204","6.809921","2.017339","-0.013815","778968","915505","762137","3.748733","1.039135","0.000606","881814","924291","816451","2.772910","0.721144","0.000000","871237","943813","864607","1.981669","0.473946","0.000000","736105","865640","952342","1.280515","0.331493","0.000000","5559","5223","5081","4156","4163","4166","3563","3423","3563","2995","2664","2995","2734","2531","2734",""
"MA200-0416","27226","79","1","1.10","1.4","2023-05-23T14:42:01","120","2023/05/23","14:42:01","-15.74252861738205","35.010492997244","1.0","15","30","64","42","-25420","-2080","-5304","6","150","150.09","114.56","35.54","35.33","37.7","18.72","91352","35.19","DUALSPOT-UV-BLUE-GREEN-RED-IR","791299","723277","902846","6.913951","2.046365","-0.024087","777567","914240","761186","3.810102","1.055526","-0.062427","879697","922358","814830","2.819115","0.733238","0.000000","868187","940705","861854","2.015781","0.482857","0.000000","734138","863478","950001","1.301811","0.336412","0.000000","5333","4797","4572","3971","3419","3208","3348","2825","3348","2987","2515","2987","2596","1933","2596",""
"MA200-0416","27227","79","1","1.10","1.4","2023-05-23T14:42:31","120","2023/05/23","14:42:31","-15.742583572864532","35.010800330899656","1.1","15","30","64","42","-24928","-3020","-2648","6","150","150.29","114.44","35.85","35.35","37.7","18.72","91332","35.19","DUALSPOT-UV-BLUE-GREEN-RED-IR","793707","725788","906147","6.974829","2.066083","0.006576","778463","915609","762424","3.850824","1.067459","-0.025532","877888","920678","813414","2.849341","0.741386","0.000000","871739","944726","865610","2.036911","0.488120","0.000000","736118","865866","952697","1.315252","0.340662","0.000000","3124","3230","3274","2637","2467","2401","2192","1886","2192","1852","1472","1852","1640","1655","1640",""
"MA200-0416","27228","79","1","1.10","1.4","2023-05-23T14:43:01","120","2023/05/23","14:43:01","-15.742591619491577","35.011146331205964","1.1","15","30","64","42","-25366","-2691","-2304","6","150","149.57","114.28","35.28","35.36","37.7","18.73","91316","35.19","DUALSPOT-UV-BLUE-GREEN-RED-IR","793186","725751","906353","7.044583","2.088512","0.007889","779244","916862","763597","3.895002","1.079885","-0.036059","881099","924358","816749","2.884567","0.751179","0.000000","870780","943911","864910","2.061688","0.494217","0.000000","736074","865974","952872","1.332407","0.344767","0.000000","3585","3733","3796","2865","2610","2512","2559","2304","2559","2175","1733","2175","2096","1625","2096",""
"MA200-0416","27229","79","1","1.10","1.4","2023-05-23T14:43:31","120","2023/05/23","14:43:31","-15.742594540119171","35.011477331630886","1.1","15","30","64","41","-25096","-2792","-1340","6","150","149.58","114.39","35.20","35.38","37.6","18.73","91308","35.19","DUALSPOT-UV-BLUE-GREEN-RED-IR","792493","725936","906995","7.207449","2.138410","-0.000858","778776","917090","764064","4.017335","1.116739","-0.007439","876765","920426","813512","2.983195","0.779032","0.000000","870614","944215","865377","2.138954","0.515794","0.000000","735499","865591","952612","1.383962","0.359590","0.000000","8363","8326","8311","7928","7762","7698","7158","6570","7158","6776","6150","6776","6296","5883","6296",""
"MA200-0416","27230","79","1","1.10","1.4","2023-05-23T14:44:01","120","2023/05/23","14:44:01","-15.742579400539398","35.01182916481048","1.3","15","30","64","42","-22948","-2784","-2936","6","150","150.29","114.20","36.09","35.40","37.5","18.72","91304","35.25","DUALSPOT-UV-BLUE-GREEN-RED-IR","789181","725418","907864","7.643531","2.275837","-0.000531","776634","916550","764341","4.285175","1.198160","-0.013036","874857","919967","813673","3.188103","0.839924","-0.027670","870172","944920","866458","2.288502","0.559860","0.000000","735642","866478","953822","1.475338","0.384190","0.000000","22428","22364","22337","17386","16724","16466","14896","14007","13689","13138","12249","13138","11177","9521","11177",""
"MA200-0416","27231","79","1","1.10","1.4","2023-05-23T14:44:31","120","2023/05/23","14:44:31","-15.742589354515076","35.012159664183855","1.0","15","30","64","41","-25728","-3560","-1108","6","150","150.73","114.59","36.15","35.42","37.6","18.75","91312","35.25","DUALSPOT-UV-BLUE-GREEN-RED-IR","786529","723606","905966","7.858351","2.343704","0.000262","774939","915093","763281","4.417240","1.235628","-0.036788","873635","919076","813049","3.291202","0.869769","-0.038322","867773","942644","864476","2.365607","0.579911","0.000000","734208","864917","952216","1.520513","0.396630","0.000000","11011","11027","11034","8544","7683","7349","7470","6854","6633","6751","5565","6751","5507","4807","5507",""
"MA200-0416","27232","79","1","1.10","1.4","2023-05-23T14:45:01","120","2023/05/23","14:45:01","-15.742649376392365","35.01245116535574","1.0","15","30","64","41","-23772","-4080","-4316","6","150","150.16","114.56","35.60","35.43","37.7","18.82","91300","35.25","DUALSPOT-UV-BLUE-GREEN-RED-IR","787798","725210","908137","7.939113","2.367168","-0.012881","775941","916632","764678","4.470253","1.250825","-0.026978","874707","920508","814371","3.331393","0.879085","-0.158239","863452","938198","860436","2.394855","0.585657","0.000000","735553","866674","954126","1.540567","0.400842","0.000000","4140","3871","3756","3430","3164","3061","2912","2172","1907","2561","1619","2561","2445","1652","2445",""
"MA200-0416","27233","79","1","1.10","1.4","2023-05-23T14:45:31","120","2023/05/23","14:45:31","-15.742880046367645","35.0126663306728","1.7","15","30","64","42","-25000","-2728","-7824","6","150","149.39","113.92","35.46","35.45","37.6","18.81","91260","35.25","DUALSPOT-UV-BLUE-GREEN-RED-IR","787973","725969","909440","8.029250","2.395084","-0.000910","776224","917381","765474","4.523963","1.266084","-0.030517","874372","920479","814462","3.372694","0.890093","-0.071958","862661","937578","859945","2.424800","0.593614","0.000000","734917","866068","953538","1.562433","0.406854","0.000000","4647","4623","4613","3495","3189","3071","3009","2577","2422","2637","2251","2637","2681","2368","2681",""
"MA200-0416","27234","79","1","1.10","1.4","2023-05-23T14:46:01","120","2023/05/23","14:46:01","-15.743063867092133","35.01292833313346","0.6","15","30","64","41","-25252","-3939","-1932","6","150","150.09","114.56","35.54","35.48","37.5","18.75","91232","35.31","DUALSPOT-UV-BLUE-GREEN-RED-IR","786773","725454","909127","8.168234","2.436321","-0.008089","775640","917196","765444","4.601335","1.288467","-0.022449","874100","920570","814669","3.431869","0.906599","-0.046262","863237","938476","860860","2.467215","0.604229","0.000000","735443","866837","954468","1.591079","0.413193","0.000000","7125","6815","6684","5006","4669","4538","4288","3856","3700","3714","2997","3714","3493","2491","3493",""
"MA200-0416","27235","79","1","1.10","1.4","2023-05-23T14:46:31","120","2023/05/23","14:46:31","-15.74323982000351","35.013252165168524","1.2","15","30","64","41","-24632","-3492","-2672","6","150","150.08","113.88","36.20","35.49","37.4","18.73","91216","35.38","DUALSPOT-UV-BLUE-GREEN-RED-IR","786334","726069","910482","8.319726","2.481639","-0.011013","775333","917863","766380","4.716676","1.320259","-0.047977","873305","920665","815052","3.527111","0.932282","-0.073621","862393","938325","861019","2.543193","0.624710","0.000000","735149","867028","954863","1.642610","0.426032","0.000000","7813","7353","7157","7508","6510","6123","6943","5890","5512","6693","5676","6693","6321","4954","6321",""
"MA200-0416","27236","79","1","1.10","1.4","2023-05-23T14:47:01","120","2023/05/23","14:47:01","-15.74343866109848","35.013540998101234","1.4","15","30","64","41","-25832","-2644","40","6","150","149.90","114.04","35.85","35.50","37.3","18.68","91212","35.31","DUALSPOT-UV-BLUE-GREEN-RED-IR","780771","723610","909012","8.843896","2.651600","0.004844","770610","915230","765311","5.167216","1.463651","0.003272","868896","918650","814326","3.920985","1.053911","-0.006359","858288","936077","859855","2.868101","0.724148","0.000000","733005","865941","954324","1.868211","0.492858","0.000000","26996","27842","28205","29287","29648","29790","28674","28164","27976","28583","27825","28583","27634","26037","27634",""
"MA200-0416","27237","79","1","1.10","1.4","2023-05-23T14:47:31","120","2023/05/23","14:47:31","-15.74354201555252","35.013820498250425","1.1","15","30","64","41","-25787","-2887","1704","6","150","150.29","114.36","35.93","35.51","37.2","18.68","91224","35.38","DUALSPOT-UV-BLUE-GREEN-RED-IR","772900","717956","902755","9.210342","2.765333","-0.001929","769719","915914","766493","5.473435","1.555936","-0.011059","868681","919901","815997","4.190463","1.134747","-0.015806","859802","938992","862975","3.089787","0.787788","-0.042435","728702","861654","949950","2.020593","0.536468","0.000000","18820","18591","18492","19850","19039","18717","19563","18677","18348","19448","17768","17194","18614","16954","18614",""
"MA200-0416","27238","79","1","1.10","1.4","2023-05-23T14:48:01","120","2023/05/23","14:48:01","-15.743589460849762","35.01410833187401","1.2","15","30","64","41","-24133","-2733","1487","6","150","149.63","113.72","35.91","35.52","37.2","18.69","91244","35.38","DUALSPOT-UV-BLUE-GREEN-RED-IR","770716","718011","904049","9.626600","2.896497","-0.000303","768058","915600","766812","5.747789","1.634191","-0.027160","862884","915192","812307","4.418827","1.200008","-0.033905","858807","939100","863491","3.274115","0.838768","-0.061136","727857","861443","950033","2.150798","0.571561","0.000000","21498","21455","21436","17884","16156","15469","16671","15089","14499","16261","14244","13549","15994","13652","15994",""
"MA200-0416","27239","79","1","1.10","1.4","2023-05-23T14:48:31","120","2023/05/23","14:48:31","-15.743571043014526","35.014417165890336","1.3","15","30","64","41","-25008","-3960","-180","6","150","149.96","113.88","36.08","35.53","37.2","18.69","91252","35.38","DUALSPOT-UV-BLUE-GREEN-RED-IR","767414","716542","903175","9.984657","3.009323","-0.000778","761393","908714","761404","5.922830","1.682817","-0.035077","865791","919156","816093","4.553574","1.234478","-0.078841","857913","938843","863439","3.381101","0.865101","-0.126632","727840","861889","950679","2.226173","0.590034","0.000000","18467","18367","18324","11394","9991","9434","9823","7931","7228","9425","7322","6599","9245","7152","9245",""
"MA200-0416","27240","79","1","1.10","1.4","2023-05-23T14:49:01","120","2023/05/23","14:49:01","-15.74354100227356","35.0147266658023","1.3","15","30","64","41","-23536","-2708","1608","6","150","148.91","113.54","35.38","35.53","37.2","18.70","91272","35.44","DUALSPOT-UV-BLUE-GREEN-RED-IR","763137","714803","902327","10.407328","3.145229","0.004209","762836","912595","765419","6.224734","1.775394","-0.003642","862754","917745","815500","4.796911","1.305121","-0.021572","854082","936125","861512","3.570967","0.919008","-0.038024","729519","864833","954353","2.358486","0.625804","0.000000","21866","22565","22868","19712","19400","19275","17794","16579","16125","16777","15288","14772","16279","14125","16279",""
"MA200-0416","27241","79","1","1.10","1.4","2023-05-23T14:49:31","120","2023/05/23","14:49:31","-15.743748307228088","35.01504399906844","0.6","15","30","64","41","-24373","-2576","1196","6","150","149.92","114.27","35.65","35.54","37.2","18.68","0","0.00","DUALSPOT-UV-BLUE-GREEN-RED-IR","764363","716285","904338","10.540365","3.186788","0.000162","759070","908444","762049","6.326472","1.805137","-0.015288","862897","918135","815955","4.884780","1.331061","-0.016366","855767","938239","863474","3.642194","0.936472","-0.111199","726109","860933","950075","2.407686","0.638682","0.000000","6838","6846","6850","6600","6184","6018","6384","6040","5911","6253","4914","4450","6014","5045","6014",""
"MA200-0416","27242","79","1","1.10","1.4","2023-05-23T14:50:01","120","2023/05/23","14:50:01","-15.743951439857483","35.01513666473329","1.0","15","30","64","41","-23368","-2684","-7000","6","150","150.14","113.67","36.48","35.55","37.2","18.69","0","0.00","DUALSPOT-UV-BLUE-GREEN-RED-IR","764415","716618","904993","10.603703","3.207922","0.005090","759221","908871","762520","6.371526","1.818800","-0.013087","862770","918281","816141","4.920739","1.339554","-0.115648","856186","938853","864124","3.669982","0.944995","-0.017242","730578","866305","956070","2.423404","0.642407","0.000000","3272","3403","3459","2938","2776","2712","2626","1933","1673","2452","2344","2306","1931","1426","1931",""
"MA200-0416","27243","79","1","1.10","1.4","2023-05-23T14:50:31","120","2023/05/23","14:50:31","-15.744099855422974","35.01533666532487","1.2","15","30","64","40","-25424","-3444","-2872","6","150","149.90","114.20","35.69","35.55","37.2","18.69","91268","35.44","DUALSPOT-UV-BLUE-GREEN-RED-IR","762702","715319","903510","10.667337","3.228805","0.006267","757337","906889","760961","6.415306","1.831680","-0.013962","862329","917996","815993","4.955971","1.349467","-0.032099","854937","937645","863083","3.696032","0.951111","-0.136373","725855","860821","950043","2.440899","0.646827","0.000000","3272","3436","3507","2841","2675","2608","2561","2305","2209","2288","1718","1521","2139","1729","2139",""
"MA200-0416","27244","79","1","1.10","1.4","2023-05-23T14:51:01","120","2023/05/23","14:51:01","-15.744205832481384","35.01556866336614","0.6","15","30","64","41","-24596","-2848","-712","6","150","150.49","114.16","36.33","35.56","37.1","18.69","91256","35.44","DUALSPOT-UV-BLUE-GREEN-RED-IR","764693","717430","906333","10.723003","3.247163","0.004618","758708","908816","762659","6.455846","1.843809","-0.014168","863073","919033","816982","4.987824","1.358556","-0.033173","856967","940063","865366","3.719911","0.957888","-0.045853","726667","861894","951262","2.455810","0.650893","0.000000","2864","2968","3013","2632","2474","2411","2316","2077","1987","2098","1871","1792","1824","1563","1824",""
"MA200-0416","27245","79","1","1.10","1.4","2023-05-23T14:51:31","120","2023/05/23","14:51:31","-15.74436104297638","35.01568349823356","0.8","15","30","64","40","-24520","-3104","-5372","6","150","149.45","113.80","35.64","35.57","37.1","18.70","91256","35.44","DUALSPOT-UV-BLUE-GREEN-RED-IR","761820","714999","903422","10.777296","3.265625","0.010159","757373","907448","761593","6.494089","1.855651","-0.002463","857469","913187","811869","5.016673","1.367425","-0.005165","854888","937901","863420","3.740713","0.963640","-0.050104","725489","860608","949857","2.469764","0.653801","0.000000","2802","3042","3146","2491","2463","2451","2104","2065","2051","1833","1618","1544","1712","1140","1712",""
"MA200-0416","27246","79","1","1.10","1.4","2023-05-23T14:52:01","120","2023/05/23","14:52:01","-15.744529902935028","35.015933664515615","0.9","15","30","64","40","-24441","-3616","-712","6","150","149.45","114.08","35.36","35.57","37.0","18.66","91248","35.44","DUALSPOT-UV-BLUE-GREEN-RED-IR","764484","717790","907178","10.836006","3.284938","0.007454","758969","909610","763525","6.534025","1.868295","0.004438","859486","915573","814055","5.049682","1.377785","0.003333","857580","941028","866354","3.764181","0.970453","-0.024841","727433","862992","952552","2.485136","0.658511","0.000000","3022","3207","3288","2595","2650","2672","2402","2432","2443","2063","1932","1887","1882","1860","1882",""
"MA200-0416","27247","79","1","1.10","1.4","2023-05-23T14:52:31","120","2023/05/23","14:52:31","-15.744795560836792","35.01586249656975","0.8","15","30","64","41","-25433","-3087","1591","6","150","149.73","114.25","35.48","35.58","37.0","18.64","91276","35.44","DUALSPOT-UV-BLUE-GREEN-RED-IR","763786","717474","906950","10.903242","3.306287","0.002878","758553","909394","763446","6.576833","1.881734","0.002316","862617","919150","817319","5.083931","1.388133","-0.007594","857044","940647","866066","3.790798","0.978261","-0.021259","726571","862088","951559","2.501173","0.662051","0.000000","3456","3534","3568","2777","2808","2820","2488","2421","2396","2337","2208","2163","1960","1393","1960",""
"MA200-0416","27248","79","1","1.10","1.4","2023-05-23T14:53:01","120","2023/05/23","14:53:01","-15.744982481002808","35.01557699777186","1.2","15","30","64","41","-25336","-2204","-228","6","150","150.17","114.29","35.87","35.58","36.9","18.62","91292","35.50","DUALSPOT-UV-BLUE-GREEN-RED-IR","763343","717322","906965","10.963713","3.327161","0.011428","758349","909390","763552","6.619359","1.894895","-0.003028","859385","915903","814503","5.116814","1.397543","-0.026995","857682","941469","866901","3.815675","0.985032","-0.057163","727388","863108","952755","2.515874","0.666011","0.000000","3107","3417","3552","2758","2719","2704","2388","2177","2098","2183","1893","1792","1796","1542","1796",""
"MA200-0416","27249","79","1","1.10","1.4","2023-05-23T14:53:31","120","2023/05/23","14:53:31","-15.745225846767426","35.01538099721074","0.7","14","30","64","40","-24948","-3068","1320","6","150","149.39","114.16","35.22","35.58","36.9","18.61","91328","35.50","DUALSPOT-UV-BLUE-GREEN-RED-IR","763340","717613","907482","11.022060","3.346468","0.008541","758315","909625","763841","6.660990","1.907424","-0.005360","862162","919060","817421","5.149811","1.408147","0.010494","857334","941242","866734","3.839643","0.991869","-0.029512","726598","862299","951900","2.532024","0.671485","0.000000","3001","3219","3313","2703","2636","2610","2399","2499","2536","2106","1947","1891","1976","2170","1976",""
"MA200-0416","27250","79","1","1.10","1.4","2023-05-23T14:54:01","120","2023/05/23","14:54:01","-15.745441973209381","35.01523049734533","1.0","14","30","64","41","-24796","-2960","1696","6","150","149.72","114.12","35.60","35.57","36.9","18.58","91352","35.50","DUALSPOT-UV-BLUE-GREEN-RED-IR","763404","717913","908017","11.076248","3.364107","0.005318","758772","910439","764597","6.698051","1.917743","-0.026441","857957","914808","813669","5.179292","1.415210","-0.090498","856593","940591","866216","3.862423","0.997978","-0.060368","726359","862056","951685","2.544443","0.674288","0.000000","2788","2910","2963","2407","2148","2045","2144","1647","1460","2002","1721","1624","1520","1099","1520",""
"MA200-0416","27251","79","1","1.10","1.4","2023-05-23T14:54:31","120","2023/05/23","14:54:31","-15.745569884777069","35.015459830872715","1.2","14","30","64","40","-24284","-2416","-4292","6","150","149.84","114.59","35.26","35.57","36.9","18.58","91336","35.50","DUALSPOT-UV-BLUE-GREEN-RED-IR","763332","718089","908420","11.127302","3.381490","0.011929","758759","910660","764851","6.733227","1.929443","0.015128","857843","914837","813807","5.209232","1.424962","0.014298","856386","940534","866192","3.884834","1.003253","-0.119354","726399","862224","951878","2.558435","0.677486","0.000000","2617","2895","3017","2275","2459","2533","2169","2296","2343","1962","1501","1340","1705","1266","1705",""
"MA200-0416","27252","79","1","1.10","1.4","2023-05-23T14:55:01","120","2023/05/23","14:55:01","-15.745502233505249","35.015757163986564","1.3","14","30","64","40","-25228","-3728","-7184","6","150","149.49","114.12","35.37","35.57","36.9","18.58","91308","35.50","DUALSPOT-UV-BLUE-GREEN-RED-IR","761994","717135","907366","11.183792","3.398759","-0.001798","757604","909495","763983","6.773559","1.941078","-0.015886","858328","915567","814528","5.241109","1.434779","-0.001695","857218","941593","867221","3.908468","1.010352","-0.011178","727034","863074","952851","2.572761","0.680592","0.000000","2907","2867","2850","2620","2438","2365","2319","2304","2298","2077","2013","1990","1753","1226","1753",""
"MA200-0416","27253","79","1","1.10","1.4","2023-05-23T14:55:31","120","2023/05/23","14:55:31","-15.745529353618622","35.016144663095474","1.3","14","30","64","40","-25212","-3639","-2928","6","150","149.39","114.20","35.18","35.57","36.8","18.57","91292","35.50","DUALSPOT-UV-BLUE-GREEN-RED-IR","762484","717864","908432","11.242273","3.418129","0.008653","757987","910212","764658","6.813848","1.952796","-0.012480","858118","915551","814562","5.272872","1.442993","-0.053855","856792","941295","867016","3.931939","1.016950","-0.034039","727152","863306","953150","2.588651","0.685225","0.000000","3007","3233","3331","2615","2469","2410","2309","1938","1798","2061","1881","1818","1943","1839","1943",""
"MA200-0416","27254","79","1","1.10","1.4","2023-05-23T14:56:01","120","2023/05/23","14:56:01","-15.745582938194275","35.016491163522005","1.1","14","30","64","40","-25632","-3332","-3848","6","150","150.29","114.32","35.97","35.56","36.8","18.54","91276","35.50","DUALSPOT-UV-BLUE-GREEN-RED-IR","759820","717024","908446","11.537292","3.515384","0.005560","755237","908554","763945","7.039999","2.026241","0.006122","856737","915457","815029","5.453516","1.500535","0.003063","855364","940824","867018","4.069270","1.059544","-0.004852","725877","862400","952452","2.672390","0.711366","0.000000","15157","15879","16196","14665","15135","15325","13118","13280","13341","12052","11879","11818","10232","10151","10232",""
"MA200-0416","27255","79","1","1.10","1.4","2023-05-23T14:56:31","120","2023/05/23","14:56:31","-15.745588481426239","35.016780162230134","0.9","14","30","64","40","-25520","-3492","-5696","6","150","150.49","114.00","36.49","35.56","36.8","18.53","91256","35.50","DUALSPOT-UV-BLUE-GREEN-RED-IR","757401","715057","906151","11.657896","3.556028","0.006067","753624","906863","762614","7.124451","2.053527","0.001842","854828","913664","813525","5.526191","1.522904","-0.010115","853215","938655","865079","4.126940","1.077347","-0.012232","724521","860895","950823","2.707033","0.721281","0.000000","6213","6542","6686","5491","5543","5564","5292","5089","5012","5075","4895","4831","4245","3795","4245",""
"MA200-0416","27256","79","1","1.10","1.4","2023-05-23T14:57:01","120","2023/05/23","14:57:01","-15.745352983474731","35.016911996528506","1.2","14","30","64","40","-25383","-2962","-1225","6","150","149.51","114.04","35.46","35.57","36.8","18.57","91240","35.50","DUALSPOT-UV-BLUE-GREEN-RED-IR","757716","715915","907590","11.755217","3.586380","0.000354","754258","908168","763881","7.189647","2.069984","-0.049999","856239","915585","815403","5.576259","1.536310","-0.042565","847807","933024","859998","4.164269","1.085794","-0.140073","726049","862930","953149","2.732174","0.726600","0.000000","5012","5026","5033","4238","3440","3117","3644","3138","2945","3283","2389","2074","3079","2095","3079",""
"MA200-0416","27257","79","1","1.10","1.4","2023-05-23T14:57:31","120","2023/05/23","14:57:31","-15.745032012462616","35.01698532886803","0.9","14","30","64","40","-24308","-2737","2266","6","150","149.33","113.84","35.48","35.58","36.9","18.61","91232","35.50","DUALSPOT-UV-BLUE-GREEN-RED-IR","756348","715401","907401","11.930820","3.643863","0.005656","753921","908415","764337","7.304251","2.106897","0.006138","854267","914024","814211","5.671156","1.565652","-0.001957","846691","932206","859418","4.236621","1.107531","-0.012125","725164","862112","952351","2.779747","0.740874","0.000000","9060","9515","9715","7462","7712","7813","6920","6865","6844","6376","6146","6064","5837","5619","5837",""
"MA200-0416","27258","79","1","1.10","1.4","2023-05-23T14:58:01","120","2023/05/23","14:58:01","-15.744876682758331","35.017132330685854","0.6","14","30","64","40","-25434","-3207","-1680","6","150","150.30","113.81","36.49","35.59","37.0","18.65","91216","35.50","DUALSPOT-UV-BLUE-GREEN-RED-IR","756499","715910","908265","12.008297","3.669616","0.004187","753459","908198","764281","7.357679","2.121931","-0.028219","854097","914092","814375","5.714322","1.577318","-0.048495","846580","932304","859575","4.270760","1.117009","-0.051948","724918","861973","952273","2.799730","0.745995","0.000000","3998","4145","4210","3480","3054","2881","3148","2654","2465","3009","2605","2462","2452","1960","2452",""
"MA200-0416","27259","79","1","1.10","1.4","2023-05-23T14:58:31","120","2023/05/23","14:58:31","-15.744807481765747","35.017377665266395","0.5","14","30","64","40","-24632","-4404","-2008","6","150","149.47","114.31","35.16","35.62","36.9","18.65","91204","35.50","DUALSPOT-UV-BLUE-GREEN-RED-IR","756260","716051","908687","12.081553","3.693586","0.006958","753659","908772","764877","7.408304","2.136646","-0.011322","854122","914398","814727","5.753362","1.588135","-0.027609","853251","939906","866651","4.300842","1.125645","-0.023078","724900","862099","952424","2.820789","0.750237","0.000000","3764","4003","4109","3283","3102","3029","2835","2554","2446","2640","2464","2401","2573","1685","2573",""
"MA200-0416","27260","79","1","1.10","1.4","2023-05-23T14:59:01","120","2023/05/23","14:59:01","-15.744893670082092","35.017656330019236","1.4","14","30","64","40","-25219","-3553","-3703","6","150","149.76","114.08","35.68","35.63","36.9","18.63","91188","35.50","DUALSPOT-UV-BLUE-GREEN-RED-IR","756123","716318","909278","12.167015","3.722501","0.008659","753134","908410","764686","7.459197","2.153961","0.014723","853589","914076","814548","5.793906","1.599979","-0.017322","846703","932846","860219","4.331537","1.134455","-0.029008","724899","862205","952616","2.840664","0.755913","0.000000","4400","4759","4918","3307","3597","3715","2950","2755","2681","2699","2477","2398","2433","2222","2433",""
"MA200-0416","27261","79","1","1.10","1.4","2023-05-23T14:59:31","120","2023/05/23","14:59:31","-15.745054364204407","35.01791316270828","1.1","14","30","64","40","-24712","-1616","-1512","6","150","150.09","114.00","36.09","35.64","36.9","18.64","91180","35.56","DUALSPOT-UV-BLUE-GREEN-RED-IR","754714","715607","908714","12.287392","3.760881","0.000821","752616","908261","764741","7.530934","2.174287","-0.022997","853606","914462","814993","5.847550","1.615023","-0.032029","846891","933313","860734","4.369113","1.143675","-0.100299","725574","863139","953702","2.864696","0.762144","0.000000","6202","6245","6265","4664","4175","3976","3906","3460","3290","3306","2562","2299","2944","2411","2944",""
"MA200-0416","27262","79","1","1.10","1.4","2023-05-23T15:00:01","120","2023/05/23","15:00:01","-15.745082139968872","35.01812366209924","0.7","14","30","64","40","-24988","-2944","812","6","150","149.76","114.16","35.60","35.65","36.8","18.64","91176","35.56","DUALSPOT-UV-BLUE-GREEN-RED-IR","752980","715150","908862","12.485126","3.825281","0.004812","751623","908192","765080","7.658226","2.212202","-0.008805","852363","914016","814930","5.948640","1.644396","-0.017518","846106","933142","860856","4.443566","1.165491","-0.020089","724696","862551","953205","2.911998","0.774908","0.000000","10173","10624","10823","8265","7894","7743","7351","6849","6657","6543","6147","6006","5788","5008","5788",""
"MA200-0416","27263","79","1","1.10","1.4","2023-05-23T15:00:31","120","2023/05/23","15:00:31","-15.745162189006805","35.0184673294425","0.9","14","30","64","39","-25280","-2972","-740","6","150","150.16","113.88","36.28","35.66","36.8","18.65","91180","35.56","DUALSPOT-UV-BLUE-GREEN-RED-IR","734998","709656","909472","14.793678","4.600006","0.004869","735909","902651","765900","9.726547","2.882932","0.002565","835614","908254","814909","7.780606","2.223265","-0.001468","831071","927254","859845","5.986891","1.639110","-0.008873","715336","858633","952287","4.016628","1.101635","-0.027203","119065","125433","128306","134639","137063","138084","133554","132476","132045","135962","130981","129104","135500","125813","122153",""
"MA200-0416","27264","79","1","1.10","1.4","2023-05-23T15:01:01","120","2023/05/23","15:01:01","-15.745056986808777","35.01881382614374","1.2","14","30","64","40","-24888","-2712","-660","6","150","149.70","114.24","35.46","35.67","36.9","18.67","91180","35.56","DUALSPOT-UV-BLUE-GREEN-RED-IR","732762","709303","910301","15.394312","4.808544","0.009560","733631","901686","765838","10.214062","3.042078","0.006725","834197","908402","815733","8.223111","2.364015","0.004095","829651","927140","860303","6.359289","1.751268","-0.006701","714468","858518","952569","4.278450","1.177116","-0.025435","30881","34545","36209","31635","33274","33968","32158","32956","33279","32704","31735","31367","32015","29738","28873",""
"MA200-0416","27265","79","1","1.10","1.4","2023-05-23T15:01:31","120","2023/05/23","15:01:31","-15.744857132434845","35.01899432949722","1.1","14","30","64","40","-24624","-2632","616","6","150","150.20","114.53","35.67","35.68","36.9","18.71","91196","35.56","DUALSPOT-UV-BLUE-GREEN-RED-IR","730857","708588","910119","15.635979","4.892128","0.008852","731788","900423","765152","10.373686","3.092002","0.000563","832647","907530","815252","8.352721","2.402633","-0.007772","829432","927551","860938","6.460808","1.780736","-0.016054","714308","858779","953015","4.344724","1.194644","-0.060510","12394","13762","14385","10332","10375","10393","9395","8987","8822","8893","8287","8057","8083","6863","6401",""
"MA200-0416","27266","79","1","1.10","1.4","2023-05-23T15:02:01","120","2023/05/23","15:02:01","-15.744644105434418","35.01914132758975","1.0","14","30","64","40","-25107","-3180","3169","6","150","149.70","114.00","35.70","35.69","37.0","18.76","91200","35.56","DUALSPOT-UV-BLUE-GREEN-RED-IR","729078","707881","909912","15.856918","4.968397","0.008190","731613","901155","766183","10.533203","3.142618","0.001777","831839","907496","815542","8.484900","2.441066","-0.013124","828273","926961","860631","6.565649","1.810462","-0.022854","713789","858597","953014","4.415115","1.213125","-0.064873","11383","12549","13082","10373","10511","10570","9626","8939","8661","9226","8354","8022","8625","7232","6705",""
"MA200-0416","27267","79","1","1.10","1.4","2023-05-23T15:02:31","120","2023/05/23","15:02:31","-15.744335770606995","35.019279496744275","1.4","14","30","64","39","-24452","-2000","2003","6","150","149.42","113.60","35.81","35.71","37.1","18.79","91220","35.56","DUALSPOT-UV-BLUE-GREEN-RED-IR","722280","701931","902782","16.022942","5.029608","0.012361","731207","901324","766594","10.654418","3.182964","0.006915","831120","907285","815622","8.588589","2.475011","0.005962","828062","927220","861081","6.649329","1.835870","-0.008067","713394","858435","952983","4.471611","1.228460","-0.053029","8584","10038","10704","7910","8351","8539","7577","7868","7986","7390","7117","7014","6947","5981","5615",""
"MA200-0416","27268","79","1","1.10","1.4","2023-05-23T15:03:01","120","2023/05/23","15:03:01","-15.744046986103058","35.01945649459958","1.0","14","30","64","39","-24041","-1994","-1741","6","150","149.96","114.12","35.84","35.72","37.0","18.78","91240","35.63","DUALSPOT-UV-BLUE-GREEN-RED-IR","727927","707854","910699","16.125502","5.066944","0.011682","730353","900695","766248","10.728822","3.208166","0.009388","830048","906501","815081","8.652986","2.496814","0.011426","828617","928106","862036","6.698834","1.852280","0.010626","713322","858542","953182","4.506551","1.239352","-0.002296","5278","6118","6503","4833","5212","5374","4684","5050","5198","4352","4593","4685","4277","4245","4233",""
"MA200-0416","27269","79","1","1.10","1.4","2023-05-23T15:03:31","120","2023/05/23","15:03:31","-15.743783354759216","35.01952916197479","0.9","14","30","64","39","-25729","-2483","-1933","6","150","150.21","114.17","36.05","35.74","37.0","18.80","91256","35.63","DUALSPOT-UV-BLUE-GREEN-RED-IR","721406","701999","903467","16.221941","5.099048","0.004532","725256","894859","761438","10.797901","3.230039","0.000386","830145","906979","815633","8.707471","2.511990","-0.022781","827981","927724","861777","6.742011","1.862008","-0.097123","713333","858743","953460","4.535448","1.246194","-0.115967","4961","5231","5355","4485","4498","4504","3962","3495","3306","3794","2707","2292","3535","2651","2317",""
"MA200-0416","27270","79","1","1.10","1.4","2023-05-23T15:04:01","120","2023/05/23","15:04:01","-15.7434121966362","35.01964815892279","1.2","14","30","64","39","-24388","-1952","-1112","6","150","149.70","114.32","35.38","35.75","37.0","18.81","91280","35.63","DUALSPOT-UV-BLUE-GREEN-RED-IR","720746","702032","903957","16.366926","5.149791","0.009803","725119","895275","762030","10.891726","3.257536","-0.007509","826335","903351","812539","8.787376","2.534443","-0.016900","828273","928524","862640","6.805366","1.878363","-0.043641","713812","859655","954544","4.579923","1.255195","-0.198876","7449","8424","8872","6084","5761","5624","5803","5269","5052","5560","4638","4286","5434","3554","2844",""
"MA200-0416","27271","79","1","1.10","1.4","2023-05-23T15:04:31","120","2023/05/23","15:04:31","-15.743178367614746","35.019780825823545","1.0","13","30","64","39","-25724","-2132","828","6","150","150.23","114.08","36.14","35.77","37.0","18.79","91296","35.63","DUALSPOT-UV-BLUE-GREEN-RED-IR","718450","701025","903432","16.503859","5.196542","0.006164","722905","893984","761466","11.010028","3.295343","0.001112","827652","906052","815503","8.889509","2.564936","-0.009918","827116","928359","862922","6.889930","1.902550","-0.022520","712298","858621","953741","4.640945","1.272087","-0.045397","7050","7597","7848","7687","7754","7782","7432","7004","6830","7436","6713","6437","7472","6528","6171",""
"MA200-0416","27272","79","1","1.10","1.4","2023-05-23T15:05:01","120","2023/05/23","15:05:01","-15.743032693862915","35.019939661026","0.7","13","30","64","39","-25562","-4545","2112","6","150","150.23","114.21","36.03","35.78","37.0","18.80","91316","35.69","DUALSPOT-UV-BLUE-GREEN-RED-IR","706455","696342","902353","17.932122","5.698509","0.007993","711442","888146","760191","12.326966","3.744190","0.008403","816483","901727","815061","10.088695","2.961987","0.006507","816682","923729","861714","7.928093","2.236956","0.003608","705779","855771","952953","5.412985","1.506557","-0.010048","73454","81838","85744","85483","92361","95361","87174","91500","93298","91198","93126","93884","94433","90917","89562",""
"MA200-0416","27273","79","1","1.10","1.4","2023-05-23T15:05:31","120","2023/05/23","15:05:31","-15.742971241474152","35.02018566057086","0.7","13","30","64","39","-24756","-2640","1760","6","150","149.80","113.77","36.02","35.79","36.9","18.78","91316","35.69","DUALSPOT-UV-BLUE-GREEN-RED-IR","693619","692650","904269","20.191700","6.510603","0.008237","700961","885145","762119","14.243502","4.391044","0.006118","801558","894464","812652","11.800848","3.519094","0.003221","807723","921875","863573","9.384741","2.690911","-0.002394","700244","854682","954379","6.449302","1.805976","-0.021430","116651","132418","139922","124877","133123","136798","124939","128403","129875","128449","126436","125626","127242","116118","111791",""
"MA200-0416","27274","79","1","1.10","1.4","2023-05-23T15:06:01","120","2023/05/23","15:06:01","-15.74263870716095","35.02010266110301","0.8","13","30","64","39","-24684","-3807","-540","6","150","150.29","113.72","36.57","35.79","36.8","18.75","91324","35.69","DUALSPOT-UV-BLUE-GREEN-RED-IR","692710","692878","905483","20.476562","6.620870","0.011304","699847","885121","762807","14.512674","4.489010","0.011044","799563","893594","812540","12.052566","3.608018","0.010236","805903","921052","863390","9.607623","2.765668","0.005935","699248","854374","954478","6.616161","1.857300","-0.009716","14712","17710","19143","17546","19859","20895","18376","20188","20962","19662","20509","20851","20496","19605","19258",""
"MA200-0416","27275","79","1","1.10","1.4","2023-05-23T15:06:31","120","2023/05/23","15:06:31","-15.742668271064758","35.019898327067494","0.7","13","30","64","39","-24480","-3052","1460","6","150","150.16","113.60","36.56","35.79","36.8","18.72","91312","35.69","DUALSPOT-UV-BLUE-GREEN-RED-IR","691890","692625","905569","20.621738","6.676256","0.010443","698816","884483","762560","14.650023","4.537838","0.008998","802827","897916","816761","12.181445","3.651321","0.004872","805955","921736","864301","9.720250","2.801615","-0.001185","699226","854816","955180","6.703171","1.882737","-0.021748","7505","8899","9565","8962","9902","10323","9418","9834","10012","9946","9865","9833","10699","9720","9337",""
"MA200-0416","27276","79","1","1.10","1.4","2023-05-23T15:07:01","120","2023/05/23","15:07:01","-15.742736399173737","35.01961716264486","1.0","13","30","64","39","-25115","-2823","330","6","150","147.77","113.13","34.64","35.79","36.6","18.68","91308","35.69","DUALSPOT-UV-BLUE-GREEN-RED-IR","690305","691257","904014","20.698896","6.704592","0.010996","697756","883451","761822","14.718651","4.560554","0.007126","801432","896649","815743","12.244115","3.669267","-0.008338","803934","919680","862493","9.776251","2.816874","-0.018739","698108","853628","953930","6.744190","1.892436","-0.068745","4006","4804","5186","4497","4860","5024","4599","4300","4173","4966","4419","4197","5065","3911","3460",""
"MA200-0416","27277","79","1","1.10","1.4","2023-05-23T15:07:31","120","2023/05/23","15:07:31","-15.742840886116028","35.01933666318655","1.0","13","30","64","39","-24088","-3420","-6488","6","150","149.63","114.00","35.63","35.79","36.6","18.65","91300","35.69","DUALSPOT-UV-BLUE-GREEN-RED-IR","690769","692045","905307","20.769674","6.731317","0.011338","698076","884212","762589","14.774003","4.579275","0.007206","798682","893851","813314","12.290874","3.685307","0.009954","805722","922004","864747","9.815454","2.828944","-0.002182","698979","854873","955375","6.771869","1.899975","-0.032088","3646","4405","4769","3599","3895","4028","3405","3737","3879","3450","3398","3377","3391","2956","2786",""
"MA200-0416","27278","79","1","1.10","1.4","2023-05-23T15:08:01","120","2023/05/23","15:08:01","-15.743059933185577","35.01901332847774","1.3","13","30","64","39","-25208","-2548","-1608","6","150","150.36","114.16","36.20","35.79","36.5","18.62","91276","35.69","DUALSPOT-UV-BLUE-GREEN-RED-IR","690899","692482","906113","20.845212","6.758909","0.008810","698244","884776","763221","14.828982","4.597442","0.003883","798023","893414","813001","12.336427","3.699726","-0.000203","804725","921100","863993","9.852448","2.838689","-0.031634","698450","854392","954905","6.796690","1.906250","-0.057726","3886","4477","4760","3570","3720","3788","3312","3307","3304","3251","2701","2478","3037","2421","2181",""
"MA200-0416","27279","79","1","1.10","1.4","2023-05-23T15:08:31","120","2023/05/23","15:08:31","-15.74324744939804","35.01878383010626","1.0","13","30","64","39","-25824","-2544","-792","6","150","149.37","114.08","35.29","35.78","36.5","18.59","91268","35.69","DUALSPOT-UV-BLUE-GREEN-RED-IR","690309","692178","905934","20.909440","6.783647","0.012725","697952","884632","763228","14.876458","4.614614","0.013232","798106","893693","813390","12.375441","3.713292","0.012154","804415","920937","863938","9.883066","2.849305","0.014663","698590","854700","955323","6.817581","1.912098","-0.022336","3306","4116","4505","3085","3606","3841","2839","3191","3341","2692","3017","3149","2558","2314","2220",""
"MA200-0416","27280","79","1","1.10","1.4","2023-05-23T15:09:01","120","2023/05/23","15:09:01","-15.743236005306244","35.018471993505955","0.8","13","30","64","39","-24069","-3044","-538","6","150","149.80","113.91","35.89","35.78","36.4","18.58","91252","35.69","DUALSPOT-UV-BLUE-GREEN-RED-IR","689805","691896","905767","20.966630","6.806555","0.013665","697261","883969","762764","14.917449","4.629051","0.009776","800710","896856","816349","12.411552","3.724969","0.002908","804251","920910","863971","9.909352","2.856749","-0.016715","698044","854123","954710","6.834947","1.916563","-0.050330","2948","3748","4133","2667","2981","3123","2632","2700","2730","2315","2081","1986","2129","1737","1584",""
"MA200-0416","27281","79","1","1.10","1.4","2023-05-23T15:09:31","120","2023/05/23","15:09:31","-15.74332445859909","35.01819916255772","1.1","13","30","64","39","-25032","-2980","180","6","150","149.42","113.73","35.69","35.77","36.4","18.54","91248","35.69","DUALSPOT-UV-BLUE-GREEN-RED-IR","687225","689537","902814","21.015930","6.824770","0.009901","695413","881832","761048","14.954440","4.641418","0.005797","796986","892835","812757","12.441503","3.734058","-0.003955","802757","919340","862565","9.933468","2.863836","-0.009861","697226","853232","953742","6.851934","1.921320","-0.025651","2546","2997","3215","2411","2569","2640","2186","2114","2083","2127","1992","1937","2086","1862","1774",""
"MA200-0416","27282","79","1","1.10","1.4","2023-05-23T15:10:01","120","2023/05/23","15:10:01","-15.743391931056976","35.017873495817184","1.2","13","30","64","39","-25204","-2916","-376","6","150","150.23","113.72","36.50","35.77","36.3","18.52","91240","35.69","DUALSPOT-UV-BLUE-GREEN-RED-IR","689206","691727","905881","21.066442","6.843416","0.008632","696757","883743","762785","14.991572","4.654157","0.006049","797332","893398","813388","12.471789","3.744495","0.007632","804411","921383","864545","9.957770","2.870959","-0.013964","698267","854627","955321","6.867294","1.924369","-0.164125","2608","3000","3188","2420","2586","2661","2211","2373","2443","2144","1957","1882","1886","1167","887",""
"MA200-0416","27283","79","1","1.10","1.4","2023-05-23T15:10:31","120","2023/05/23","15:10:31","-15.743198037147522","35.017617331817746","1.2","13","30","64","39","-23624","-844","2676","6","150","150.09","113.92","36.17","35.75","36.4","18.54","91244","35.69","DUALSPOT-UV-BLUE-GREEN-RED-IR","688312","691112","905267","21.126080","6.866091","0.010713","696345","883479","762673","15.034086","4.669046","0.008644","797125","893428","813503","12.506330","3.756040","0.005599","804391","921551","864772","9.984511","2.879947","0.007624","698185","854649","955414","6.887357","1.930260","-0.016959","3074","3681","3974","2766","3051","3179","2517","2649","2706","2354","2493","2549","2460","2275","2202",""
"MA200-0416","27284","79","1","1.10","1.4","2023-05-23T15:11:01","120","2023/05/23","15:11:01","-15.742976427078247","35.01755366101861","0.6","13","30","64","39","-24284","-3203","2503","6","150","149.32","113.89","35.43","35.75","36.4","18.54","91272","35.69","DUALSPOT-UV-BLUE-GREEN-RED-IR","688540","691555","906068","21.181626","6.887560","0.012481","696524","883971","763183","15.075023","4.684305","0.014818","800232","897038","816903","12.538328","3.767591","0.014882","803772","921005","864321","10.009286","2.887821","0.002950","697931","854406","955204","6.904192","1.935605","0.004025","2864","3559","3894","2664","3192","3431","2332","2706","2867","2182","2229","2248","2064","2107","2123",""
"MA200-0416","27285","79","1","1.10","1.4","2023-05-23T15:11:31","120","2023/05/23","15:11:31","-15.742731988430023","35.017544163390994","0.7","13","30","64","39","-24268","-3460","552","6","150","149.57","113.68","35.88","35.75","36.5","18.57","91288","35.69","DUALSPOT-UV-BLUE-GREEN-RED-IR","688131","691415","906088","21.241016","6.908567","0.007143","696244","883863","763229","15.117087","4.698139","0.003798","799729","896709","816667","12.572783","3.778123","-0.003748","803318","920647","864090","10.035555","2.895791","-0.005746","697550","854075","954841","6.921118","1.940335","-0.027353","3068","3438","3617","2743","2858","2910","2516","2437","2402","2318","2228","2191","2079","1841","1748",""
"MA200-0416","27286","79","1","1.10","1.4","2023-05-23T15:12:01","120","2023/05/23","15:12:01","-15.742413520812988","35.01751383021474","1.0","13","30","64","38","-23972","-4536","944","6","150","150.17","113.66","36.52","35.77","36.5","18.58","91308","35.69","DUALSPOT-UV-BLUE-GREEN-RED-IR","687689","691300","906134","21.310032","6.934974","0.010355","695840","883586","763088","15.163210","4.715097","0.011430","799729","896926","816992","12.612498","3.791218","0.002875","802986","920463","863983","10.066704","2.905995","0.002676","697355","853944","954783","6.942816","1.946559","-0.025169","3566","4247","4576","3008","3442","3638","2901","2977","3010","2749","2803","2825","2666","2381","2270",""
"MA200-0416","27287","79","1","1.10","1.4","2023-05-23T15:12:31","120","2023/05/23","15:12:31","-15.742105185985565","35.01769216172397","1.4","13","30","64","39","-24652","-3671","2924","6","150","149.76","114.12","35.64","35.77","36.5","18.61","91324","35.69","DUALSPOT-UV-BLUE-GREEN-RED-IR","687406","691192","906215","21.361406","6.956178","0.015114","695695","883628","763215","15.200382","4.727577","0.006461","798956","896276","816479","12.643056","3.801828","0.010892","803036","920680","864254","10.091741","2.912950","-0.018218","697408","854119","954998","6.958668","1.950465","-0.059681","2644","3494","3904","2414","2595","2677","2223","2471","2578","2201","1957","1859","1940","1530","1371",""
"MA200-0416","27288","79","1","1.10","1.4","2023-05-23T15:13:01","120","2023/05/23","15:13:01","-15.742044389247894","35.01780382730067","0.2","13","30","64","38","-24640","-448","2940","6","150","150.03","113.88","36.15","35.77","36.6","18.66","91328","35.69","DUALSPOT-UV-BLUE-GREEN-RED-IR","687130","691139","906326","21.414782","6.975048","0.006745","695044","883044","762806","15.238771","4.739237","-0.004384","799217","896746","816956","12.675707","3.811550","-0.007660","803267","921112","864728","10.116954","2.920693","-0.004720","697674","854567","955534","6.975334","1.954851","-0.044627","2752","3066","3217","2498","2391","2342","2380","2233","2169","2221","2149","2119","2044","1695","1559",""
"MA200-0416","27289","79","1","1.10","1.4","2023-05-23T15:13:31","120","2023/05/23","15:13:31","-15.741973340511322","35.017803493887186","0.5","13","30","64","38","-24716","-1136","2196","6","150","149.96","113.49","36.48","35.78","37.0","18.82","91328","35.69","DUALSPOT-UV-BLUE-GREEN-RED-IR","684273","688508","903039","21.466902","6.994097","0.007870","693242","880959","761113","15.277542","4.752004","0.002252","797739","895312","815736","12.706869","3.820145","-0.020023","801235","918959","862741","10.141801","2.926362","-0.067963","692344","848134","948423","6.993488","1.958795","-0.117040","2697","3067","3245","2532","2594","2622","2279","1956","1817","2196","1558","1300","2234","1510","1228",""
"MA200-0416","27290","79","1","1.10","1.4","2023-05-23T15:14:01","120","2023/05/23","15:14:01","-15.74200975894928","35.017808662727475","0.1","13","30","64","38","-24448","-4332","2256","6","150","149.57","114.00","35.56","35.79","37.1","18.87","91328","35.69","DUALSPOT-UV-BLUE-GREEN-RED-IR","686413","690912","906403","21.525626","7.018341","0.015066","694430","882746","762762","15.317913","4.766840","0.013405","795266","892713","813488","12.742053","3.833622","0.019289","802970","921108","864860","10.170658","2.937162","0.021561","697411","854449","955524","7.012792","1.964609","-0.007202","3025","4004","4477","2625","3092","3303","2562","3146","3397","2539","3046","3252","2365","2283","2251",""
"MA200-0416","27291","79","1","1.10","1.4","2023-05-23T15:14:31","120","2023/05/23","15:14:31","-15.742017030715942","35.01780599541962","0.0","13","30","64","38","-24480","-3239","2288","6","150","150.49","114.04","36.45","35.79","37.0","18.84","91332","35.69","DUALSPOT-UV-BLUE-GREEN-RED-IR","685907","690729","906373","21.593536","7.043020","0.007822","694136","882629","762802","15.365332","4.783815","0.009658","795069","892738","813599","12.781079","3.844923","-0.012157","802959","921290","865123","10.200965","2.945406","-0.025977","697506","854707","955868","7.034336","1.971088","-0.012709","3497","3976","4208","3082","3452","3619","2841","2574","2459","2666","2268","2107","2639","2483","2422",""
"MA200-0416","27292","79","1","1.10","1.4","2023-05-23T15:15:01","120","2023/05/23","15:15:01","-15.742039144039154","35.01782116293907","0.0","13","30","64","38","-24540","-3284","2316","6","150","149.63","114.12","35.51","35.81","37.1","18.87","91328","35.69","DUALSPOT-UV-BLUE-GREEN-RED-IR","685708","690793","906746","21.667144","7.071974","0.013000","694500","883382","763564","15.414308","4.799610","0.003261","794403","892250","813241","12.821707","3.858500","0.007468","801980","920382","864329","10.233718","2.955562","-0.000471","696877","854086","955239","7.058223","1.978126","-0.011287","3788","4789","5273","3181","3297","3349","2955","3174","3268","2879","2869","2865","2924","2768","2708",""
"MA200-0416","27293","79","1","1.10","1.4","2023-05-23T15:15:31","120","2023/05/23","15:15:31","-15.742024064064026","35.017820328474045","0.1","13","30","64","38","-24560","-2928","2776","6","150","150.36","114.12","36.24","35.82","37.1","18.90","91328","35.69","DUALSPOT-UV-BLUE-GREEN-RED-IR","685320","690646","906713","21.722898","7.093023","0.010087","694110","883089","763413","15.453186","4.812855","0.006192","795139","893253","814264","12.853574","3.867822","-0.009875","802153","920747","864751","10.259777","2.962577","-0.026536","697268","854703","955962","7.076626","1.982873","-0.049851","2869","3411","3674","2525","2709","2792","2318","2135","2057","2290","1942","1800","2252","1829","1665",""
"MA200-0416","27294","79","1","1.10","1.4","2023-05-23T15:16:01","120","2023/05/23","15:16:01","-15.742029368877411","35.01782066188753","0.2","13","30","64","38","-24524","-3287","3096","6","150","149.33","113.72","35.60","35.83","37.1","18.92","91336","35.75","DUALSPOT-UV-BLUE-GREEN-RED-IR","683398","689007","904855","21.792200","7.119175","0.010726","692559","881337","762023","15.495462","4.827480","0.008550","793540","891680","812906","12.888088","3.878670","0.000439","799997","918496","862686","10.288424","2.971107","-0.007178","691427","847649","948144","7.096971","1.986887","-0.148648","3579","4314","4671","2755","3045","3176","2519","2529","2534","2527","2403","2353","2499","1575","1216",""
"MA200-0416","27295","79","1","1.10","1.4","2023-05-23T15:16:31","120","2023/05/23","15:16:31","-15.741905748844147","35.017914827913046","1.2","13","30","64","38","-24408","-1703","3428","6","150","150.09","113.88","36.21","35.85","37.2","18.96","91344","35.75","DUALSPOT-UV-BLUE-GREEN-RED-IR","684465","690435","906996","21.872058","7.148910","0.009263","693497","882890","763490","15.549502","4.845976","0.006423","794184","892629","813894","12.929554","3.892665","0.006251","802618","921710","865789","10.320836","2.980852","-0.008029","692920","849680","950435","7.121198","1.993646","-0.028832","4118","4823","5165","3517","3786","3908","3022","3208","3288","2855","2699","2636","2971","2607","2465",""
"MA200-0416","27296","79","1","1.10","1.4","2023-05-23T15:17:01","120","2023/05/23","15:17:01","-15.741726756095886","35.01809083111584","0.9","13","30","64","38","-24904","-3948","644","6","150","149.90","114.04","35.85","35.86","37.3","19.02","91360","35.75","DUALSPOT-UV-BLUE-GREEN-RED-IR","682741","688977","905268","21.941246","7.174904","0.010238","692493","881899","762762","15.597609","4.861110","0.000059","792936","891481","812940","12.970070","3.905302","-0.000893","799994","918880","863233","10.353256","2.989942","-0.017332","691575","848138","948776","7.145973","1.999941","-0.050794","3563","4258","4595","3127","3129","3130","2949","2926","2915","2852","2543","2418","3034","2452","2226",""
"MA200-0416","27297","79","1","1.10","1.4","2023-05-23T15:17:31","120","2023/05/23","15:17:31","-15.741561651229858","35.01820666342974","0.4","13","30","64","38","-23988","-3516","3020","6","150","150.09","114.08","36.01","35.87","37.3","19.02","91380","35.75","DUALSPOT-UV-BLUE-GREEN-RED-IR","683742","690219","907088","21.993432","7.195677","0.012706","693399","883238","764031","15.636795","4.877113","0.019132","793980","892807","814254","13.001178","3.916835","0.015372","802676","922117","866336","10.379590","2.998954","0.010194","692971","849964","950898","7.163589","2.005355","-0.005320","2686","3388","3728","2546","3294","3633","2263","2658","2829","2315","2510","2589","2157","2100","2077",""
"MA200-0416","27298","79","1","1.10","1.4","2023-05-23T15:18:01","120","2023/05/23","15:18:01","-15.741300761699677","35.01829466409981","1.0","13","30","64","38","-24669","-4203","1953","6","150","150.03","113.80","36.22","35.89","37.2","19.01","91404","35.75","DUALSPOT-UV-BLUE-GREEN-RED-IR","684501","691168","908544","22.044680","7.216894","0.014014","693652","883772","764586","15.672133","4.889101","0.005555","794165","893223","814686","13.031464","3.926629","0.001705","802554","922147","866438","10.402648","3.005957","-0.006622","692965","850067","951047","7.182022","2.010423","-0.032498","2644","3440","3827","2301","2453","2521","2209","2244","2259","2032","1939","1901","2262","1954","1834",""
"MA200-0416","27299","79","1","1.10","1.4","2023-05-23T15:18:31","120","2023/05/23","15:18:31","-15.741032779216766","35.01852783001959","1.0","13","30","64","38","-23100","-3280","2072","6","150","150.21","113.92","36.30","35.92","37.1","18.99","91432","35.81","DUALSPOT-UV-BLUE-GREEN-RED-IR","683540","690511","907883","22.106046","7.238661","0.006521","693128","883398","764397","15.717264","4.905403","0.010357","793241","892441","814092","13.070957","3.939545","0.002797","802132","921847","866247","10.433113","3.015620","-0.000618","692437","849533","950548","7.203802","2.016745","-0.019569","3164","3522","3696","2936","3329","3507","2878","2954","2987","2683","2670","2665","2670","2433","2340",""
"MA200-0416","27300","79","1","1.10","1.4","2023-05-23T15:19:01","120","2023/05/23","15:19:01","-15.74081152677536","35.01866099610925","0.5","13","30","64","38","-24288","-2048","2472","6","150","149.63","113.88","35.75","35.93","37.0","18.94","91448","35.81","DUALSPOT-UV-BLUE-GREEN-RED-IR","684096","691477","909429","22.193060","7.269119","0.006586","693011","883613","764739","15.780682","4.926813","0.006267","793585","893131","814865","13.124273","3.956299","0.000117","803144","923268","867678","10.474186","3.027200","-0.015949","692994","850406","951555","7.231800","2.023269","-0.077033","4487","5004","5256","4128","4439","4581","3886","3890","3892","3618","3250","3100","3434","2549","2205",""
"MA200-0416","27301","79","1","1.10","1.4","2023-05-23T15:19:31","120","2023/05/23","15:19:31","-15.74072152376175","35.01872699521482","1.0","13","30","64","38","-25160","-1840","-3348","6","150","150.23","113.49","36.74","35.94","36.9","18.91","91464","35.81","DUALSPOT-UV-BLUE-GREEN-RED-IR","684293","691909","910223","22.257272","7.294126","0.010416","693453","884443","765574","15.827428","4.943292","0.007236","793606","893426","815213","13.160852","3.967804","-0.003244","796310","915610","860594","10.504403","3.036660","-0.004646","693060","850614","951854","7.252363","2.029418","-0.016380","3323","3997","4326","3053","3325","3448","2676","2599","2566","2671","2583","2547","2531","2337","2262",""
"MA200-0416","27302","79","1","1.10","1.4","2023-05-23T15:20:01","120","2023/05/23","15:20:01","-15.740911185741425","35.01855316013098","1.3","13","30","64","37","-24756","-3216","-6979","6","150","149.94","113.71","36.23","35.95","36.7","18.84","91432","35.81","DUALSPOT-UV-BLUE-GREEN-RED-IR","683233","691170","909508","22.325388","7.320381","0.010658","693062","884235","765561","15.879829","4.963630","0.015173","793706","893790","815685","13.203852","3.982782","0.008935","796467","915985","861003","10.536123","3.047084","0.004037","693705","851543","952979","7.274698","2.037234","0.016540","3518","4256","4617","3416","4161","4500","3139","3432","3559","2798","2887","2923","2743","3014","3119",""
"MA200-0416","27303","79","1","1.10","1.4","2023-05-23T15:20:31","120","2023/05/23","15:20:31","-15.74121469259262","35.018508495762944","1.2","13","30","64","38","-25140","-3839","-7215","6","150","149.80","113.54","36.25","35.96","36.6","18.79","91408","35.88","DUALSPOT-UV-BLUE-GREEN-RED-IR","683488","691726","910497","22.403992","7.349823","0.009142","692492","883811","765334","15.935829","4.981994","0.002374","793074","893323","815381","13.249210","3.998745","0.009634","796189","915901","861021","10.573346","3.057706","-0.016633","692872","850636","952002","7.298916","2.043598","-0.044664","4066","4769","5113","3656","3755","3799","3316","3655","3801","3288","2939","2797","2979","2452","2247",""
"MA200-0416","27304","79","1","1.10","1.4","2023-05-23T15:21:01","120","2023/05/23","15:21:01","-15.741472840309143","35.01830349303782","1.4","13","30","64","38","-22970","-3125","-7137","6","150","149.76","113.92","35.84","35.96","36.5","18.78","91388","35.88","DUALSPOT-UV-BLUE-GREEN-RED-IR","677589","685991","903106","22.456310","7.368471","0.007356","688396","878800","761096","15.973276","4.993229","-0.004525","792954","893392","815494","13.282415","4.008340","-0.009941","795919","915772","860955","10.599195","3.065545","-0.005059","692651","850499","951871","7.316152","2.047988","-0.049170","2697","3056","3231","2436","2323","2272","2419","2222","2137","2276","2194","2160","2113","1710","1554",""
"MA200-0416","27305","79","1","1.10","1.4","2023-05-23T15:21:31","120","2023/05/23","15:21:31","-15.741726636886597","35.018086494877934","1.5","13","30","64","36","-22704","-2660","-7279","6","150","149.80","113.71","36.09","35.97","36.5","18.77","91344","35.88","DUALSPOT-UV-BLUE-GREEN-RED-IR","681726","690366","909044","22.505378","7.388807","0.013904","691615","883116","764898","16.008654","5.006260","0.011828","792106","892598","814886","13.312222","4.018634","0.008426","794028","913696","859078","10.623349","3.073019","-0.003425","692411","850310","951702","7.332485","2.052698","-0.019802","2534","3309","3688","2306","2676","2845","2176","2368","2451","2131","2077","2056","2006","1823","1752",""
"MA200-0416","27306","79","1","1.10","1.4","2023-05-23T15:22:01","120","2023/05/23","15:22:01","-15.742019534111023","35.01783516258001","1.5","13","30","64","37","-22696","-2408","-6488","6","150","149.96","113.56","36.40","35.97","36.4","18.74","91324","35.88","DUALSPOT-UV-BLUE-GREEN-RED-IR","677020","685814","903210","22.555686","7.407594","0.008754","687997","878672","761151","16.042332","5.017620","0.004424","792375","893076","815396","13.340566","4.027277","-0.005616","795875","915995","861291","10.645147","3.080070","0.001208","692666","850695","952216","7.347728","2.057154","-0.018904","2601","3031","3242","2198","2313","2366","2072","1971","1927","1925","1943","1950","1875","1710","1646",""
"MA200-0416","27307","79","1","1.10","1.4","2023-05-23T15:22:31","120","2023/05/23","15:22:31","-15.742301225662231","35.01757466420531","1.2","13","30","64","37","-25272","-2752","-2624","6","150","149.67","113.67","36.00","35.97","36.4","18.71","91308","35.88","DUALSPOT-UV-BLUE-GREEN-RED-IR","675108","684195","901371","22.631808","7.437559","0.011742","691425","883314","765287","16.087683","5.033849","0.009895","791435","892209","814703","13.377753","4.039597","0.004640","793862","913886","859380","10.674978","3.087765","-0.033067","691259","849129","950511","7.371061","2.062158","-0.110184","3933","4889","5356","2957","3342","3517","2715","2841","2895","2632","2144","1945","2867","1941","1582",""
"MA200-0416","27308","79","1","1.10","1.4","2023-05-23T15:23:01","120","2023/05/23","15:23:01","-15.742604196071625","35.017569828778505","1.5","13","30","64","38","-22332","-3744","-7796","6","150","150.58","114.00","36.58","35.97","36.3","18.70","91292","35.88","DUALSPOT-UV-BLUE-GREEN-RED-IR","676916","686211","904127","22.670172","7.451013","0.005366","688005","879139","761750","16.117188","5.044346","0.008475","789752","890489","813147","13.402225","4.047102","-0.005053","796294","916786","862129","10.693574","3.093099","-0.016389","693686","852197","953960","7.384552","2.065587","-0.054976","1976","2160","2250","1918","2127","2222","1782","1703","1669","1636","1463","1392","1653","1309","1175",""
"MA200-0416","27309","79","1","1.10","1.4","2023-05-23T15:23:31","120","2023/05/23","15:23:31","-15.742934226989746","35.01758416555822","1.2","13","30","64","37","-25072","-4664","-2164","6","150","150.23","114.28","35.95","35.97","36.3","18.68","91268","35.88","DUALSPOT-UV-BLUE-GREEN-RED-IR","676406","685878","903855","22.712006","7.467527","0.012122","692370","884869","766796","16.146664","5.055088","0.011615","792832","894094","816534","13.423817","4.054188","0.004366","796682","917359","862708","10.711142","3.098726","0.002339","692981","851412","953130","7.396587","2.069325","-0.002383","2150","2698","2966","1912","2215","2353","1568","1636","1666","1542","1570","1581","1471","1452","1445",""
