"Serial number","Datum ID","Session ID","Data format version","Firmware version","App version","Date / time local","Timezone offset (mins)","Date local (yyyy/MM/dd)","Time local (hh:mm:ss)","GPS lat (ddmm.mmmmm)","GPS long (dddmm.mmmmm)","GPS speed (km/h)","GPS sat count","Timebase (s)","Status","Battery remaining (%)","Accel X","Accel Y","Accel Z","Tape position","Flow setpoint (mL/min)","Flow total (mL/min)","Flow1 (mL/min)","Flow2 (mL/min)","Sample temp (C)","Sample RH (%)","Sample dewpoint (C)","Internal pressure (Pa)","Internal temp (C)","Optical config","UV Sen1","UV Sen2","UV Ref","UV ATN1","UV ATN2","UV K","Blue Sen1","Blue Sen2","Blue Ref","Blue ATN1","Blue ATN2","Blue K","Green Sen1","Green Sen2","Green Ref","Green ATN1","Green ATN2","Green K","Red Sen1","Red Sen2","Red Ref","Red ATN1","Red ATN2","Red K","IR Sen1","IR Sen2","IR Ref","IR ATN1","IR ATN2","IR K","UV BC1","UV BC2","UV BCc","Blue BC1","Blue BC2","Blue BCc","Green BC1","Green BC2","Green BCc","Red BC1","Red BC2","Red BCc","IR BC1","IR BC2","IR BCc","Readable status"
"MA200-0416","28238","85","1","1.10","1.4","2023-05-26T09:57:31","120","2023/05/26","09:57:31","-15.795572817325592","35.002981832949445","1.4","13","30","66","33","-7307","-607","-25850","0","150","0.00","0.00","0.00","30.34","0.0","-203.56","90516","29.63","DUALSPOT-UV-BLUE-GREEN-RED-IR","852831","726689","896885","0.000000","0.000000","0.000000","871355","986734","823501","0.000000","0.000000","0.000000","946171","963403","854202","0.000000","0.000000","0.000000","957508","1013370","933448","0.000000","0.000000","0.000000","778936","890985","990207","0.000000","0.000000","0.000000","","","","","","","","","","","","","","","","Start up"
"MA200-0416","28239","85","1","1.10","1.4","2023-05-26T09:58:01","120","2023/05/26","09:58:01","-15.795782387256622","35.003062333213165","0.6","13","30","66","33","-11912","-2708","-23424","0","150","149.90","116.79","33.11","30.27","48.8","18.29","90532","29.81","DUALSPOT-UV-BLUE-GREEN-RED-IR","857036","731030","902944","0.000000","0.000000","0.000000","804446","911484","761292","0.000000","0.000000","0.000000","901999","918910","815281","0.000000","0.000000","0.000000","901867","955035","880422","0.000000","0.000000","0.000000","746423","854249","949841","0.000000","0.000000","0.000000","","","","","","","","","","","","","","","","Start up"
"MA200-0416","28240","85","1","1.10","1.4","2023-05-26T09:58:31","120","2023/05/26","09:58:31","-15.795795500278473","35.002968499669805","0.4","13","30","66","32","-435","-2104","-26219","0","150","150.35","116.89","33.46","30.26","48.6","18.22","90532","29.94","DUALSPOT-UV-BLUE-GREEN-RED-IR","858587","732703","905210","0.000000","0.000000","0.000000","806160","913786","763268","0.000000","0.000000","0.000000","903023","920243","816537","0.000000","0.000000","0.000000","886867","939318","866013","0.000000","0.000000","0.000000","747558","855571","951391","0.000000","0.000000","0.000000","","","","","","","","","","","","","","","","Start up"
"MA200-0416","28241","85","1","1.10","1.4","2023-05-26T09:59:01","120","2023/05/26","09:59:01","-15.795781433582306","35.00296033313498","0.1","14","30","66","33","-4680","-3439","-25596","0","150","150.03","117.02","33.00","30.34","48.1","18.12","90540","30.06","DUALSPOT-UV-BLUE-GREEN-RED-IR","856665","731539","903995","0.000000","0.000000","0.000000","804686","912423","762242","0.000000","0.000000","0.000000","902745","920237","816572","0.000000","0.000000","0.000000","885985","938635","865432","0.000000","0.000000","0.000000","746732","854714","950553","0.000000","0.000000","0.000000","","","","","","","","","","","","","","","","Start up"
"MA200-0416","28242","85","1","1.10","1.4","2023-05-26T09:59:31","120","2023/05/26","09:59:31","-15.795768320560455","35.002959166420624","0.1","14","30","66","33","-4653","-3515","-26023","0","150","150.09","117.18","32.91","30.53","47.6","18.13","90544","30.31","DUALSPOT-UV-BLUE-GREEN-RED-IR","857416","732649","905619","0.000000","0.000000","0.000000","805188","913375","763105","0.000000","0.000000","0.000000","898707","916358","813196","0.000000","0.000000","0.000000","885118","937915","864799","0.000000","0.000000","0.000000","750719","859407","955853","0.000000","0.000000","0.000000","","","","","","","","","","","","","","","","Start up"
"MA200-0416","28243","85","1","1.10","1.4","2023-05-26T10:00:01","120","2023/05/26","10:00:01","-15.795767486095428","35.00296466657892","0.1","13","30","64","33","-4632","-3552","-25796","0","150","149.51","117.46","32.04","30.81","47.1","18.22","90532","30.63","DUALSPOT-UV-BLUE-GREEN-RED-IR","857508","733174","906556","0.000000","0.000000","0.000000","804903","913377","763154","0.000000","0.000000","0.000000","899726","917698","814373","0.000000","0.000000","0.000000","886288","939353","866121","0.000000","0.000000","0.000000","750492","859287","955852","0.000000","0.000000","0.000000","","","","","","","","","","","","","","","",""
"MA200-0416","28244","85","1","1.10","1.4","2023-05-26T10:00:31","120","2023/05/26","10:00:31","-15.79576164484024","35.00296516646631","0.0","13","30","64","32","-4650","-3545","-25795","0","150","150.06","117.30","32.77","31.15","46.7","18.39","90544","30.94","DUALSPOT-UV-BLUE-GREEN-RED-IR","856538","732830","906357","0.092189","0.028612","0.000000","804170","912881","762769","0.040501","0.003665","0.000000","899532","917781","814428","0.026977","-0.002485","0.000000","885388","938623","865405","0.021296","-0.003534","0.000000","749096","857868","954386","0.033815","0.010290","0.000000","4616","5128","4616","2559","829","2559","1909","-629","1909","1821","-1082","1821","4027","4386","4027",""
"MA200-0416","28245","85","1","1.10","1.4","2023-05-26T10:01:01","120","2023/05/26","10:01:01","-15.795769095420837","35.00296266656369","0.0","13","30","64","33","-4612","-3579","-25841","0","150","149.51","117.02","32.48","31.54","46.3","18.62","90548","31.25","DUALSPOT-UV-BLUE-GREEN-RED-IR","856643","733391","907259","0.182129","0.054162","0.000000","804329","913426","763224","0.078785","0.004058","0.000000","896576","915046","811924","0.052046","-0.010335","0.000000","884476","937924","864688","0.038141","-0.011717","0.000000","748303","857235","953773","0.072628","0.021668","0.000000","4514","4620","4514","2425","89","2425","1778","-2006","1778","1444","-2527","1444","4633","4893","4633",""
"MA200-0416","28246","85","1","1.10","1.4","2023-05-26T10:01:31","120","2023/05/26","10:01:31","-15.795772910118103","35.00296299974434","0.0","13","30","64","32","-4608","-3580","-25800","0","150","149.94","117.04","32.89","31.96","45.8","18.82","90544","31.56","DUALSPOT-UV-BLUE-GREEN-RED-IR","856025","733380","907504","0.277545","0.080801","0.000000","804120","913531","763273","0.114601","0.000642","0.000000","899955","918795","815179","0.074786","-0.020134","0.000000","884479","938179","864781","0.052905","-0.024271","0.000000","746524","855438","951882","0.115755","0.033262","0.000000","4788","4756","4788","2268","-769","2268","1612","-2473","1612","1265","-3828","1265","5147","4923","5147",""
"MA200-0416","28247","85","1","1.10","1.4","2023-05-26T10:02:01","120","2023/05/26","10:02:01","-15.795780956745148","35.002957166405395","0.0","13","30","64","32","-4508","-3476","-25891","0","150","149.82","116.69","33.13","32.38","45.1","18.97","90544","31.94","DUALSPOT-UV-BLUE-GREEN-RED-IR","856313","734093","908613","0.366869","0.104522","0.000000","803923","913645","763331","0.143146","-0.007783","0.000000","900395","919555","815708","0.090116","-0.035131","0.000000","885112","939089","865471","0.059658","-0.044155","0.000000","744937","854029","950388","0.166589","0.042626","0.000000","4495","4206","4495","1813","-1885","1813","1090","-3758","1090","580","-6022","580","6085","3949","6085",""
"MA200-0416","28248","85","1","1.10","1.4","2023-05-26T10:02:31","120","2023/05/26","10:02:31","-15.795782268047333","35.00295866653323","0.0","13","30","64","32","-4583","-3533","-25870","0","150","148.82","116.51","32.31","32.83","44.5","19.16","90540","32.31","DUALSPOT-UV-BLUE-GREEN-RED-IR","854774","733285","907810","0.456587","0.126361","0.000000","803195","913190","762827","0.170033","-0.018644","0.000000","899554","918983","815098","0.107163","-0.051593","0.000000","883149","937256","863622","0.067335","-0.065528","0.000000","747311","857084","953870","0.218688","0.051288","0.000000","4522","3969","4522","1710","-2491","1710","1214","-4229","1214","661","-6636","661","6246","3744","6246",""
"MA200-0416","28249","85","1","1.10","1.4","2023-05-26T10:03:01","120","2023/05/26","10:03:01","-15.795782625675201","35.002952999668196","0.0","14","30","64","32","-4561","-3669","-25865","0","150","150.33","117.50","32.83","33.28","43.9","19.34","90548","32.69","DUALSPOT-UV-BLUE-GREEN-RED-IR","850087","729806","903621","0.544804","0.142625","0.000000","805135","915772","764897","0.199705","-0.031072","0.000000","901555","921403","817075","0.127429","-0.069731","0.000000","887441","942154","867893","0.077641","-0.088435","0.000000","747475","857675","954601","0.273826","0.059660","0.000000","4409","2909","4409","1871","-2806","1871","1431","-4587","1431","879","-7000","879","6555","3562","6555",""
"MA200-0416","28250","85","1","1.10","1.4","2023-05-26T10:03:31","120","2023/05/26","10:03:31","-15.795771062374115","35.00296199996956","0.0","14","30","64","32","-4512","-3587","-25836","0","150","150.08","117.13","32.95","33.72","43.2","19.48","90556","33.00","DUALSPOT-UV-BLUE-GREEN-RED-IR","849189","729550","903479","0.635355","0.162374","0.000000","804937","915878","764944","0.228243","-0.042522","0.000000","897367","917422","813396","0.144804","-0.087517","0.000000","885691","940655","866306","0.088453","-0.111889","0.000000","744549","854763","951412","0.326986","0.065604","0.000000","4540","3520","4540","1806","-2576","1806","1231","-4481","1231","926","-7141","926","6340","2519","6340",""
"MA200-0416","28251","85","1","1.10","1.4","2023-05-26T10:04:01","120","2023/05/26","10:04:01","-15.795770943164825","35.00295849982649","0.0","14","30","64","32","-4604","-3500","-25816","0","150","149.53","117.42","32.11","34.17","42.4","19.57","90556","33.38","DUALSPOT-UV-BLUE-GREEN-RED-IR","853263","733557","908629","0.730050","0.182069","0.000000","802201","913195","762609","0.264066","-0.051057","0.000000","899748","920224","815763","0.168746","-0.101942","0.000000","881058","936024","861907","0.103318","-0.133025","0.000000","745395","856128","953050","0.384180","0.073539","0.000000","4736","3603","4736","2261","-1970","2261","1692","-3729","1692","1270","-6604","1270","6804","3452","6804",""
"MA200-0416","28252","85","1","1.10","1.4","2023-05-26T10:04:31","120","2023/05/26","10:04:31","-15.795769095420837","35.00294666667469","0.0","14","30","64","32","-4516","-3564","-26060","0","150","150.43","117.14","33.28","34.59","41.6","19.64","90560","33.75","DUALSPOT-UV-BLUE-GREEN-RED-IR","847107","729077","903344","0.867024","0.210678","0.000000","803598","915436","764446","0.330406","-0.055753","0.000000","900877","921957","817190","0.219798","-0.114310","0.000000","883601","939272","864681","0.136947","-0.153607","0.000000","744231","855276","952145","0.448194","0.082710","0.000000","6867","5048","6867","4198","-1046","4198","3618","-3085","3618","2880","-6204","2880","7633","3849","7633",""
"MA200-0416","28253","85","1","1.10","1.4","2023-05-26T10:05:01","120","2023/05/26","10:05:01","-15.795764088630676","35.00295899971388","0.0","14","30","64","32","-4536","-3592","-26028","0","150","150.17","117.43","32.75","34.99","40.9","19.73","90556","34.19","DUALSPOT-UV-BLUE-GREEN-RED-IR","804167","719914","906033","1.628376","0.424032","0.000000","766999","904484","765669","0.975912","0.115232","0.000000","866067","910206","815290","0.680035","-0.002038","0.000000","862620","935788","868241","0.467950","-0.084418","0.000000","729769","851461","953387","0.734493","0.155702","0.000000","38082","38265","38082","40751","38705","40751","32539","28462","32539","28280","21196","28280","34059","31135","34059",""
"MA200-0416","28254","85","1","1.10","1.4","2023-05-26T10:05:31","120","2023/05/26","10:05:31","-15.79575526714325","35.00297616631724","0.0","14","30","64","32","-4436","-3636","-25796","0","150","149.45","116.31","33.14","35.42","40.4","19.92","90548","34.56","DUALSPOT-UV-BLUE-GREEN-RED-IR","705685","692978","908980","19.697958","5.890684","0.004118","681930","869583","761757","16.344866","4.715650","0.004066","781415","883881","816703","14.326582","4.020136","0.003197","782488","905392","862288","11.964239","3.228229","0.001284","683968","836121","953339","8.981686","2.460480","-0.003007","912513","968982","993074","979587","1029198","1049316","974111","1007743","1020862","991665","1002965","1007141","990546","971630","964493",""
"MA200-0416","28255","85","1","1.10","1.4","2023-05-26T10:06:01","120","2023/05/26","10:06:01","-15.795757710933685","35.00298066646792","0.1","14","30","64","31","-4452","-3616","-25944","0","150","148.56","114.47","34.09","35.86","40.0","20.16","90548","34.94","DUALSPOT-UV-BLUE-GREEN-RED-IR","582868","641227","910717","30.338360","10.146811","0.011212","574368","812357","762152","25.860588","8.405304","0.011951","670308","833163","816489","22.602034","7.119780","0.012094","685342","861787","861398","18.953274","5.726845","0.011771","616688","805382","950414","14.344879","4.247880","0.010084","545977","733291","827421","616263","802333","891933","600209","754863","825983","612562","735322","788475","654512","732421","765198",""
"MA200-0416","28256","85","1","1.10","1.4","2023-05-26T10:06:31","120","2023/05/26","10:06:31","-15.795739114284515","35.00298233283684","0.0","14","30","64","31","-4470","-3466","-25904","0","150","148.56","113.13","35.43","36.29","39.7","20.40","90556","35.38","DUALSPOT-UV-BLUE-GREEN-RED-IR","408190","519274","905729","73.530720","33.971716","0.007968","416765","679899","764619","65.457956","29.340958","0.008478","491709","705154","814238","59.799584","25.950544","0.008717","519355","751043","864238","52.615416","21.799796","0.008979","492400","730107","956203","41.652580","16.049429","0.009169","2242559","3949390","5415148","2594840","4380188","5830580","2729894","4412261","5702055","2985348","4551040","5658652","3372094","4652810","5455632",""
"MA200-0416","28257","85","1","1.10","1.4","2023-05-26T10:07:01","120","2023/05/26","10:07:01","-15.79574066400528","35.00297383288853","0.0","14","30","68","32","-4460","-3555","-25944","1","150","149.72","116.37","33.35","36.77","39.4","20.72","90544","35.94","DUALSPOT-UV-BLUE-GREEN-RED-IR","757586","709647","907357","0.000000","0.000000","0.000000","732438","895423","765846","0.000000","0.000000","0.000000","826744","900842","815893","0.000000","0.000000","0.000000","822633","922297","864366","0.000000","0.000000","0.000000","709629","849092","956575","0.000000","0.000000","0.000000","0","0","0","0","0","0","0","0","0","0","0","0","0","0","0","Tape advance"
"MA200-0416","28258","85","1","1.10","1.4","2023-05-26T10:07:31","120","2023/05/26","10:07:31","-15.795753300189972","35.0029669997748","0.0","14","30","68","32","-4420","-3536","-25819","1","150","149.72","116.32","33.40","37.19","38.7","20.81","90552","36.25","DUALSPOT-UV-BLUE-GREEN-RED-IR","593587","641612","902576","0.000000","0.000000","0.000000","590079","820659","762472","0.000000","0.000000","0.000000","685034","839613","817063","0.000000","0.000000","0.000000","702112","872994","868234","0.000000","0.000000","0.000000","624068","809657","951287","0.000000","0.000000","0.000000","","","","","","","","","","","","","","","","Tape advance"
"MA200-0416","28259","85","1","1.10","1.4","2023-05-26T10:08:01","120","2023/05/26","10:08:01","-15.795752942562103","35.002964166458696","0.0","14","30","64","32","-4436","-3508","-25944","1","150","150.35","115.46","34.89","37.57","38.2","20.92","90564","36.56","DUALSPOT-UV-BLUE-GREEN-RED-IR","573670","633777","909514","11.077129","5.038185","0.043414","567678","805458","760938","9.847380","4.314595","0.045154","659964","825466","815981","9.241884","3.901988","0.044075","677344","858711","865786","8.248457","3.317390","0.043192","609013","802945","952875","6.379276","2.383298","0.042933","563505","848107","1085545","632264","916693","1138497","664547","928446","1121283","716737","953870","1113402","771827","954185","1062948",""
"MA200-0416","28260","85","1","1.10","1.4","2023-05-26T10:08:31","120","2023/05/26","10:08:31","-15.795761823654175","35.00296349986456","0.0","14","30","64","32","-4408","-3648","-25847","1","150","149.72","114.98","34.74","37.95","37.6","20.98","90572","36.88","DUALSPOT-UV-BLUE-GREEN-RED-IR","560852","626597","909642","13.055904","6.038326","0.042578","556274","797585","760868","11.600080","5.158400","0.044531","647859","818366","815884","10.831051","4.633808","0.044140","666507","852756","865812","9.636639","3.916670","0.043522","603142","801364","955960","7.494411","2.829015","0.045569","101083","169092","227611","113004","180057","233753","114748","174888","219856","121127","173065","208628","135483","179225","205749",""
"MA200-0416","28261","85","1","1.10","1.4","2023-05-26T10:09:01","120","2023/05/26","10:09:01","-15.795764923095703","35.00296499975957","0.0","14","30","64","32","-4428","-3639","-25832","1","150","149.83","114.88","34.95","38.32","37.0","21.08","90564","37.19","DUALSPOT-UV-BLUE-GREEN-RED-IR","560986","627000","910504","13.529293","6.275547","0.040419","556015","797435","760753","12.004204","5.344563","0.040064","648005","818842","816411","11.212633","4.798806","0.037819","667307","854162","867169","9.980236","4.047164","0.029513","602136","800448","955036","7.796364","2.943018","0.035784","24204","39863","53411","26079","39484","50242","27577","39191","47881","30007","37456","42537","36718","45563","50926",""
"MA200-0416","28262","85","1","1.10","1.4","2023-05-26T10:09:31","120","2023/05/26","10:09:31","-15.795757412910461","35.002966332947835","0.0","14","30","64","32","-4400","-3508","-26183","1","150","149.39","114.12","35.26","38.67","36.5","21.15","90568","37.56","DUALSPOT-UV-BLUE-GREEN-RED-IR","507874","591847","904331","22.142856","10.990318","0.027322","513172","765348","762540","19.665852","9.362120","0.029028","601598","789148","817250","18.205062","8.315325","0.029441","619648","821243","860564","16.136589","6.973766","0.030161","570704","781638","954027","12.664875","5.044279","0.031375","443322","785288","1122281","497698","844574","1159751","508697","827896","1096280","541223","832623","1054406","595950","832389","988894",""
"MA200-0416","28263","85","1","1.10","1.4","2023-05-26T10:10:01","120","2023/05/26","10:10:01","-15.795758605003357","35.00297249946743","0.0","14","30","64","32","-4372","-3612","-26136","1","150","149.83","115.35","34.48","39.04","36.0","21.27","90580","37.94","DUALSPOT-UV-BLUE-GREEN-RED-IR","508571","592972","907064","22.964520","11.473816","0.028716","513151","765749","763526","20.383674","9.754276","0.030101","599070","786393","814998","18.892838","8.668063","0.030146","620162","822598","862464","16.767494","7.268398","0.029715","569369","780503","953235","13.206867","5.277309","0.031963","41837","82373","122850","46131","84325","119375","49500","84945","114993","54871","85741","109360","65635","94424","113583",""
"MA200-0416","28264","85","1","1.10","1.4","2023-05-26T10:10:31","120","2023/05/26","10:10:31","-15.795772314071655","35.00297549972311","0.0","14","30","64","32","-4320","-3654","-25775","1","150","149.94","115.42","34.52","39.39","35.5","21.33","90564","38.19","DUALSPOT-UV-BLUE-GREEN-RED-IR","502324","589568","910126","24.536422","12.387520","0.026730","507133","761667","765393","21.803872","10.535648","0.028390","592178","782281","816351","20.210404","9.358086","0.028853","614576","820114","864824","17.938450","7.840452","0.029518","563838","777069","953162","14.171734","5.709896","0.032128","79993","155475","232440","91218","167811","239424","94775","165963","227350","101785","166268","216335","116781","175068","214398",""
"MA200-0416","28265","85","1","1.10","1.4","2023-05-26T10:11:01","120","2023/05/26","10:11:01","-15.795763611793518","35.00297349970788","0.0","14","30","64","32","-4348","-3632","-25912","1","150","149.34","114.25","35.09","39.76","35.0","21.40","90560","38.50","DUALSPOT-UV-BLUE-GREEN-RED-IR","451611","550909","903996","31.532166","16.619003","0.021317","459776","717444","761214","28.339520","14.332643","0.022704","543830","746189","817519","26.210422","12.693263","0.023312","569319","788334","866564","23.306552","10.649724","0.024225","528304","753129","952565","18.604778","7.783170","0.025447","359644","708392","1097031","424068","802284","1189296","436000","789213","1120897","471386","803324","1082625","542025","825496","1029377",""
"MA200-0416","28266","85","1","1.10","1.4","2023-05-26T10:11:31","120","2023/05/26","10:11:31","-15.795768976211548","35.00297216628678","0.0","14","30","64","31","-4324","-3555","-26132","1","150","149.76","114.20","35.56","40.11","34.4","21.46","90552","38.81","DUALSPOT-UV-BLUE-GREEN-RED-IR","450885","550298","904424","34.722092","18.657872","0.020006","459278","717064","761726","31.252990","16.093933","0.021116","540337","742062","814004","29.101594","14.356056","0.021499","567129","786166","865160","26.022542","12.113982","0.022201","525870","750573","950356","20.857578","8.886589","0.023950","164064","336742","537300","189126","367153","556159","210185","388187","561488","238604","413088","565059","275571","433438","550629",""
"MA200-0416","28267","85","1","1.10","1.4","2023-05-26T10:12:01","120","2023/05/26","10:12:01","-15.795770108699799","35.002977166324854","0.0","14","30","64","32","-4262","-3575","-26162","1","150","149.66","114.34","35.32","40.45","33.9","21.50","90552","39.13","DUALSPOT-UV-BLUE-GREEN-RED-IR","453426","553401","909580","34.718932","18.660190","0.033374","461262","720242","765090","31.241714","16.084295","0.025111","541929","744286","816408","29.090226","14.343764","0.028580","565341","783797","862405","26.013832","12.093228","0.035603","526054","750990","950945","20.881324","8.891747","-0.051321","-162","385","1022","-731","-2022","-3392","-825","-2888","-4896","-764","-5894","-10351","2901","2039","1400",""
"MA200-0416","28268","85","1","1.10","1.4","2023-05-26T10:12:31","120","2023/05/26","10:12:31","-15.795763432979584","35.002979499520734","0.0","14","30","64","31","-4337","-3550","-25850","1","150","150.04","113.73","36.31","40.80","33.4","21.58","90560","39.44","DUALSPOT-UV-BLUE-GREEN-RED-IR","434840","538547","908684","38.444404","21.045768","0.017939","444026","703421","764253","34.627468","18.142072","0.018914","523468","729443","816354","32.225544","16.160860","0.019257","547830","770382","862169","28.832160","13.626316","0.019827","511734","740294","949357","23.223888","10.034523","0.020745","192397","385891","619946","220688","420123","639600","228872","415473","603191","248614","423598","580406","287731","439653","555236",""
"MA200-0416","28269","85","1","1.10","1.4","2023-05-26T10:13:01","120","2023/05/26","10:13:01","-15.795758605003357","35.00297783291899","0.0","14","30","64","32","-4315","-3642","-25888","1","150","149.53","113.13","36.40","41.15","33.1","21.70","90564","39.81","DUALSPOT-UV-BLUE-GREEN-RED-IR","428157","532423","905794","40.053832","22.116130","0.017586","438073","696831","762469","36.077288","19.056318","0.018584","517295","723869","815265","33.614456","16.992678","0.018900","544365","768767","865055","30.110878","14.340902","0.019413","508132","738082","950498","24.306988","10.583187","0.020748","83561","172725","282658","95007","186206","288311","101931","189735","279498","113403","196968","272959","133746","210576","269823",""
"MA200-0416","28270","85","1","1.10","1.4","2023-05-26T10:13:31","120","2023/05/26","10:13:31","-15.795746922492981","35.002981666242704","0.0","14","30","64","31","-4228","-3580","-25891","1","150","150.06","113.54","36.52","41.52","32.7","21.84","90576","40.13","DUALSPOT-UV-BLUE-GREEN-RED-IR","419328","525951","908757","41.626892","23.136376","0.016716","429619","689099","764189","37.508764","19.945464","0.017738","507650","716276","816319","34.923972","17.768722","0.018085","531569","756801","860156","31.277630","14.987707","0.018587","500224","732209","949945","25.296120","11.070520","0.019209","81377","164068","267537","93465","180468","279272","95755","176401","259931","103098","177668","246277","121700","186391","236734",""
"MA200-0416","28271","85","1","1.10","1.4","2023-05-26T10:14:01","120","2023/05/26","10:14:01","-15.795754432678223","35.00297699961811","0.0","14","30","64","31","-4288","-3612","-25996","1","150","149.80","112.92","36.88","41.90","32.3","21.96","90568","40.44","DUALSPOT-UV-BLUE-GREEN-RED-IR","418049","525166","910137","42.923784","23.967700","0.015971","428126","687763","764572","38.650004","20.640268","0.016809","504237","712660","814023","36.022496","18.402474","0.016945","531226","757661","862753","32.292182","15.532527","0.017150","498497","730973","949868","26.155846","11.484987","0.017553","67459","132400","214511","74924","139665","213863","80768","142669","207320","90142","148213","202033","106359","156995","196635",""
"MA200-0416","28272","85","1","1.10","1.4","2023-05-26T10:14:31","120","2023/05/26","10:14:31","-15.795758187770844","35.00297866645269","0.0","14","30","64","31","-4296","-3676","-25940","1","150","151.95","111.38","40.57","42.25","31.8","22.01","90568","40.75","DUALSPOT-UV-BLUE-GREEN-RED-IR","411989","518846","902514","43.540116","24.338482","0.013697","426201","686265","765150","39.174568","20.932552","0.013585","501768","710786","813956","36.503448","18.654728","0.012974","528185","755019","861535","32.720494","15.737625","0.011535","498314","732231","953112","26.531364","11.650524","0.010276","32502","53682","80528","34915","53410","74634","35851","51623","68108","38581","50721","61971","47099","57001","64754",""
"MA200-0416","28273","85","1","1.10","1.4","2023-05-26T10:15:01","120","2023/05/26","10:15:01","-15.795761942863464","35.00297633279115","0.0","14","30","64","31","-4212","-3633","-26008","1","150","149.44","113.07","36.37","42.60","31.2","22.02","90576","41.13","DUALSPOT-UV-BLUE-GREEN-RED-IR","413191","520688","906595","43.694536","24.430606","0.015099","423706","682647","761638","39.297600","20.997930","0.014845","502456","712222","816037","36.621352","18.708038","0.012381","531085","759659","867188","32.824158","15.774746","0.005454","498536","733106","954667","26.647614","11.693815","0.008235","8021","14878","23573","8066","13326","19362","8657","12169","15838","9198","10240","11204","14362","16628","18400",""
"MA200-0416","28274","85","1","1.10","1.4","2023-05-26T10:15:31","120","2023/05/26","10:15:31","-15.795765101909637","35.0029704994522","0.0","14","30","64","31","-4241","-3612","-25808","1","150","149.53","113.38","36.15","42.92","30.7","21.99","90580","41.44","DUALSPOT-UV-BLUE-GREEN-RED-IR","413170","521214","908407","43.844040","24.503636","0.012470","423801","683486","762998","39.408296","21.036254","0.003948","502282","712696","816953","36.720908","18.735814","-0.009329","529338","757878","865380","32.908322","15.787835","-1.937841","496930","731359","952797","26.744094","11.724985","0.000864","7745","11866","17087","7237","7859","8571","7290","6379","5430","7447","3632","114","11887","12045","12168",""
"MA200-0416","28275","85","1","1.10","1.4","2023-05-26T10:16:01","120","2023/05/26","10:16:01","-15.795761108398438","35.002975166309625","0.0","14","30","64","31","-4312","-3604","-25945","1","150","150.06","113.90","36.16","43.24","30.2","22.03","90584","41.69","DUALSPOT-UV-BLUE-GREEN-RED-IR","412762","520760","907651","43.909844","24.532466","0.010536","423165","682543","761865","39.452136","21.045850","-0.050546","501935","712333","816429","36.766292","18.741852","0.174127","529083","757667","864976","32.947766","15.783074","0.048755","495749","729829","950801","26.802658","11.739401","-0.024859","3393","4682","6314","2853","1966","953","3308","1386","-612","3474","-1320","-5729","7182","5568","4310",""
"MA200-0416","28276","85","1","1.10","1.4","2023-05-26T10:16:31","120","2023/05/26","10:16:31","-15.795776009559631","35.00296133314259","0.0","14","30","64","31","-4328","-3555","-26008","1","150","149.62","113.19","36.43","43.58","29.8","22.12","90584","42.00","DUALSPOT-UV-BLUE-GREEN-RED-IR","410090","517853","903057","44.058816","24.590390","0.007263","424010","684407","764163","39.558624","21.070178","-0.041432","500620","711001","815019","36.866488","18.759084","-0.495661","526473","754559","861447","33.035572","15.788341","0.084467","495650","730183","951472","26.899322","11.762167","-0.033881","7730","9338","11368","6974","4950","2642","7349","3927","381","7783","1450","-4347","11930","8729","6241",""
"MA200-0416","28277","85","1","1.10","1.4","2023-05-26T10:17:01","120","2023/05/26","10:17:01","-15.795773565769196","35.00296066654846","0.0","14","30","64","31","-4160","-3696","-26224","1","150","150.16","113.37","36.79","43.90","29.4","22.15","90588","42.31","DUALSPOT-UV-BLUE-GREEN-RED-IR","410728","518719","904597","44.049872","24.580300","0.019264","424779","685777","765591","39.541328","21.052012","0.020916","500819","711411","815425","36.849884","18.736592","0.023498","527322","755914","862825","33.016254","15.760650","0.026270","494915","729293","950345","26.910836","11.759573","0.055655","-463","-1610","-3059","-1131","-3660","-6539","-1216","-5075","-9067","-1709","-7550","-12885","1418","-984","-2850",""
"MA200-0416","28278","85","1","1.10","1.4","2023-05-26T10:17:31","120","2023/05/26","10:17:31","-15.79577910900116","35.00294916634448","0.0","13","30","64","31","-4292","-3612","-25544","1","150","149.80","113.84","35.96","44.22","29.0","22.21","90588","42.63","DUALSPOT-UV-BLUE-GREEN-RED-IR","411020","519239","905701","44.112244","24.608348","0.011091","421823","681117","760402","39.585812","21.065586","-0.001979","501087","711986","816068","36.892156","18.744954","-0.085765","527720","756692","863665","33.049580","15.758881","0.054806","496966","732504","954633","26.961838","11.775732","0.000189","3218","4581","6300","2896","2798","2686","3082","1930","740","2937","-493","-3620","6258","6276","6290",""
"MA200-0416","28279","85","1","1.10","1.4","2023-05-26T10:18:01","120","2023/05/26","10:18:01","-15.795773148536682","35.00295816641301","0.0","13","30","64","31","-4204","-3562","-26187","1","150","150.49","113.68","36.81","44.50","28.6","22.20","90596","42.94","DUALSPOT-UV-BLUE-GREEN-RED-IR","411523","519882","906697","44.103212","24.595906","0.019961","422362","682006","761225","39.563812","21.041912","0.021038","501607","712763","816765","36.871060","18.718546","0.023146","527391","756229","862865","33.025330","15.728554","0.025597","496344","731688","953540","26.969430","11.770296","0.044970","-466","-1985","-3900","-1434","-4768","-8555","-1540","-5956","-10510","-2140","-8266","-13837","932","-2063","-4383",""
"MA200-0416","28280","85","1","1.10","1.4","2023-05-26T10:18:31","120","2023/05/26","10:18:31","-15.795761466026306","35.00296099972911","0.0","13","30","64","31","-4140","-3568","-26096","1","150","149.80","113.71","36.09","44.83","28.2","22.26","90596","43.19","DUALSPOT-UV-BLUE-GREEN-RED-IR","411912","520426","907542","44.101684","24.586236","0.022158","422633","682517","761644","39.550256","21.022074","0.022380","501965","713322","817208","36.858068","18.696784","0.024328","529021","758681","865394","33.009780","15.699353","0.027375","495760","730960","952550","26.983940","11.767685","0.057892","-78","-1573","-3457","-883","-4075","-7695","-948","-5006","-9183","-1371","-8118","-14236","1782","-1010","-3171",""
"MA200-0416","28281","85","1","1.10","1.4","2023-05-26T10:19:01","120","2023/05/26","10:19:01","-15.795756459236145","35.002956999931484","0.0","13","30","64","31","-4136","-3520","-26200","1","150","150.29","112.93","37.36","45.15","28.0","22.38","90604","43.50","DUALSPOT-UV-BLUE-GREEN-RED-IR","411856","520520","907826","44.144004","24.596416","-0.036377","422437","682422","761549","39.575768","21.018068","0.037051","499812","710497","813924","36.880816","18.688168","0.035213","527994","757479","863906","33.025094","15.683851","0.034778","494888","729915","951188","27.018348","11.770340","0.140197","2201","1600","844","1674","-794","-3591","1672","-1914","-5599","1360","-4162","-9157","4256","992","-1526",""
"MA200-0416","28282","85","1","1.10","1.4","2023-05-26T10:19:31","120","2023/05/26","10:19:31","-15.795750319957733","35.00295549980365","0.0","13","30","64","31","-4080","-3552","-26119","1","150","149.90","112.97","36.93","45.42","27.5","22.36","90600","43.81","DUALSPOT-UV-BLUE-GREEN-RED-IR","412533","521421","909412","44.156592","24.595188","0.034374","422760","682999","762077","39.572872","21.005180","0.024364","500540","711601","815040","36.875268","18.670730","0.025648","529137","759252","865686","33.015476","15.658865","0.028158","494524","729518","950670","27.036262","11.767775","0.060905","654","-195","-1263","-190","-2587","-5299","-407","-3920","-7522","-854","-6788","-12142","2215","-970","-3425",""
"MA200-0416","28283","85","1","1.10","1.4","2023-05-26T10:20:01","120","2023/05/26","10:20:01","-15.795757293701172","35.002954999916255","0.0","13","30","64","31","-4200","-3570","-25750","1","150","149.46","113.04","36.42","45.69","27.2","22.37","90600","44.06","DUALSPOT-UV-BLUE-GREEN-RED-IR","412107","520945","908470","44.158744","24.588830","0.023677","422640","682849","761730","39.560616","20.985390","0.022629","499770","710591","813703","36.863508","18.649078","0.024554","527545","757053","862974","33.002658","15.632551","0.027597","495504","731069","952712","27.049438","11.764776","0.055273","111","-1025","-2454","-803","-4028","-7671","-863","-4936","-9105","-1137","-7248","-12749","1628","-1150","-3288",""
"MA200-0416","28284","85","1","1.10","1.4","2023-05-26T10:20:31","120","2023/05/26","10:20:31","-15.795766949653625","35.00296066654846","0.0","13","30","64","31","-4087","-3584","-26184","1","150","149.90","113.05","36.85","45.94","26.9","22.40","90584","44.38","DUALSPOT-UV-BLUE-GREEN-RED-IR","409880","518343","904082","44.199592","24.597648","-0.072130","423870","685103","764295","39.588560","20.981544","0.037730","501226","712953","816397","36.887432","18.640600","0.035531","529025","759494","865665","33.019592","15.615944","0.034870","495815","731782","953703","27.086808","11.769253","0.348595","2122","1405","506","1832","-773","-3711","1757","-1910","-5656","1502","-4521","-9927","4617","1697","-546",""
"MA200-0416","28285","85","1","1.10","1.4","2023-05-26T10:21:01","120","2023/05/26","10:21:01","-15.795769810676575","35.00296266656369","0.0","13","30","64","30","-4208","-3645","-25779","1","150","150.09","113.13","36.97","46.22","26.6","22.47","90580","44.69","DUALSPOT-UV-BLUE-GREEN-RED-IR","409441","517811","903106","44.218452","24.598958","0.051784","423184","684044","762962","39.592148","20.970562","0.026458","500811","712462","815648","36.893592","18.627060","0.028961","528356","758609","864421","33.020866","15.594997","0.030599","494358","729737","950958","27.106370","11.768848","0.078856","979","207","-759","235","-2202","-4947","452","-3040","-6602","112","-5684","-10873","2415","-152","-2123",""
"MA200-0416","28286","85","1","1.10","1.4","2023-05-26T10:21:31","120","2023/05/26","10:21:31","-15.795761466026306","35.0029689995572","0.0","13","30","64","31","-4148","-3571","-26068","1","150","150.21","113.00","37.21","46.50","26.3","22.54","90580","44.94","DUALSPOT-UV-BLUE-GREEN-RED-IR","411632","520639","908003","44.221468","24.593304","0.024219","424370","685998","765042","39.583588","20.954926","0.022894","502067","714327","817639","36.884896","18.608732","0.024833","526169","755544","860757","33.009624","15.572233","0.027476","495496","731532","953315","27.116250","11.767822","0.064733","156","-892","-2206","-561","-3115","-5987","-639","-4089","-7602","-998","-6137","-10727","1221","-385","-1617",""
"MA200-0416","28287","85","1","1.10","1.4","2023-05-26T10:22:01","120","2023/05/26","10:22:01","-15.795775294303894","35.002956666518","0.0","13","30","64","30","-4100","-3632","-26008","1","150","149.33","112.58","36.75","46.77","26.0","22.57","90584","45.25","DUALSPOT-UV-BLUE-GREEN-RED-IR","411598","520668","908010","44.229828","24.589328","0.027599","423523","684686","763468","39.579116","20.941312","0.023913","501523","713616","816712","36.881828","18.593518","0.026198","529306","760169","865777","33.001766","15.550763","0.028273","494609","730331","951714","27.132164","11.766491","0.067111","436","-635","-1976","-294","-2745","-5499","-226","-3436","-6700","-700","-5860","-10459","1974","-506","-2405",""
"MA200-0416","28288","85","1","1.10","1.4","2023-05-26T10:22:31","120","2023/05/26","10:22:31","-15.795777142047882","35.002955166390166","0.0","13","30","72","31","-4175","-3612","-26037","1","150","149.66","113.00","36.66","47.04","25.7","22.59","90588","45.44","DUALSPOT-UV-BLUE-GREEN-RED-IR","355024","449166","783324","44.242888","24.589890","0.046313","424352","686161","765022","39.581084","20.931184","0.025991","500334","712024","814751","36.878492","18.579360","0.026046","525949","755451","860280","32.995410","15.531445","0.028505","494899","730906","952472","27.149170","11.765123","0.067471","678","89","-647","129","-2048","-4492","-245","-3206","-6213","-564","-5287","-9487","2102","-521","-2527",""
"MA200-0416","28289","85","1","1.10","1.4","2023-05-26T10:23:01","120","2023/05/26","10:23:01","-15.795781552791595","35.00296049984172","0.0","13","30","64","31","-4045","-3650","-26004","1","150","150.03","112.85","37.18","47.26","25.5","22.64","90596","45.75","DUALSPOT-UV-BLUE-GREEN-RED-IR","410545","519657","906496","44.314948","24.613826","0.000412","424550","686807","765826","39.632732","20.937498","0.100942","499903","711756","814506","36.927752","18.579756","0.055188","525681","755448","860265","33.036930","15.526038","0.048813","496554","733666","956216","27.202690","11.775408","-0.101878","3750","3781","3820","3392","1259","-1130","3624","88","-3491","3691","-1458","-6025","6625","3864","1756",""
"MA200-0416","28290","85","1","1.10","1.4","2023-05-26T10:23:31","120","2023/05/26","10:23:31","-15.795777976512909","35.00296249985695","0.0","13","30","64","30","-4104","-3612","-26000","1","150","149.45","112.17","37.27","47.53","25.3","22.74","90604","46.00","DUALSPOT-UV-BLUE-GREEN-RED-IR","409547","518656","904952","44.395468","24.639802","-0.001582","423122","684761","763567","39.688156","20.946510","0.334930","499394","711368","814059","36.983408","18.585224","0.092072","529219","760915","866434","33.086574","15.523067","0.054933","493048","728795","949920","27.261856","11.788113","-0.060684","4216","4093","3939","3662","1792","-297","4119","1218","-1712","4440","-799","-5431","7368","4761","2775",""
"MA200-0416","28291","85","1","1.10","1.4","2023-05-26T10:24:01","120","2023/05/26","10:24:01","-15.795772910118103","35.002957333112136","0.0","13","30","64","31","-4104","-3632","-25984","1","150","149.96","112.57","37.39","47.81","25.1","22.82","90612","46.25","DUALSPOT-UV-BLUE-GREEN-RED-IR","411056","520644","908464","44.410280","24.640972","0.054161","423909","686140","765086","39.692272","20.936222","0.026672","500229","712675","815448","36.983680","18.571732","0.027128","525635","755897","860561","33.083938","15.504959","0.029432","493470","729561","950947","27.279838","11.788147","0.085480","772","183","-549","271","-2039","-4619","19","-2995","-6037","-234","-4858","-8936","2231","12","-1675",""
"MA200-0416","28292","85","1","1.10","1.4","2023-05-26T10:24:31","120","2023/05/26","10:24:31","-15.79576462507248","35.00295199966058","0.1","13","30","64","30","-4172","-3544","-26152","1","150","150.03","112.53","37.50","48.03","24.8","22.83","90616","46.50","DUALSPOT-UV-BLUE-GREEN-RED-IR","411014","520660","908484","44.425940","24.644982","-0.024453","423050","684817","763489","39.693512","20.927780","0.025761","499586","711813","814392","36.988696","18.563396","0.029489","528958","760783","865983","33.081924","15.488839","0.029545","494670","731466","953404","27.294510","11.786869","0.066664","817","628","391","81","-1668","-3620","370","-1845","-4077","-179","-4313","-7952","1821","-476","-2222",""
"MA200-0416","28293","85","1","1.10","1.4","2023-05-26T10:25:01","120","2023/05/26","10:25:01","-15.795755445957184","35.00295833335258","0.0","13","30","64","30","-4076","-3648","-26032","1","150","149.57","113.05","36.52","48.26","24.5","22.80","90604","46.75","DUALSPOT-UV-BLUE-GREEN-RED-IR","409602","518913","905449","44.437096","24.644600","0.037680","421218","681859","760161","39.692760","20.919940","0.024819","500287","712911","815562","36.984148","18.550852","0.025361","529495","761633","866821","33.076614","15.472895","0.028410","494962","732004","954092","27.308556","11.784803","0.060091","579","-61","-859","-49","-1591","-3310","-334","-2852","-5386","-471","-4380","-7816","1735","-790","-2707",""
"MA200-0416","28294","85","1","1.10","1.4","2023-05-26T10:25:31","120","2023/05/26","10:25:31","-15.79574829339981","35.0029621666763","0.1","13","30","64","30","-4195","-3570","-25800","1","150","150.49","113.13","37.36","48.45","24.1","22.72","90596","46.94","DUALSPOT-UV-BLUE-GREEN-RED-IR","408820","518016","903920","44.453604","24.646420","0.067903","423231","685233","763898","39.699548","20.913494","0.028693","499485","711863","814291","36.990424","18.541604","0.029753","528183","759862","864659","33.073658","15.454551","0.029356","493448","729898","951362","27.324822","11.785238","0.096001","857","286","-424","444","-1278","-3197","460","-2054","-4582","-262","-4925","-9016","2008","162","-1237",""
"MA200-0416","28295","85","1","1.10","1.4","2023-05-26T10:26:01","120","2023/05/26","10:26:01","-15.795748591423035","35.002968666143715","0.1","13","30","64","30","-4183","-3541","-25891","1","150","149.72","113.59","36.12","48.67","23.9","22.71","90596","47.19","DUALSPOT-UV-BLUE-GREEN-RED-IR","409076","518457","904670","44.480376","24.651368","-0.348976","422841","684727","763260","39.711136","20.905720","0.029706","499502","712049","814407","37.001632","18.532156","0.031305","528017","759798","864453","33.084622","15.440486","0.033807","495388","732929","955321","27.349220","11.785969","0.098345","1384","804","83","756","-1595","-4210","819","-2171","-5172","968","-3906","-8172","3000","282","-1775",""
"MA200-0416","28296","85","1","1.10","1.4","2023-05-26T10:26:31","120","2023/05/26","10:26:31","-15.795755743980408","35.00297649949789","0.0","13","30","64","31","-4137","-3625","-25850","1","150","149.70","113.52","36.17","48.90","23.7","22.80","90600","47.44","DUALSPOT-UV-BLUE-GREEN-RED-IR","410765","520648","908515","44.490736","24.648530","0.029567","423616","686112","764716","39.715224","20.895676","0.026628","499876","712694","815059","37.005620","18.519038","0.028269","527181","758732","863110","33.086224","15.425011","0.030748","493577","730351","951914","27.364036","11.786308","0.094525","536","-460","-1699","267","-2058","-4640","291","-3011","-6319","141","-4292","-8164","1823","131","-1149",""
"MA200-0416","28297","85","1","1.10","1.4","2023-05-26T10:27:01","120","2023/05/26","10:27:01","-15.795749068260193","35.0029768331442","0.0","13","30","64","31","-4041","-3579","-25912","1","150","149.33","114.00","35.32","49.15","23.6","22.91","90608","47.63","DUALSPOT-UV-BLUE-GREEN-RED-IR","411003","521044","909221","44.508936","24.651260","0.166885","423220","685556","764051","39.722592","20.890454","0.029417","499359","712069","814269","37.011548","18.511268","0.029874","526721","758166","862333","33.085872","15.411627","0.030093","495442","733256","955725","27.380134","11.786186","0.082246","937","454","-145","479","-1095","-2842","431","-1825","-4084","-30","-3801","-7088","1972","-48","-1575",""
"MA200-0416","28298","85","1","1.10","1.4","2023-05-26T10:27:31","120","2023/05/26","10:27:31","-15.795750200748444","35.00296483305283","0.0","13","30","64","30","-4036","-3632","-26019","1","150","149.57","114.36","35.21","49.36","23.2","22.86","90608","47.88","DUALSPOT-UV-BLUE-GREEN-RED-IR","409905","519723","906975","44.528396","24.656330","-0.011814","422700","684772","763138","39.728632","20.885988","0.029251","500224","713378","815666","37.014136","18.501766","0.028105","525386","756330","860136","33.084930","15.398067","0.029876","493603","730629","952297","27.396118","11.786839","0.106369","999","845","655","391","-940","-2416","188","-2240","-4668","-82","-3864","-7156","1952","258","-1020",""
"MA200-0416","28299","85","1","1.10","1.4","2023-05-26T10:28:01","120","2023/05/26","10:28:01","-15.795749425888062","35.002963999984786","0.0","13","30","64","31","-4032","-3628","-26036","1","150","150.42","114.59","35.84","49.56","23.0","22.88","90604","48.06","DUALSPOT-UV-BLUE-GREEN-RED-IR","411023","521216","909596","44.540308","24.655914","0.037520","423689","686426","764919","39.727612","20.874444","0.024836","500723","714200","816551","37.018448","18.491408","0.028666","526579","758169","862081","33.084504","15.380090","0.030105","494105","731524","953477","27.413330","11.786886","0.085857","610","-68","-909","-66","-2387","-4958","312","-2399","-5106","-37","-5032","-9372","2098","18","-1550",""
"MA200-0416","28300","85","1","1.10","1.4","2023-05-26T10:28:31","120","2023/05/26","10:28:31","-15.795737981796265","35.00297649949789","0.0","13","30","64","30","-4048","-3623","-25947","1","150","149.59","113.79","35.80","49.76","22.8","22.91","90600","48.31","DUALSPOT-UV-BLUE-GREEN-RED-IR","411161","521441","909973","44.553712","24.656860","0.052905","423431","686135","764529","39.731760","20.867616","0.027243","500191","713477","815623","37.018220","18.479142","0.026934","527195","759155","863067","33.081090","15.364192","0.029100","493528","730742","952424","27.426506","11.786219","0.071655","691","155","-509","270","-1414","-3277","-16","-2845","-5664","-301","-4455","-8058","1617","-260","-1675",""
"MA200-0416","28301","85","1","1.10","1.4","2023-05-26T10:29:01","120","2023/05/26","10:29:01","-15.795727372169495","35.00297483289614","0.0","13","30","64","30","-4004","-3687","-26012","1","150","151.95","113.13","38.82","49.95","22.7","22.96","90604","48.50","DUALSPOT-UV-BLUE-GREEN-RED-IR","409672","519616","906746","44.561608","24.653964","0.028622","422389","684500","762591","39.731692","20.855184","0.025147","498693","711451","813181","37.016668","18.466072","0.026451","525674","757070","860535","33.077884","15.346520","0.029193","492048","728653","949710","27.439292","11.785671","0.073954","409","-438","-1488","-4","-2374","-4992","-113","-2794","-5463","-284","-4567","-8274","1578","-196","-1534",""
"MA200-0416","28302","85","1","1.10","1.4","2023-05-26T10:29:31","120","2023/05/26","10:29:31","-15.79573130607605","35.00296783307567","0.0","13","30","64","30","-4028","-3544","-25956","1","150","150.59","114.53","36.06","50.20","22.6","23.08","90600","48.69","DUALSPOT-UV-BLUE-GREEN-RED-IR","411201","521603","910250","44.575988","24.655204","0.058326","423510","686427","764691","39.734924","20.845914","0.026408","498924","711888","813581","37.020456","18.454410","0.028330","530280","763848","868121","33.075916","15.332090","0.029523","494537","732479","954685","27.455788","11.784590","0.069035","737","201","-460","209","-1905","-4239","274","-2684","-5626","-172","-4014","-7334","2011","-418","-2246",""
"MA200-0416","28303","85","1","1.10","1.4","2023-05-26T10:30:01","120","2023/05/26","10:30:01","-15.795726954936981","35.00297383288853","0.0","13","30","64","31","-3966","-3575","-26000","1","150","149.33","113.49","35.84","50.43","22.5","23.18","90604","48.94","DUALSPOT-UV-BLUE-GREEN-RED-IR","411105","521579","910212","44.590660","24.655938","0.047817","423475","686437","764633","39.738184","20.837258","0.026505","500639","714431","816431","37.022648","18.444232","0.027903","526649","758700","862129","33.075196","15.315740","0.030007","493377","730853","952611","27.472450","11.784679","0.086860","759","120","-670","213","-1790","-4000","160","-2357","-4857","-63","-4576","-8469","2051","34","-1479",""
"MA200-0416","28304","85","1","1.10","1.4","2023-05-26T10:30:31","120","2023/05/26","10:30:31","-15.795724630355835","35.00296666636132","0.0","13","30","64","30","-4092","-3571","-26036","1","150","149.73","113.50","36.23","50.66","22.4","23.30","90608","49.19","DUALSPOT-UV-BLUE-GREEN-RED-IR","410625","521027","909276","44.605032","24.657482","0.068827","423041","685804","763854","39.741528","20.828932","0.026600","499942","713519","815294","37.025116","18.431592","0.027828","526359","758388","861617","33.072124","15.297832","0.029324","492892","730272","951811","27.487754","11.783638","0.068760","743","250","-359","218","-1703","-3820","180","-2897","-5948","-271","-4959","-8994","1883","-401","-2116",""
"MA200-0416","28305","85","1","1.10","1.4","2023-05-26T10:31:01","120","2023/05/26","10:31:01","-15.795724272727966","35.00296549964696","0.1","13","30","64","30","-4066","-3533","-26104","1","150","149.63","113.33","36.31","50.88","22.1","23.30","90608","49.38","DUALSPOT-UV-BLUE-GREEN-RED-IR","411051","521651","910411","44.625016","24.663330","-0.005368","423461","686537","764609","39.746044","20.822784","0.027670","499096","712426","813952","37.027136","18.421756","0.027873","529687","763295","867065","33.069188","15.282661","0.029201","494265","732438","954634","27.504288","11.782881","0.072731","1035","946","835","295","-1255","-2961","148","-2249","-4622","-260","-4192","-7570","2037","-291","-2037",""
"MA200-0416","28306","85","1","1.10","1.4","2023-05-26T10:31:31","120","2023/05/26","10:31:31","-15.795719981193542","35.002963999984786","0.1","13","30","64","30","-3966","-3629","-26029","1","150","150.21","113.46","36.75","51.07","21.9","23.25","90608","49.63","DUALSPOT-UV-BLUE-GREEN-RED-IR","411190","521893","910854","44.641648","24.665070","0.066051","423398","686529","764557","39.748488","20.815136","0.026335","498577","711750","813079","37.028400","18.410492","0.027491","529868","763651","867305","33.068950","15.266875","0.030161","493569","731517","953443","27.521996","11.781773","0.069782","861","277","-441","159","-1542","-3414","92","-2544","-5151","-20","-4309","-7986","2180","-421","-2368",""
"MA200-0416","28307","85","1","1.10","1.4","2023-05-26T10:32:01","120","2023/05/26","10:32:01","-15.795723795890808","35.00296049984172","0.0","13","30","64","30","-3955","-3532","-25975","1","150","149.67","113.62","36.05","51.24","21.7","23.24","90608","49.81","DUALSPOT-UV-BLUE-GREEN-RED-IR","407751","517578","903278","44.653792","24.663590","0.033101","423239","686368","764312","39.751400","20.803416","0.026064","500607","714780","816435","37.031208","18.399682","0.028080","525637","757645","860363","33.065064","15.248976","0.029084","492709","730383","951907","27.536606","11.779261","0.057748","627","-241","-1313","189","-2409","-5264","205","-2489","-5151","-343","-4980","-8950","1796","-973","-3043",""
"MA200-0416","28308","85","1","1.10","1.4","2023-05-26T10:32:31","120","2023/05/26","10:32:31","-15.795737326145172","35.00295616639778","0.0","13","30","64","30","-3964","-3584","-26063","1","150","150.35","113.42","36.93","51.42","21.6","23.33","0","0.00","DUALSPOT-UV-BLUE-GREEN-RED-IR","410570","521246","909713","44.663820","24.664264","0.051416","422989","686043","763849","39.752652","20.793218","0.025625","499667","713516","814891","37.031400","18.385220","0.027062","529333","763146","866451","33.064868","15.232272","0.030182","492222","729792","951138","27.550102","11.777731","0.063091","519","107","-400","81","-2046","-4380","13","-3250","-6469","-17","-4537","-8398","1662","-578","-2251",""
"MA200-0416","28309","85","1","1.10","1.4","2023-05-26T10:33:01","120","2023/05/26","10:33:01","-15.79576325416565","35.002957333112136","0.0","13","30","64","30","-3937","-3620","-26033","1","150","149.39","113.33","36.06","51.64","21.5","23.45","0","0.00","DUALSPOT-UV-BLUE-GREEN-RED-IR","409255","519622","906823","44.674668","24.662094","0.030876","421812","684173","761701","39.754860","20.784658","0.026099","500711","715081","816641","37.034952","18.376586","0.028674","527768","760961","863844","33.061752","15.217723","0.029098","492993","731040","952756","27.565376","11.777439","0.078916","562","-353","-1482","144","-1759","-3846","260","-1987","-4201","-275","-4047","-7264","1882","-113","-1601",""
"MA200-0416","28310","85","1","1.10","1.4","2023-05-26T10:33:31","120","2023/05/26","10:33:31","-15.795752465724945","35.00294066639617","0.0","13","30","64","30","-3968","-3639","-25728","1","150","149.90","113.17","36.73","51.81","21.3","23.44","90612","50.38","DUALSPOT-UV-BLUE-GREEN-RED-IR","410220","520904","909182","44.698180","24.671310","0.007085","422678","685647","763383","39.765636","20.785748","0.081873","500761","715264","816820","37.042168","18.373240","0.034066","528419","761997","864953","33.063958","15.208682","0.031492","493058","731226","953005","27.581436","11.777426","0.084618","1220","1473","1786","705","219","-312","529","-756","-2022","195","-2469","-4739","1982","-5","-1486",""
"MA200-0416","28311","85","1","1.10","1.4","2023-05-26T10:34:01","120","2023/05/26","10:34:01","-15.795751929283142","35.00293399998918","0.0","13","30","64","30","-3980","-3568","-25980","1","150","149.57","113.56","36.00","51.85","21.0","23.19","90612","50.56","DUALSPOT-UV-BLUE-GREEN-RED-IR","409903","520588","908736","44.721908","24.682812","0.012107","422187","684925","762559","39.775520","20.787354","1.256201","499951","714160","815539","37.052404","18.372290","0.044236","524722","756744","858921","33.067546","15.199954","0.032251","492382","730392","951880","27.600196","11.777241","0.081602","1227","1876","2676","645","330","-13","748","-219","-1170","317","-2432","-4771","2307","-71","-1842",""
"MA200-0416","28312","85","1","1.10","1.4","2023-05-26T10:34:31","120","2023/05/26","10:34:31","-15.795745253562927","35.00294783315621","0.0","13","30","64","30","-3958","-3583","-26133","1","150","150.08","113.42","36.66","51.83","20.6","22.90","90612","50.69","DUALSPOT-UV-BLUE-GREEN-RED-IR","409228","519806","907468","44.746820","24.693668","0.009777","421507","683924","761481","39.789260","20.789396","0.217158","498967","712842","814032","37.060548","18.370190","0.037503","527726","761209","863975","33.076702","15.193244","0.036227","493923","732807","955086","27.620582","11.776554","0.075347","1290","1739","2293","898","413","-117","596","-475","-1529","809","-1836","-4084","2510","-261","-2322",""
"MA200-0416","28313","85","1","1.10","1.4","2023-05-26T10:35:01","120","2023/05/26","10:35:01","-15.795741081237793","35.00295416638255","0.0","13","30","64","30","-4050","-3620","-25858","1","150","149.51","113.17","36.34","51.77","20.4","22.65","90612","50.75","DUALSPOT-UV-BLUE-GREEN-RED-IR","407621","517836","904244","44.784316","24.715870","0.014584","423229","686804","764794","39.818552","20.804942","0.014504","499933","714325","815886","37.090400","18.385696","0.014843","526241","759182","861729","33.102074","15.200009","-0.013800","492844","731375","953245","27.644532","11.780516","-0.197032","1946","3588","5611","1918","3171","4541","2190","3543","4872","2249","1867","1544","2956","1522","458",""
"MA200-0416","28314","85","1","1.10","1.4","2023-05-26T10:35:31","120","2023/05/26","10:35:31","-15.795737624168396","35.00294316629879","0.0","13","30","64","29","-4004","-3554","-25766","1","150","149.09","112.25","36.83","51.66","20.1","22.34","90612","50.81","DUALSPOT-UV-BLUE-GREEN-RED-IR","408277","518680","905816","44.802536","24.728302","0.015773","420731","682792","760405","39.834640","20.815030","0.016469","500376","715012","816757","37.109216","18.395364","0.014251","526696","759896","862524","33.115658","15.203665","-0.015053","493066","731735","953686","27.651290","11.781374","0.566826","953","1982","3250","1062","2030","3089","1391","2179","2953","1214","995","810","841","325","-57",""
"MA200-0416","28315","85","1","1.10","1.4","2023-05-26T10:36:01","120","2023/05/26","10:36:01","-15.795728623867035","35.00294116628356","0.0","13","30","64","30","-3950","-3604","-25908","1","150","149.70","113.29","36.41","51.63","19.9","22.18","90612","50.88","DUALSPOT-UV-BLUE-GREEN-RED-IR","410529","521555","910831","44.805528","24.728698","0.094169","422510","685727","763693","39.844600","20.816942","-0.133779","499368","713627","815138","37.118092","18.397284","-0.049875","525402","758128","860540","33.126744","15.206059","-0.046456","492249","730478","952046","27.647422","11.779505","0.016902","155","63","-48","651","389","102","650","437","228","981","659","386","-476","-717","-895",""
"MA200-0416","28316","85","1","1.10","1.4","2023-05-26T10:36:31","120","2023/05/26","10:36:31","-15.795736014842987","35.00294299959205","0.0","13","30","64","30","-3992","-3592","-25963","1","150","149.57","113.41","36.16","51.67","19.8","22.14","90616","50.88","DUALSPOT-UV-BLUE-GREEN-RED-IR","407944","518305","905133","44.809960","24.728424","0.035720","423271","687055","765164","39.854056","20.818654","-0.241020","499732","714183","815806","37.128792","18.400622","-0.001209","525769","758711","861228","33.136128","15.207898","-0.074793","492686","731084","952853","27.639580","11.777842","-0.050710","229","-44","-382","618","350","58","783","766","749","830","510","238","-966","-642","-402",""
"MA200-0416","28317","85","1","1.10","1.4","2023-05-26T10:37:01","120","2023/05/26","10:37:01","-15.79575514793396","35.00293799955398","0.0","13","30","64","29","-4020","-3558","-26045","1","150","150.03","113.41","36.62","51.75","19.8","22.15","90616","50.88","DUALSPOT-UV-BLUE-GREEN-RED-IR","407485","517750","904212","44.821016","24.732148","0.001948","422818","686367","764460","39.868432","20.824616","0.009363","499209","713508","815071","37.140276","18.404720","0.004631","525269","758010","860489","33.148284","15.214760","0.017503","492180","730285","951808","27.638320","11.780516","0.039146","572","597","627","939","1206","1499","840","928","1015","1075","1879","2562","-155","1020","1892",""
"MA200-0416","28318","85","1","1.10","1.4","2023-05-26T10:37:31","120","2023/05/26","10:37:31","-15.79576027393341","35.00294516654685","0.0","13","30","64","30","-3904","-3623","-25788","1","150","150.05","113.13","36.92","51.83","19.7","22.15","90616","50.94","DUALSPOT-UV-BLUE-GREEN-RED-IR","408730","519391","907133","44.833276","24.737304","0.008742","421411","684129","762003","39.879600","20.828306","0.000624","500038","714749","816525","37.152520","18.408506","-0.003116","527589","761463","864450","33.158378","15.216371","-0.512737","493263","731943","954011","27.644088","11.784431","0.023626","636","820","1046","731","740","750","898","851","805","895","437","49","712","1481","2053",""
"MA200-0416","28319","85","1","1.10","1.4","2023-05-26T10:38:01","120","2023/05/26","10:38:01","-15.795771062374115","35.00296783307567","0.0","13","30","64","29","-4029","-3670","-25758","1","150","150.42","112.95","37.47","51.93","19.7","22.20","90612","51.00","DUALSPOT-UV-BLUE-GREEN-RED-IR","409705","520679","909429","44.850144","24.744076","0.007116","422157","685369","763418","39.894664","20.831624","-0.059158","498367","712471","813910","37.167484","18.410632","0.229254","528685","763118","866312","33.168736","15.217072","0.094204","493839","732821","955241","27.653016","11.790476","0.023318","877","1061","1288","988","656","294","1099","471","-146","919","187","-432","1103","2253","3108",""
"MA200-0416","28320","85","1","1.10","1.4","2023-05-26T10:38:31","120","2023/05/26","10:38:31","-15.795759856700897","35.00296499975957","0.0","13","30","64","30","-3992","-3576","-25863","1","150","149.96","112.69","37.27","52.06","19.6","22.24","90616","51.13","DUALSPOT-UV-BLUE-GREEN-RED-IR","407620","518075","904962","44.866324","24.751252","0.009623","422957","686763","764980","39.903676","20.832302","0.065680","498644","712898","814399","37.174064","18.409800","0.042378","526245","759639","862351","33.174304","15.215273","0.041515","491720","729768","951258","27.665092","11.792109","1.219815","843","1130","1484","592","134","-365","484","-185","-842","495","-484","-1314","1497","611","-45",""
"MA200-0416","28321","85","1","1.10","1.4","2023-05-26T10:39:01","120","2023/05/26","10:39:01","-15.795753479003906","35.00295799970627","0.0","13","30","64","30","-3920","-3604","-25952","1","150","149.42","113.07","36.34","52.20","19.5","22.33","90616","51.19","DUALSPOT-UV-BLUE-GREEN-RED-IR","409045","519959","908301","44.878540","24.754608","-0.010642","421272","684063","761965","39.912604","20.832874","0.062142","499443","714118","815800","37.182400","18.407118","0.035970","527422","761423","864344","33.182350","15.211864","0.039323","492446","730890","952721","27.675590","11.796055","0.008242","634","542","429","585","116","-395","612","-612","-1813","713","-940","-2341","1296","1516","1680",""
"MA200-0416","28322","85","1","1.10","1.4","2023-05-26T10:39:31","120","2023/05/26","10:39:31","-15.795751512050629","35.00295999995433","0.0","13","30","64","29","-3916","-3541","-26154","1","150","150.33","113.32","37.01","52.36","19.5","22.43","90616","51.31","DUALSPOT-UV-BLUE-GREEN-RED-IR","405970","516069","901498","44.891776","24.758214","-0.013101","421560","684565","762506","39.918720","20.830086","0.031297","499645","714464","816154","37.186708","18.402538","0.030513","527910","762210","865153","33.182956","15.205085","0.030607","492298","730781","952636","27.690628","11.799490","-0.039696","686","572","432","400","-558","-1604","315","-1027","-2342","53","-1837","-3437","1853","1296","883",""
"MA200-0416","28323","85","1","1.10","1.4","2023-05-26T10:40:01","120","2023/05/26","10:40:01","-15.795760691165924","35.002961666556075","0.0","13","30","64","29","-3954","-3633","-26070","1","150","149.94","113.04","36.89","52.55","19.5","22.56","90616","51.44","DUALSPOT-UV-BLUE-GREEN-RED-IR","408812","519731","907995","44.905928","24.763320","0.004253","421352","684350","762222","39.924324","20.827750","0.031704","498721","713197","814653","37.193148","18.399748","0.034342","526354","760011","862620","33.184182","15.198305","0.031072","493514","732658","955138","27.706726","11.803093","-0.043653","735","813","908","367","-469","-1382","473","-628","-1706","108","-1843","-3493","1989","1364","900",""
"MA200-0416","28324","85","1","1.10","1.4","2023-05-26T10:40:31","120","2023/05/26","10:40:31","-15.795758306980133","35.002963999984786","0.0","13","30","64","30","-3928","-3507","-25824","1","150","149.87","113.09","36.78","52.70","19.5","22.66","90620","51.56","DUALSPOT-UV-BLUE-GREEN-RED-IR","407454","518081","905135","44.919884","24.767948","0.000927","422826","686766","764928","39.929912","20.824802","0.030636","499351","714155","815734","37.197120","18.394248","0.029743","528498","763131","866085","33.184376","15.191444","0.030285","491950","730432","952244","27.722328","11.805996","-0.105602","724","738","756","366","-593","-1640","291","-1241","-2741","17","-1871","-3465","1927","1102","490",""
"MA200-0416","28325","85","1","1.10","1.4","2023-05-26T10:41:01","120","2023/05/26","10:41:01","-15.795759856700897","35.00295783299953","0.0","13","30","64","30","-3900","-3575","-25962","1","150","149.76","112.77","36.99","52.85","19.3","22.67","90620","51.69","DUALSPOT-UV-BLUE-GREEN-RED-IR","408852","519896","908416","44.940880","24.777950","0.011169","421394","684488","762369","39.937376","20.826066","2.058092","497950","712255","813497","37.201816","18.390532","0.031556","526851","760823","863389","33.188038","15.186090","0.033457","492918","731969","954293","27.743882","11.810154","-0.091431","1093","1588","2195","490","253","-6","345","-834","-1987","325","-1451","-2951","2669","1570","754",""
"MA200-0416","28326","85","1","1.10","1.4","2023-05-26T10:41:31","120","2023/05/26","10:41:31","-15.795758485794067","35.00294983293861","0.0","13","30","64","30","-3932","-3471","-26096","1","150","149.45","112.85","36.60","52.97","19.2","22.67","90624","51.81","DUALSPOT-UV-BLUE-GREEN-RED-IR","407957","518780","906565","44.957092","24.786408","0.012804","423156","687434","765655","39.945020","20.825228","0.038980","499281","714206","815702","37.207108","18.387454","0.032819","525350","758715","860964","33.188778","15.178847","0.030664","491848","730544","952447","27.766342","11.813742","-0.272470","843","1357","1988","501","-169","-901","389","-698","-1760","65","-1985","-3714","2780","1369","324",""
"MA200-0416","28327","85","1","1.10","1.4","2023-05-26T10:42:01","120","2023/05/26","10:42:01","-15.795752942562103","35.00294749974273","0.0","13","30","64","29","-3904","-3644","-25872","1","150","149.80","113.25","36.55","53.05","19.0","22.57","90628","51.94","DUALSPOT-UV-BLUE-GREEN-RED-IR","408456","519483","907813","44.978052","24.795238","0.009010","421001","683943","761759","39.951876","20.824760","0.041402","499278","714219","815726","37.212780","18.385914","0.037053","525710","759302","861578","33.189286","15.170814","0.030460","491496","730156","951941","27.784812","11.813614","0.082312","1086","1419","1827","448","-94","-686","415","-349","-1097","44","-2205","-4100","2278","-48","-1770",""
"MA200-0416","28328","85","1","1.10","1.4","2023-05-26T10:42:31","120","2023/05/26","10:42:31","-15.795750200748444","35.002968332963064","0.1","13","30","64","29","-3964","-3544","-25956","1","150","149.70","112.85","36.85","53.12","18.9","22.47","90632","52.06","DUALSPOT-UV-BLUE-GREEN-RED-IR","408126","519118","907250","44.997168","24.804782","0.012022","422989","687228","765434","39.958816","20.826194","-0.082109","498731","713515","814922","37.219968","18.387496","-0.048758","525564","759153","861390","33.194362","15.168042","0.037812","491235","729862","951619","27.802872","11.816257","-0.851289","995","1521","2167","455","288","106","528","356","187","451","-754","-1769","2235","1002","90",""
"MA200-0416","28329","85","1","1.10","1.4","2023-05-26T10:43:01","120","2023/05/26","10:43:01","-15.795745134353638","35.002925666514784","0.1","13","30","64","29","-3868","-3452","-26124","1","150","149.46","113.09","36.38","53.14","18.6","22.30","90632","52.13","DUALSPOT-UV-BLUE-GREEN-RED-IR","409218","520557","909851","45.013520","24.812840","0.012049","421549","684931","762908","39.967232","20.828280","-0.023099","499232","714296","815836","37.229880","18.387442","0.053498","526842","761069","863534","33.199624","15.165186","0.037750","491726","730680","952673","27.813644","11.816475","0.093062","849","1300","1855","551","424","286","727","-11","-733","466","-787","-1842","1330","83","-837",""
"MA200-0416","28330","85","1","1.10","1.4","2023-05-26T10:43:31","120","2023/05/26","10:43:31","-15.795746088027954","35.00290533294901","0.0","13","30","64","29","-3939","-3612","-25880","1","150","149.83","113.13","36.70","53.23","18.5","22.27","90624","52.19","DUALSPOT-UV-BLUE-GREEN-RED-IR","406873","517575","904660","45.020240","24.812954","0.042205","422162","686012","764070","39.973344","20.824802","0.030284","499968","715409","817044","37.233584","18.383668","0.030600","524470","757717","859686","33.203468","15.158681","0.033004","492291","731592","953856","27.821778","11.817131","0.153369","348","18","-387","400","-702","-1902","271","-853","-1950","341","-1778","-3558","1004","249","-307",""
"MA200-0416","28331","85","1","1.10","1.4","2023-05-26T10:44:01","120","2023/05/26","10:44:01","-15.79574429988861","35.00290983286686","0.0","13","30","64","29","-3962","-3591","-25883","1","150","149.96","112.61","37.35","53.34","18.5","22.33","90616","52.31","DUALSPOT-UV-BLUE-GREEN-RED-IR","408187","519307","907698","45.028100","24.813442","0.049619","423284","687901","766149","39.979292","20.823130","0.033769","497897","712495","813732","37.239160","18.381886","0.036175","525406","759097","861248","33.208828","15.156734","0.040661","492762","732300","954832","27.826866","11.818058","-0.130148","409","76","-332","391","-331","-1118","410","-396","-1183","477","-523","-1363","631","346","136",""
"MA200-0416","28332","85","1","1.10","1.4","2023-05-26T10:44:31","120","2023/05/26","10:44:31","-15.795730769634247","35.00288849975914","0.0","13","30","64","29","-3970","-3658","-25812","1","150","149.90","112.53","37.37","53.50","18.5","22.50","90608","52.38","DUALSPOT-UV-BLUE-GREEN-RED-IR","409390","520871","910423","45.036324","24.815494","-0.027519","421630","685265","763216","39.985548","20.821694","0.034905","498903","714004","815400","37.245568","18.379502","0.035276","526918","761369","863815","33.215118","15.154829","0.042073","491286","730148","952026","27.836006","11.821905","0.011406","429","322","191","412","-284","-1042","472","-529","-1506","560","-511","-1411","1134","1438","1662",""
"MA200-0416","28333","85","1","1.10","1.4","2023-05-26T10:45:01","120","2023/05/26","10:45:01","-15.79575628042221","35.00288016651757","0.0","13","30","64","29","-3968","-3548","-26075","1","150","150.49","112.71","37.78","53.67","18.6","22.68","90600","52.50","DUALSPOT-UV-BLUE-GREEN-RED-IR","406342","517047","903740","45.050684","24.820008","-0.003580","421734","685451","763434","39.994820","20.821562","0.046295","498761","713857","815246","37.255016","18.377898","0.040446","526822","761305","863668","33.218716","15.150797","0.034412","490591","729176","950785","27.845734","11.824125","-0.044719","748","701","644","609","-25","-715","696","-352","-1373","320","-1070","-2237","1205","820","536",""
"MA200-0416","28334","85","1","1.10","1.4","2023-05-26T10:45:31","120","2023/05/26","10:45:31","-15.79575264453888","35.00293433316983","0.0","13","30","64","29","-4020","-3579","-25816","1","150","149.66","113.00","36.66","53.83","18.6","22.82","90596","52.63","DUALSPOT-UV-BLUE-GREEN-RED-IR","408889","520362","909672","45.069076","24.828678","0.011143","421272","684762","762647","40.002188","20.821548","0.047783","497909","712697","813900","37.261488","18.375336","0.034777","526072","760251","862443","33.223858","15.146725","0.035752","492293","731778","954205","27.859902","11.828369","-0.005513","956","1389","1920","483","-2","-530","475","-579","-1606","456","-1114","-2430","1751","1617","1518",""
"MA200-0416","28335","85","1","1.10","1.4","2023-05-26T10:46:01","120","2023/05/26","10:46:01","-15.795743823051453","35.00296433316544","0.1","13","30","64","29","-3980","-3668","-25756","1","150","149.85","112.53","37.33","54.01","18.6","22.93","90604","52.75","DUALSPOT-UV-BLUE-GREEN-RED-IR","406474","517324","904385","45.085672","24.833480","-0.008795","421802","685694","763677","40.010740","20.820114","0.036676","497836","712654","813799","37.266028","18.370164","0.030301","526806","761443","863722","33.225872","15.138736","0.031417","491993","731415","953763","27.877282","11.832003","-0.064461","866","755","620","563","-284","-1204","335","-1150","-2594","179","-2147","-4094","2157","1359","771",""
"MA200-0416","28336","85","1","1.10","1.4","2023-05-26T10:46:31","120","2023/05/26","10:46:31","-15.795746266841888","35.00296816625632","0.1","13","30","64","29","-3933","-3579","-25770","1","150","149.94","112.88","37.06","54.21","18.6","23.11","90604","52.94","DUALSPOT-UV-BLUE-GREEN-RED-IR","408940","520557","910117","45.099800","24.837196","-0.017642","421288","684943","762800","40.018248","20.816516","0.031046","499730","715469","816989","37.272496","18.365018","0.031495","527308","762236","864541","33.227726","15.130026","0.031206","491797","731248","953561","27.897064","11.834944","-0.686191","735","588","409","493","-719","-2034","475","-1152","-2734","164","-2357","-4466","2448","1108","121",""
"MA200-0416","28337","85","1","1.10","1.4","2023-05-26T10:47:01","120","2023/05/26","10:47:01","-15.795756459236145","35.002932499628514","0.0","13","30","64","29","-3932","-3580","-25800","1","150","150.43","112.93","37.50","54.41","18.6","23.24","90608","53.06","DUALSPOT-UV-BLUE-GREEN-RED-IR","408416","519943","909058","45.119196","24.843442","-0.001600","420847","684280","762023","40.023328","20.814246","0.031409","498694","714060","815328","37.279188","18.360690","0.032402","525374","759528","861411","33.228524","15.121077","0.030573","492799","732856","955751","27.914878","11.839199","-0.034045","1008","978","940","333","-448","-1296","491","-958","-2366","70","-2394","-4453","2203","1585","1129",""
"MA200-0416","28338","85","1","1.10","1.4","2023-05-26T10:47:31","120","2023/05/26","10:47:31","-15.79574465751648","35.00292966631241","0.0","13","30","64","28","-3975","-3625","-25812","1","150","149.09","115.75","33.33","54.61","18.5","23.34","90608","53.25","DUALSPOT-UV-BLUE-GREEN-RED-IR","406260","517247","904449","45.139616","24.852776","0.012548","421689","685721","763656","40.029968","20.812388","0.033024","498898","714432","815719","37.282576","18.355232","0.029061","526482","761179","863199","33.229858","15.113964","0.030959","490198","729125","950882","27.934746","11.842171","-0.180196","1036","1644","2390","425","-413","-1321","243","-1359","-2913","115","-2140","-4023","2397","1245","397",""
"MA200-0416","28339","85","1","1.10","1.4","2023-05-26T10:48:01","120","2023/05/26","10:48:01","-15.795750975608826","35.00294749974273","0.0","13","30","64","29","-3900","-3632","-26019","1","150","149.73","112.59","37.14","54.79","18.4","23.38","90612","53.38","DUALSPOT-UV-BLUE-GREEN-RED-IR","406674","517839","905524","45.161932","24.860688","0.003152","421588","685604","763485","40.037928","20.810584","0.034913","498861","714437","815661","37.289300","18.349800","0.031448","527271","762429","864536","33.233554","15.104083","0.032008","492318","732387","955174","27.954232","11.844763","1.041222","1164","1251","1357","524","-360","-1317","495","-1213","-2870","329","-2668","-5166","2417","974","-86",""
"MA200-0416","28340","85","1","1.10","1.4","2023-05-26T10:48:31","120","2023/05/26","10:48:31","-15.79575914144516","35.00295816641301","0.0","13","30","64","29","-3941","-3566","-26125","1","150","150.21","112.29","37.92","54.96","18.2","23.37","90616","53.56","DUALSPOT-UV-BLUE-GREEN-RED-IR","405573","516519","903337","45.189484","24.872016","0.007222","421047","684752","762565","40.048536","20.810848","0.051903","500207","716504","818031","37.298460","18.346180","0.035008","526462","761354","863261","33.236846","15.095767","0.032157","491241","730953","953312","27.975892","11.845779","0.108203","1441","1754","2139","700","52","-649","677","-792","-2215","294","-2200","-4275","2694","374","-1329",""
"MA200-0416","28341","85","1","1.10","1.4","2023-05-26T10:49:01","120","2023/05/26","10:49:01","-15.795755624771118","35.002946166554466","0.1","13","30","64","29","-3970","-3587","-25829","1","150","150.09","112.45","37.64","55.03","18.0","23.24","90616","53.75","DUALSPOT-UV-BLUE-GREEN-RED-IR","408129","519878","909410","45.226272","24.892204","0.012981","422952","688012","766279","40.070384","20.819624","0.007326","499114","714986","816347","37.314128","18.352564","0.008021","521732","754603","855596","33.250340","15.094254","0.050893","490276","729673","951717","28.004714","11.851078","-0.127809","1921","3149","4653","1440","1728","2039","1156","1407","1650","1203","-403","-1739","3580","1966","781",""
"MA200-0416","28342","85","1","1.10","1.4","2023-05-26T10:49:31","120","2023/05/26","10:49:31","-15.795765101909637","35.002934666583315","0.0","13","30","64","29","-3879","-3554","-25525","1","150","149.67","112.21","37.45","55.00","17.7","22.94","90616","53.88","DUALSPOT-UV-BLUE-GREEN-RED-IR","407139","518670","907545","45.260004","24.912472","0.014147","422355","687053","765303","40.088836","20.830232","0.014984","497653","712986","814100","37.332916","18.359586","0.005119","527377","762868","864980","33.263066","15.095037","0.090947","491198","731219","953721","28.028564","11.854824","-0.396595","1765","3178","4908","1218","2099","3052","1390","1556","1718","1137","209","-561","2969","1397","245",""
"MA200-0416","28343","85","1","1.10","1.4","2023-05-26T10:50:01","120","2023/05/26","10:50:01","-15.795766055583954","35.00293166632764","0.0","13","30","64","29","-3845","-3604","-25666","1","150","149.80","112.33","37.47","54.90","17.5","22.66","90612","53.88","DUALSPOT-UV-BLUE-GREEN-RED-IR","408555","520519","910894","45.285460","24.929416","0.015213","421126","685099","763212","40.107104","20.841308","0.015705","498628","714431","815843","37.350504","18.368788","0.014132","525570","760310","862122","33.275910","15.097309","-0.183799","489884","729315","951262","28.044700","11.856163","0.153960","1331","2656","4279","1205","2191","3257","1300","2038","2753","1147","608","161","2006","499","-604",""
"MA200-0416","28344","85","1","1.10","1.4","2023-05-26T10:50:31","120","2023/05/26","10:50:31","-15.795751333236694","35.002928166417405","0.0","13","30","64","29","-3780","-3671","-25980","1","150","149.90","112.41","37.48","54.78","17.3","22.40","90616","53.94","DUALSPOT-UV-BLUE-GREEN-RED-IR","406382","517766","906175","45.307260","24.944870","0.015775","421655","686003","764314","40.127012","20.852662","0.014869","497207","712397","813601","37.365548","18.379762","0.018747","527488","763179","865419","33.291794","15.102620","0.000147","491137","731246","953788","28.051888","11.856413","0.100287","1138","2421","3992","1312","2245","3254","1110","2430","3708","1417","1421","1424","893","93","-492",""
"MA200-0416","28345","85","1","1.10","1.4","2023-05-26T10:51:01","120","2023/05/26","10:51:01","-15.795748770236969","35.002932832809165","0.1","13","30","64","29","-3876","-3664","-25932","1","150","149.61","112.48","37.13","54.63","17.1","22.11","90616","53.94","DUALSPOT-UV-BLUE-GREEN-RED-IR","407262","518931","908423","45.328764","24.962296","0.016855","422062","686716","765211","40.145980","20.868028","0.018726","497655","713084","814529","37.387080","18.396806","0.019619","528218","764267","866742","33.309166","15.115235","0.020632","491795","732233","955067","28.052918","11.856634","-0.054545","1123","2756","4759","1250","3068","5036","1589","3811","5964","1549","3409","4954","127","83","50",""
"MA200-0416","28346","85","1","1.10","1.4","2023-05-26T10:51:31","120","2023/05/26","10:51:31","-15.795769095420837","35.00292283296585","0.0","13","30","64","28","-3892","-3523","-25975","1","150","150.68","112.71","37.97","54.45","17.0","21.80","90616","53.88","DUALSPOT-UV-BLUE-GREEN-RED-IR","407353","519029","908712","45.346108","24.977756","0.017326","422488","687428","766136","40.167344","20.886204","0.018936","497394","712720","814269","37.404524","18.413804","0.021078","524123","758366","860207","33.328232","15.130635","0.021575","491960","732422","955354","28.052956","11.859196","0.035543","903","2391","4216","1405","3548","5869","1284","3716","6073","1697","4068","6040","4","942","1628",""
"MA200-0416","28347","85","1","1.10","1.4","2023-05-26T10:52:01","120","2023/05/26","10:52:01","-15.795767962932587","35.002947999862954","0.0","13","30","64","29","-3771","-3455","-25700","1","150","149.94","112.67","37.27","54.27","16.8","21.52","90612","53.81","DUALSPOT-UV-BLUE-GREEN-RED-IR","406816","518401","907712","45.362868","24.991260","0.016792","422070","686785","765571","40.189736","20.904646","0.018820","497492","712900","814616","37.428592","18.432844","0.019579","523551","757573","859437","33.351594","15.148253","0.021020","492078","732605","955596","28.050034","11.860189","0.049832","873","2128","3667","1473","3668","6047","1773","4241","6637","2080","4742","6958","-362","372","910",""
"MA200-0416","28348","85","1","1.10","1.4","2023-05-26T10:52:31","120","2023/05/26","10:52:31","-15.79576462507248","35.002938999794424","0.0","13","30","64","29","-3823","-3552","-25484","1","150","149.49","111.83","37.65","54.07","16.7","21.28","90612","53.75","DUALSPOT-UV-BLUE-GREEN-RED-IR","405727","516990","905364","45.375876","25.005002","0.018213","421188","685364","764104","40.210680","20.921122","0.018300","496923","712094","813812","37.449776","18.452024","0.020536","526782","762262","864951","33.370030","15.164458","0.022384","492016","732412","955344","28.043632","11.863831","0.045397","683","2143","3935","1388","3243","5256","1572","4229","6809","1653","4317","6536","-799","1350","2927",""
"MA200-0416","28349","85","1","1.10","1.4","2023-05-26T10:53:01","120","2023/05/26","10:53:01","-15.795760989189148","35.00293416646309","0.0","13","30","64","29","-3892","-3571","-25588","1","150","149.90","112.57","37.33","53.87","16.7","21.06","90612","53.63","DUALSPOT-UV-BLUE-GREEN-RED-IR","407175","518824","908750","45.394464","25.022156","0.017601","419831","683180","761829","40.233636","20.940820","0.019091","496185","711013","812788","37.471936","18.472888","0.020920","525183","759955","862493","33.393478","15.186330","0.023022","491495","731598","954353","28.040230","11.867329","0.041501","969","2699","4824","1511","3912","6518","1634","4640","7562","2089","5878","9039","-422","1309","2579",""
"MA200-0416","28350","85","1","1.10","1.4","2023-05-26T10:53:31","120","2023/05/26","10:53:31","-15.795749306678772","35.00293333339505","0.0","13","30","64","29","-3868","-3471","-25675","1","150","149.70","112.41","37.29","53.65","16.6","20.84","90616","53.50","DUALSPOT-UV-BLUE-GREEN-RED-IR","406075","517436","906419","45.408692","25.037610","0.018394","421542","685986","765072","40.255920","20.960058","0.019122","497868","713475","815805","37.494952","18.492894","0.020316","527076","762716","865820","33.417194","15.207183","0.022498","491161","731026","953644","28.035308","11.871586","0.042453","743","2434","4512","1469","3824","6383","1700","4454","7135","2116","5611","8529","-611","1594","3215",""
"MA200-0416","28351","85","1","1.10","1.4","2023-05-26T10:54:01","120","2023/05/26","10:54:01","-15.795750498771667","35.002938999794424","0.0","13","30","64","28","-3823","-3532","-25556","1","150","150.49","112.37","38.12","53.44","16.6","20.66","90612","53.38","DUALSPOT-UV-BLUE-GREEN-RED-IR","407124","518802","908971","45.424828","25.053948","0.017956","419796","683177","762083","40.278480","20.979524","0.018945","496933","712171","814453","37.517504","18.512958","0.020312","525741","760816","863826","33.439858","15.229459","0.023234","490521","730021","952380","28.030190","11.874947","0.044394","843","2517","4575","1488","3785","6281","1666","4369","7003","2023","5862","9072","-636","1231","2604",""
"MA200-0416","28352","85","1","1.10","1.4","2023-05-26T10:54:31","120","2023/05/26","10:54:31","-15.795742690563202","35.00294983293861","0.0","13","30","64","28","-3920","-3576","-25932","1","150","150.35","112.59","37.77","53.23","16.6","20.44","90604","53.19","DUALSPOT-UV-BLUE-GREEN-RED-IR","405548","516805","905643","45.444368","25.071824","0.017471","420852","684917","764260","40.306168","21.003264","0.018971","495851","710573","812811","37.541988","18.537542","0.021242","527611","763493","867102","33.465260","15.252712","0.022728","489776","728854","950877","28.027412","11.879444","0.039594","1019","2780","4946","1823","4659","7746","1805","5404","8914","2263","6177","9454","-344","1663","3140",""
"MA200-0416","28353","85","1","1.10","1.4","2023-05-26T10:55:01","120","2023/05/26","10:55:01","-15.795750677585602","35.00296066654846","0.0","14","30","64","29","-3875","-3570","-25975","1","150","149.53","112.42","37.11","52.98","16.5","20.18","90600","53.00","DUALSPOT-UV-BLUE-GREEN-RED-IR","406597","518105","908108","45.464364","25.090508","0.017670","419378","682524","761713","40.330484","21.023842","0.018985","497057","712348","815044","37.568956","18.561516","0.020495","524252","758693","861800","33.489106","15.277166","0.023734","490953","730539","953120","28.022254","11.884031","0.042276","1044","2957","5313","1603","4111","6842","1991","5364","8657","2128","6611","10373","-640","1726","3470",""
"MA200-0416","28354","85","1","1.10","1.4","2023-05-26T10:55:31","120","2023/05/26","10:55:31","-15.795746505260468","35.002968332963064","0.0","14","30","64","28","-3828","-3492","-25791","1","150","150.56","113.00","37.56","52.70","16.4","19.91","90596","52.81","DUALSPOT-UV-BLUE-GREEN-RED-IR","406072","517427","907087","45.483680","25.110244","0.018081","418858","681721","761003","40.355840","21.046608","0.019340","497582","713122","816139","37.591832","18.585770","0.021612","524598","759182","862600","33.515342","15.301003","0.022715","489433","728187","950112","28.017204","11.887577","0.043793","1004","3086","5653","1663","4493","7578","1680","5361","8960","2329","6367","9759","-624","1318","2750",""
"MA200-0416","28355","85","1","1.10","1.4","2023-05-26T10:56:01","120","2023/05/26","10:56:01","-15.795752763748169","35.002943499945104","0.0","14","30","64","28","-3852","-3564","-25672","1","150","149.57","113.25","36.32","52.46","16.4","19.70","90592","52.63","DUALSPOT-UV-BLUE-GREEN-RED-IR","404991","516058","904820","45.498724","25.127064","0.018624","420663","684682","764472","40.381008","21.067634","0.019078","496520","711579","814521","37.613140","18.605784","0.021067","526463","761889","865858","33.538460","15.323746","0.023614","491146","730698","953377","28.013000","11.891687","0.041612","780","2720","5112","1647","4291","7176","1562","4575","7524","2047","6282","9845","-518","1580","3129",""
"MA200-0416","28356","85","1","1.10","1.4","2023-05-26T10:56:31","120","2023/05/26","10:56:31","-15.795760810375214","35.00294533325359","0.0","14","30","64","28","-3908","-3604","-25629","1","150","150.36","112.73","37.63","52.22","16.4","19.50","90596","52.44","DUALSPOT-UV-BLUE-GREEN-RED-IR","404992","516053","904984","45.513380","25.141846","0.017989","420615","684612","764557","40.402720","21.087680","0.019478","497729","713358","816763","37.638448","18.629258","0.020693","523727","757953","861594","33.562576","15.347576","0.023335","490246","729289","951597","28.004890","11.895975","0.045934","763","2307","4212","1427","3949","6702","1863","5179","8428","2146","6353","9898","-1005","1591","3509",""
"MA200-0416","28357","85","1","1.10","1.4","2023-05-26T10:57:01","120","2023/05/26","10:57:01","-15.795749068260193","35.00291816634126","0.0","14","30","64","28","-3885","-3577","-25634","1","150","149.87","112.92","36.95","51.98","16.4","19.30","90612","52.25","DUALSPOT-UV-BLUE-GREEN-RED-IR","405732","516995","906779","45.529312","25.159828","0.018572","421266","685703","765920","40.428860","21.109730","0.018985","495993","710809","814031","37.660832","18.651996","0.021416","524116","758473","862410","33.586604","15.372596","0.023847","491011","730346","953036","28.000596","11.902199","0.039944","828","2858","5365","1716","4423","7382","1645","5109","8508","2134","6793","10725","-531","2353","4485",""
"MA200-0416","28358","85","1","1.10","1.4","2023-05-26T10:57:31","120","2023/05/26","10:57:31","-15.795754313468933","35.00291799986735","0.0","14","30","64","28","-3887","-3550","-25658","1","150","149.87","113.34","36.53","51.75","16.4","19.14","90616","52.00","DUALSPOT-UV-BLUE-GREEN-RED-IR","405932","517214","907311","45.546936","25.178550","0.018376","418858","681783","761693","40.451804","21.130224","0.019470","496580","711672","815195","37.685128","18.675442","0.021177","524087","758443","862611","33.610964","15.397335","0.023764","491822","731459","954568","27.994140","11.907688","0.042422","913","3010","5602","1500","4158","7065","1779","5327","8813","2156","6794","10714","-795","2099","4241",""
"MA200-0416","28359","85","1","1.10","1.4","2023-05-26T10:58:01","120","2023/05/26","10:58:01","-15.795747637748718","35.00290733296424","0.0","14","30","64","28","-3871","-3607","-25732","1","150","149.59","112.96","36.63","51.52","16.5","18.99","90608","51.75","DUALSPOT-UV-BLUE-GREEN-RED-IR","405969","517291","907630","45.559740","25.193260","0.018668","418759","681663","761734","40.476844","21.152240","0.019317","497577","713137","817049","37.707440","18.697266","0.021215","524937","759660","864199","33.633452","15.421824","0.024180","490729","729734","952357","27.987816","11.913057","0.042472","665","2358","4452","1643","4455","7534","1639","4946","8198","1997","6707","10695","-782","2047","4144",""
"MA200-0416","28360","85","1","1.10","1.4","2023-05-26T10:58:31","120","2023/05/26","10:58:31","-15.795752942562103","35.00290733296424","0.0","14","30","64","28","-3920","-3545","-25750","1","150","149.66","113.00","36.66","51.30","16.5","18.83","90600","51.56","DUALSPOT-UV-BLUE-GREEN-RED-IR","406131","517514","908317","45.588968","25.220542","0.017719","419172","682377","762794","40.510252","21.181126","0.019188","495407","710052","813749","37.739044","18.725198","0.020507","525426","760419","865334","33.665804","15.451593","0.022945","491260","730494","953438","27.992798","11.922533","0.031952","1519","4371","7903","2191","5841","9840","2322","6326","10270","2872","8147","12622","615","3611","5833",""
"MA200-0416","28361","85","1","1.10","1.4","2023-05-26T10:59:01","120","2023/05/26","10:59:01","-15.795748949050903","35.00293816626072","0.0","15","30","64","28","-3912","-3655","-26063","1","150","149.46","112.50","36.96","51.07","16.5","18.69","90596","51.38","DUALSPOT-UV-BLUE-GREEN-RED-IR","404847","516317","907750","45.725488","25.309540","0.015045","417869","680820","762332","40.645472","21.269468","0.016599","495237","710343","815345","37.863216","18.806340","0.017503","524624","759822","865823","33.781908","15.524325","0.018548","489292","728098","951164","28.069190","11.964289","0.019108","7127","14143","22840","8910","17719","27388","9163","18226","27169","10353","19742","27726","9485","15781","20459",""
"MA200-0416","28362","85","1","1.10","1.4","2023-05-26T10:59:31","120","2023/05/26","10:59:31","-15.795756101608276","35.0029308332596","0.0","15","30","64","28","-3920","-3454","-25791","1","150","149.66","112.50","37.16","50.84","16.6","18.62","90592","51.19","DUALSPOT-UV-BLUE-GREEN-RED-IR","403017","514848","909092","46.433036","25.814278","0.015574","416041","679116","763219","41.306096","21.710870","0.016540","493524","709239","816823","38.483968","19.206476","0.017024","521956","757375","865539","34.346644","15.871933","0.017941","488423","727979","952971","28.512130","12.211523","0.019180","36940","79785","133426","43531","88064","137404","45809","89404","132839","50362","93856","131222","55000","92948","121377",""
"MA200-0416","28363","85","1","1.10","1.4","2023-05-26T11:00:01","120","2023/05/26","11:00:01","-15.79574066400528","35.00294066639617","0.0","15","30","64","28","-3933","-3554","-25604","1","150","149.45","112.93","36.52","50.62","16.6","18.46","90588","50.94","DUALSPOT-UV-BLUE-GREEN-RED-IR","398709","510880","909099","46.762420","26.056618","0.015873","411734","674268","763371","41.633692","21.943232","0.017202","486923","701939","813742","38.776684","19.410454","0.018004","517797","753676","866259","34.606832","16.048031","0.019385","485519","725886","954257","28.713684","12.334368","0.021175","17131","38979","66472","21505","47171","75773","21520","46375","71286","23115","48380","70228","24932","46993","63606",""
"MA200-0416","28364","85","1","1.10","1.4","2023-05-26T11:00:31","120","2023/05/26","11:00:31","-15.79574465751648","35.00294483313337","0.1","15","30","64","27","-3928","-3532","-25736","1","150","146.45","113.13","33.33","50.41","16.7","18.36","90592","50.75","DUALSPOT-UV-BLUE-GREEN-RED-IR","395695","507683","906738","48.031624","26.970798","0.015973","409015","670786","761904","42.856408","22.784906","0.017279","484628","699797","813886","39.958616","20.197582","0.017975","514341","749874","864455","35.710308","16.749123","0.019193","481389","720711","949498","29.613984","12.857346","0.021342","65897","161119","283061","80125","187226","308806","86740","196089","307854","97862","211060","311052","111173","219217","302120",""
"MA200-0416","28365","85","1","1.10","1.4","2023-05-26T11:01:01","120","2023/05/26","11:01:01","-15.795753479003906","35.00296249985695","0.0","15","30","64","28","-3904","-3536","-25612","1","150","150.36","113.13","37.23","50.19","16.8","18.26","90588","50.50","DUALSPOT-UV-BLUE-GREEN-RED-IR","393877","506554","909618","48.803748","27.510010","0.014753","406781","668792","763468","43.604552","23.283322","0.015762","482595","698662","816301","40.670680","20.654420","0.016193","509111","744193","861385","36.366520","17.151322","0.017050","480414","720981","952685","30.143296","13.155401","0.018506","40088","85064","143170","49026","99240","156774","52257","101870","153065","58196","108379","153173","65362","111832","147818",""
"MA200-0416","28366","85","1","1.10","1.4","2023-05-26T11:01:31","120","2023/05/26","11:01:31","-15.795757591724396","35.00294716656208","0.1","15","30","64","28","-3896","-3432","-25624","1","150","149.53","112.54","36.98","49.95","16.9","18.13","90592","50.31","DUALSPOT-UV-BLUE-GREEN-RED-IR","376465","490724","909721","50.393144","28.630310","0.014409","389729","650008","764272","45.168588","24.348554","0.015485","461670","678020","813308","42.066212","21.568904","0.015953","490665","727526","861466","37.610224","17.927912","0.016814","464310","706548","949895","31.190896","13.738504","0.017749","82949","177932","302887","103023","213536","342779","102947","205301","313005","110870","210682","301597","130033","220263","291292",""
"MA200-0416","28367","85","1","1.10","1.4","2023-05-26T11:02:01","120","2023/05/26","11:02:01","-15.795763611793518","35.002963999984786","0.1","15","30","68","28","-3916","-3545","-25525","2","150","149.48","115.18","34.30","49.79","17.0","18.16","90592","50.31","DUALSPOT-UV-BLUE-GREEN-RED-IR","697731","699950","909886","0.000000","0.000000","0.000000","676572","881483","761187","0.000000","0.000000","0.000000","777073","896082","815152","0.000000","0.000000","0.000000","784047","924181","863966","0.000000","0.000000","0.000000","675168","840003","951132","0.000000","0.000000","0.000000","0","0","0","0","0","0","0","0","0","0","0","0","0","0","0","Tape advance"
"MA200-0416","28368","85","1","1.10","1.4","2023-05-26T11:02:31","120","2023/05/26","11:02:31","-15.795739591121674","35.002972999354824","0.0","14","30","68","28","-3907","-3560","-25656","2","150","149.32","114.34","34.97","49.59","17.1","18.06","90592","50.13","DUALSPOT-UV-BLUE-GREEN-RED-IR","539439","627463","909739","0.000000","0.000000","0.000000","540978","807172","765834","0.000000","0.000000","0.000000","628635","824903","816534","0.000000","0.000000","0.000000","650157","861955","865395","0.000000","0.000000","0.000000","587318","801064","953840","0.000000","0.000000","0.000000","","","","","","","","","","","","","","","","Tape advance"
"MA200-0416","28369","85","1","1.10","1.4","2023-05-26T11:03:01","120","2023/05/26","11:03:01","-15.795747637748718","35.00297383288853","0.1","14","30","64","28","-3928","-3504","-25888","2","150","149.47","113.33","36.14","49.39","17.2","17.96","90588","49.88","DUALSPOT-UV-BLUE-GREEN-RED-IR","464939","576603","903890","13.739288","7.374874","0.043376","472080","749640","761909","12.665062","6.501743","0.043915","554585","773182","813733","11.743702","5.774856","0.043946","582355","817773","864887","10.520729","4.888714","0.043783","538824","772466","955055","8.364074","3.526750","0.042781","712052","1198568","1762326","828442","1333660","1866620","860294","1326611","1777773","931342","1357122","1726708","1030962","1363202","1605428",""
"MA200-0416","28370","85","1","1.10","1.4","2023-05-26T11:03:31","120","2023/05/26","11:03:31","-15.795762777328491","35.002948333043605","0.1","14","30","64","28","-3960","-3571","-25952","2","150","149.70","114.52","35.18","49.18","17.2","17.87","90584","49.63","DUALSPOT-UV-BLUE-GREEN-RED-IR","461101","573079","901627","16.169830","8.839569","0.042032","468737","745994","760590","14.885780","7.769106","0.043137","551249","770423","813345","13.925247","6.961706","0.043561","578016","813729","863045","12.560112","5.935063","0.044554","533468","766538","949668","10.004482","4.288992","0.047274","124660","244554","389133","143756","267076","401703","158155","280103","402018","178665","298414","405692","200103","302689","379671",""
"MA200-0416","28371","85","1","1.10","1.4","2023-05-26T11:04:01","120","2023/05/26","11:04:01","-15.795776605606079","35.002941332990304","0.0","14","30","64","28","-3980","-3592","-25268","2","150","149.51","114.12","35.38","48.99","17.3","17.82","90580","49.38","DUALSPOT-UV-BLUE-GREEN-RED-IR","445066","561454","904353","19.738656","11.027470","0.034901","453017","731797","761744","18.195290","9.698024","0.035902","535089","758940","816211","17.009118","8.681904","0.036456","559089","798410","860297","15.343418","7.398340","0.037362","522581","760514","953025","12.241737","5.345213","0.039313","183680","363183","590415","214984","404127","619998","224350","403618","590521","244688","414897","573393","273860","416994","527931",""
"MA200-0416","28372","85","1","1.10","1.4","2023-05-26T11:04:31","120","2023/05/26","11:04:31","-15.795760691165924","35.00294033321552","0.0","14","30","64","28","-3964","-3639","-24984","2","150","150.56","114.04","36.52","48.80","17.5","17.77","90576","49.19","DUALSPOT-UV-BLUE-GREEN-RED-IR","441675","558717","904285","20.675782","11.615257","0.033195","449993","728937","761970","19.064632","10.216708","0.034115","532390","757247","817568","17.836144","9.153832","0.034558","556006","796215","860810","16.105419","7.809256","0.035422","520799","759855","954444","12.852524","5.638250","0.036593","48265","94547","153878","56511","105302","161642","60207","107299","156949","67036","112901","156073","74818","112106","141248",""
"MA200-0416","28373","85","1","1.10","1.4","2023-05-26T11:05:01","120","2023/05/26","11:05:01","-15.795735478401184","35.002952499780804","0.1","14","30","64","28","-3936","-3676","-25308","2","150","149.90","114.32","35.58","48.59","17.6","17.71","90580","49.00","DUALSPOT-UV-BLUE-GREEN-RED-IR","440346","557804","905165","21.068718","11.874580","0.034162","448556","727620","762440","19.434456","10.446960","0.035192","528791","753113","814679","18.187024","9.365769","0.036282","555164","795999","862041","16.434834","7.997478","0.037699","517911","756451","951252","13.103710","5.766124","0.040580","20188","42814","72037","23981","47980","75875","25481","49459","74917","28909","53080","75991","30694","50212","65550",""
"MA200-0416","28374","85","1","1.10","1.4","2023-05-26T11:05:31","120","2023/05/26","11:05:31","-15.795743525028229","35.00295816641301","0.1","14","30","64","28","-4023","-3412","-26391","2","150","149.90","114.36","35.54","48.40","17.6","17.61","90576","48.75","DUALSPOT-UV-BLUE-GREEN-RED-IR","438434","555776","903185","21.385360","12.079552","0.033360","446851","725388","761027","19.723896","10.626541","0.034660","527677","752154","814727","18.461434","9.529208","0.035455","552540","792950","859743","16.686775","8.141725","0.037273","517116","755864","951259","13.295166","5.861763","0.039170","16262","33878","56745","18762","37463","59306","19921","38184","57667","22102","40725","58468","23387","37596","48801",""
"MA200-0416","28375","85","1","1.10","1.4","2023-05-26T11:06:01","120","2023/05/26","11:06:01","-15.795760452747345","35.00294549996033","0.0","14","30","64","28","-4152","-3664","-25436","2","150","150.35","114.21","36.14","48.20","17.7","17.52","90564","48.56","DUALSPOT-UV-BLUE-GREEN-RED-IR","437429","555844","906316","21.603524","12.212578","0.031510","446319","726219","764028","19.923664","10.743920","0.032639","526627","752289","816846","18.638690","9.631345","0.033770","552500","794501","863253","16.841950","8.230276","0.036281","516966","756919","953866","13.400642","5.911899","0.035316","11219","21618","35142","12966","24076","37078","12885","23462","34771","13631","24580","35045","12901","19378","24492",""
"MA200-0416","28376","85","1","1.10","1.4","2023-05-26T11:06:31","120","2023/05/26","11:06:31","-15.795749962329865","35.002959333127365","0.0","14","30","64","28","-3976","-3520","-25836","2","150","149.43","113.47","35.96","47.98","17.8","17.41","90572","48.38","DUALSPOT-UV-BLUE-GREEN-RED-IR","421542","545128","906930","25.070930","14.069710","0.024382","432630","715580","764485","22.868976","12.177154","0.023345","509940","740201","814620","21.373104","10.892161","0.022517","537441","784789","862567","19.330940","9.307707","0.021402","504712","748690","951325","15.362778","6.682100","0.019326","179485","303335","461729","192425","295463","412815","200070","291089","385679","220071","300597","375375","241563","299199","343566",""
"MA200-0416","28377","85","1","1.10","1.4","2023-05-26T11:07:01","120","2023/05/26","11:07:01","-15.795749843120575","35.00297666643746","0.0","14","30","64","27","-3992","-3500","-25716","2","150","149.72","113.42","36.30","47.79","17.9","17.36","90568","48.19","DUALSPOT-UV-BLUE-GREEN-RED-IR","413431","539545","907598","27.482704","15.392467","0.022512","425492","709753","764413","24.848762","13.145773","0.021286","502949","736262","816168","23.240142","11.753717","0.020313","530730","781444","864308","21.057816","10.052802","0.018990","499826","746655","953049","16.736176","7.219572","0.016825","124897","214052","327558","129403","197834","274701","136667","197069","258875","152755","205953","254548","169158","206858","235459",""
"MA200-0416","28378","85","1","1.10","1.4","2023-05-26T11:07:31","120","2023/05/26","11:07:31","-15.795751333236694","35.002975333016366","0.0","14","30","64","28","-3952","-3468","-25856","2","150","150.23","113.21","37.02","47.58","18.0","17.29","90568","48.00","DUALSPOT-UV-BLUE-GREEN-RED-IR","413134","539220","907865","27.863892","15.628708","0.024078","425426","709796","764990","25.173680","13.327985","0.023956","500620","733068","813260","23.568406","11.926691","0.023469","530729","781834","865432","21.386222","10.214058","0.022904","497708","743876","950048","17.000428","7.334196","0.021455","19777","37482","60097","21277","36488","53602","24073","38792","53870","29104","43701","57047","32608","43253","51330",""
"MA200-0416","28379","85","1","1.10","1.4","2023-05-26T11:08:01","120","2023/05/26","11:08:01","-15.79576575756073","35.00295816641301","0.1","14","30","64","27","-3983","-3508","-25704","2","150","149.59","113.67","35.92","47.38","18.1","17.18","90572","47.75","DUALSPOT-UV-BLUE-GREEN-RED-IR","413164","539403","908837","27.751252","15.590389","0.005354","422963","705926","761343","25.098584","13.314827","-0.742351","500820","733435","814058","23.498912","11.917764","0.250921","530534","781573","865489","21.328258","10.211802","0.115605","500443","748035","955526","16.949280","7.325607","-0.278844","-5820","-6265","-6836","-4897","-2715","-249","-5075","-2063","1036","-5116","-630","3490","-6285","-3340","-1097",""
"MA200-0416","28380","85","1","1.10","1.4","2023-05-26T11:08:31","120","2023/05/26","11:08:31","-15.795760810375214","35.00295899971388","0.1","14","30","64","28","-3966","-3425","-25754","2","150","150.17","113.24","36.93","47.19","18.2","17.13","90568","47.56","DUALSPOT-UV-BLUE-GREEN-RED-IR","411037","537830","908365","28.417182","15.937206","0.020272","423894","708841","765714","25.622670","13.552076","0.017626","499974","733743","815642","23.987178","12.129141","0.016608","529258","781317","866444","21.776504","10.395747","0.015186","497907","745427","953106","17.278550","7.448938","0.011976","34540","55154","81479","34309","47620","62565","35797","47515","59501","39712","49967","59334","40618","46648","51217",""
"MA200-0416","28381","85","1","1.10","1.4","2023-05-26T11:09:01","120","2023/05/26","11:09:01","-15.795749306678772","35.00296816625632","0.1","14","30","64","27","-3992","-3523","-25775","2","150","150.03","113.68","36.34","46.97","18.3","17.02","90568","47.38","DUALSPOT-UV-BLUE-GREEN-RED-IR","411434","538021","908392","28.321434","15.903671","0.006317","421849","705062","761526","25.556488","13.539751","-0.309847","500798","734606","816602","23.933296","12.123682","0.150485","526095","776300","860907","21.730998","10.396845","0.089349","496383","742866","949802","17.232888","7.441267","-0.293836","-4946","-5419","-6024","-4315","-2513","-483","-3935","-1246","1512","-4015","303","4264","-5610","-2948","-925",""
"MA200-0416","28382","85","1","1.10","1.4","2023-05-26T11:09:31","120","2023/05/26","11:09:31","-15.79575264453888","35.00296933273785","0.1","14","30","64","27","-4000","-3507","-25619","2","150","149.61","112.94","36.67","46.77","18.4","16.96","90560","47.19","DUALSPOT-UV-BLUE-GREEN-RED-IR","408139","535761","907440","28.866128","16.152306","0.016614","418818","702489","760491","26.012238","13.721510","0.012524","495883","729896","813036","24.355122","12.284487","0.010674","522166","773002","858824","22.122960","10.541950","0.009549","494502","741948","949778","17.521888","7.536941","0.001899","28328","39826","54434","29915","36746","44371","31009","36408","41903","34819","39701","44145","35747","36448","36978",""
"MA200-0416","28383","85","1","1.10","1.4","2023-05-26T11:10:01","120","2023/05/26","11:10:01","-15.795754313468933","35.002966499654576","0.0","14","30","64","27","-3992","-3516","-25616","2","150","150.01","113.59","36.42","46.57","18.4","16.85","90560","47.00","DUALSPOT-UV-BLUE-GREEN-RED-IR","408243","536785","910572","29.140214","16.284576","0.018317","418657","703315","762267","26.244792","13.821479","0.015945","496066","731274","815399","24.583684","12.379153","0.015056","523196","775694","862657","22.345222","10.630771","0.014304","495382","744108","953162","17.689262","7.596594","0.009243","14173","21331","30398","15178","20348","26100","16706","21579","26522","19632","24467","28855","20584","22880","24608",""
"MA200-0416","28384","85","1","1.10","1.4","2023-05-26T11:10:31","120","2023/05/26","11:10:31","-15.795743644237518","35.00297999987379","0.1","14","30","64","27","-4044","-3568","-25736","2","150","150.32","113.33","36.99","46.37","18.5","16.78","90560","46.75","DUALSPOT-UV-BLUE-GREEN-RED-IR","406196","534577","907696","29.525460","16.470024","0.017541","417303","701623","760961","26.567284","13.954280","0.013379","495396","730938","815603","24.896934","12.504568","0.012572","521410","773719","861038","22.642518","10.745777","0.011517","494792","743746","953108","17.904998","7.672172","0.006361","19965","29449","41413","21094","26617","32727","22947","28151","33402","26317","31195","35601","26591","28545","30009",""
"MA200-0416","28385","85","1","1.10","1.4","2023-05-26T11:11:01","120","2023/05/26","11:11:01","-15.795762121677399","35.00296499975957","0.0","14","30","64","27","-4058","-3562","-25800","2","150","150.42","113.67","36.75","46.17","18.6","16.68","90560","46.56","DUALSPOT-UV-BLUE-GREEN-RED-IR","404653","532346","903738","29.458938","16.447395","0.003581","418840","703992","763539","26.521446","13.948566","0.164990","494393","729234","813707","24.855530","12.502573","0.096719","523114","776038","863670","22.609096","10.748655","0.075510","496421","745976","955921","17.866806","7.666641","-1.642215","-3437","-3616","-3842","-2989","-1152","885","-3024","-450","2153","-2949","785","4171","-4693","-2102","-154",""
"MA200-0416","28386","85","1","1.10","1.4","2023-05-26T11:11:31","120","2023/05/26","11:11:31","-15.79576563835144","35.002941332990304","0.1","14","30","64","27","-4012","-3458","-25641","2","150","150.25","113.71","36.54","45.96","18.7","16.57","90572","46.38","DUALSPOT-UV-BLUE-GREEN-RED-IR","405772","534322","907954","29.655418","16.547123","0.019131","417972","703158","763181","26.690934","14.025716","0.017516","493605","728676","813655","25.014336","12.573498","0.017568","521444","774149","862121","22.758164","10.815901","0.019111","493373","741823","950942","17.962426","7.704351","0.015852","10148","16031","23457","11049","15653","20750","11594","16115","20684","13152","18464","23275","11746","14417","16423",""
"MA200-0416","28387","85","1","1.10","1.4","2023-05-26T11:12:01","120","2023/05/26","11:12:01","-15.795761823654175","35.00294049968943","0.1","14","30","64","27","-4062","-3462","-25700","2","150","149.89","113.49","36.40","45.77","18.8","16.48","90572","46.19","DUALSPOT-UV-BLUE-GREEN-RED-IR","403978","531983","904088","29.664878","16.555584","0.027030","419225","705346","765693","26.711818","14.041491","0.027727","495036","730807","816189","25.032876","12.590351","0.031429","522865","776294","864679","22.777684","10.835339","0.035146","494954","744202","954070","17.962722","7.709146","0.055033","489","1365","2470","1364","3212","5260","1356","3843","6360","1725","5356","8651","36","1840","3195",""
"MA200-0416","28388","85","1","1.10","1.4","2023-05-26T11:12:31","120","2023/05/26","11:12:31","-15.795746803283691","35.002947999862954","0.0","14","30","64","27","-4023","-3496","-25744","2","150","149.80","113.81","35.98","45.57","18.8","16.38","90564","45.94","DUALSPOT-UV-BLUE-GREEN-RED-IR","404160","532114","904240","29.642930","16.548981","-0.004160","416846","701214","761240","26.701882","14.045942","0.046586","495491","731413","816896","25.027310","12.597515","0.044294","523014","776366","864875","22.773738","10.846640","0.046321","495680","745105","955192","17.941940","7.707664","0.211547","-1132","-1077","-1008","-647","917","2653","-406","1652","3739","-347","3150","6332","-2550","-575","912",""
"MA200-0416","28389","85","1","1.10","1.4","2023-05-26T11:13:01","120","2023/05/26","11:13:01","-15.795751929283142","35.002946166554466","0.0","14","30","64","27","-4000","-3425","-25541","2","150","149.73","113.66","36.07","45.38","19.0","16.32","90556","45.75","DUALSPOT-UV-BLUE-GREEN-RED-IR","403465","531059","902346","29.606118","16.537209","0.000574","416781","700928","760929","26.679684","14.045281","0.078509","493158","727760","812843","25.006092","12.600059","0.062495","522588","775598","864061","22.758938","10.852230","0.057729","493390","741471","950477","17.910758","7.702516","-0.297149","-1902","-1916","-1935","-1447","-135","1322","-1549","585","2754","-1306","1554","4162","-3832","-1993","-606",""
"MA200-0416","28390","85","1","1.10","1.4","2023-05-26T11:13:31","120","2023/05/26","11:13:31","-15.795757412910461","35.00294949952513","0.0","14","30","64","27","-4025","-3545","-25729","2","150","149.90","113.64","36.25","45.18","19.0","16.21","90552","45.56","DUALSPOT-UV-BLUE-GREEN-RED-IR","404740","532840","905637","29.651618","16.563530","0.021862","418479","703944","764390","26.726254","14.071271","0.022930","493851","728897","814339","25.045254","12.624972","0.026641","520063","771913","860183","22.796364","10.879007","0.030879","494722","743481","953154","17.923454","7.711408","0.037787","2351","4264","6685","3037","5314","7846","2860","5705","8597","3304","7410","11159","1560","3426","4835",""
"MA200-0416","28391","85","1","1.10","1.4","2023-05-26T11:14:01","120","2023/05/26","11:14:01","-15.795770645141602","35.002948166336864","0.1","14","30","64","27","-4039","-3432","-25532","2","150","149.45","113.56","35.88","44.98","19.1","16.14","0","0.00","DUALSPOT-UV-BLUE-GREEN-RED-IR","404704","532692","905294","29.622268","16.554794","-0.005108","418950","704629","765174","26.711448","14.073277","0.055973","494253","729382","814915","25.033386","12.629354","0.051776","521585","774035","862624","22.786216","10.886620","0.051922","495635","744755","954742","17.896720","7.708322","0.542708","-1518","-1430","-1318","-966","414","1951","-867","1013","2929","-896","2128","4895","-3288","-1201","377",""
"MA200-0416","28392","85","1","1.10","1.4","2023-05-26T11:14:31","120","2023/05/26","11:14:31","-15.795764088630676","35.00293866638094","0.0","14","30","64","27","-4164","-3560","-25496","2","150","149.61","113.81","35.79","44.80","19.2","16.08","0","0.00","DUALSPOT-UV-BLUE-GREEN-RED-IR","404826","532872","905715","29.632348","16.564358","0.027693","416454","700453","760739","26.723656","14.086004","0.031073","494465","729691","815375","25.047108","12.644219","0.033200","522170","774914","863755","22.797680","10.903347","0.038365","493844","741955","951152","17.887284","7.709593","0.092937","520","1569","2899","795","2636","4687","1000","3447","5942","1010","4688","8060","-1158","495","1748",""
"MA200-0416","28393","85","1","1.10","1.4","2023-05-26T11:15:01","120","2023/05/26","11:15:01","-15.795770943164825","35.002943666419014","0.0","14","30","64","27","-3855","-3320","-26075","2","150","150.29","113.52","36.77","44.59","19.4","16.04","90540","45.00","DUALSPOT-UV-BLUE-GREEN-RED-IR","405342","533502","906782","29.626632","16.567047","0.041147","417191","701609","762087","26.727790","14.095778","0.034803","495075","730506","816383","25.048938","12.655008","0.038805","523639","776980","866162","22.801052","10.915892","0.041781","495022","743633","953334","17.874306","7.709623","0.128487","-295","429","1349","270","1970","3868","133","2436","4786","298","3423","6293","-1596","11","1231",""
"MA200-0416","28394","85","1","1.10","1.4","2023-05-26T11:15:31","120","2023/05/26","11:15:31","-15.7957643866539","35.00295816641301","0.1","14","30","64","27","-4068","-3436","-25660","2","150","150.58","113.38","37.19","44.42","19.5","16.00","90536","44.81","DUALSPOT-UV-BLUE-GREEN-RED-IR","404572","532418","904960","29.613602","16.567204","0.058728","417370","701866","762386","26.725968","14.102564","0.038905","494475","729558","815380","25.045166","12.662951","0.042779","518277","768929","857247","22.799766","10.927267","0.044692","494678","742934","952458","17.857468","7.709862","0.123005","-675","24","913","-119","1352","2996","-276","1772","3868","-113","3068","5997","-2074","89","1733",""
"MA200-0416","28395","85","1","1.10","1.4","2023-05-26T11:16:01","120","2023/05/26","11:16:01","-15.79576963186264","35.00294666667469","0.0","14","30","64","27","-4020","-3355","-25624","2","150","150.17","113.76","36.41","44.25","19.6","15.94","90532","44.63","DUALSPOT-UV-BLUE-GREEN-RED-IR","406120","534417","908385","29.607132","16.570946","0.040059","419001","704568","765387","26.726944","14.110682","0.036721","493973","728762","814577","25.044724","12.671504","0.040252","522360","774936","864066","22.800712","10.939494","0.043286","494499","742585","951955","17.838402","7.706995","-0.787231","-334","603","1795","63","1653","3430","-32","1950","3980","83","3369","6399","-2341","-1099","-155",""
"MA200-0416","28396","85","1","1.10","1.4","2023-05-26T11:16:31","120","2023/05/26","11:16:31","-15.795770764350891","35.00294683338143","0.0","14","30","64","27","-4108","-3587","-25441","2","150","150.35","113.61","36.74","44.09","19.7","15.90","90536","44.44","DUALSPOT-UV-BLUE-GREEN-RED-IR","406724","535150","909700","29.605628","16.576046","0.035122","416860","700938","761511","26.731148","14.120500","0.034773","494370","729298","815275","25.047912","12.680792","0.037605","523008","775824","865169","22.805530","10.952681","0.040994","495458","743921","953685","17.828750","7.709192","0.084103","-77","815","1951","274","1981","3892","233","2098","4012","425","3601","6535","-1186","835","2376",""
"MA200-0416","28397","85","1","1.10","1.4","2023-05-26T11:17:01","120","2023/05/26","11:17:01","-15.79576575756073","35.00295833335258","0.0","14","30","64","27","-4020","-3476","-25691","2","150","149.76","113.01","36.76","43.92","19.8","15.85","90536","44.25","DUALSPOT-UV-BLUE-GREEN-RED-IR","407182","535698","910685","29.603806","16.582954","0.034996","417691","702295","763080","26.734898","14.129487","0.034826","494944","730084","816238","25.053570","12.693452","0.036825","520609","772178","861215","22.809864","10.966374","0.041376","494030","741705","950848","17.815376","7.709575","0.117260","-94","1103","2630","245","1812","3568","415","2859","5369","384","3737","6842","-1653","145","1518",""
"MA200-0416","28398","85","1","1.10","1.4","2023-05-26T11:17:31","120","2023/05/26","11:17:31","-15.7957643866539","35.00296516646631","0.0","14","30","64","27","-4144","-3428","-25644","2","150","150.49","113.17","37.32","43.73","19.9","15.76","90540","44.06","DUALSPOT-UV-BLUE-GREEN-RED-IR","403926","531392","903396","29.600296","16.585938","0.038518","418556","703715","764705","26.742032","14.140718","0.033243","493107","727297","813200","25.055988","12.705073","0.038512","521170","772939","862195","22.813958","10.978568","0.041174","494673","742570","951987","17.804176","7.709648","0.126520","-182","469","1299","467","2230","4209","177","2585","5061","362","3277","5981","-1382","27","1103",""
"MA200-0416","28399","85","1","1.10","1.4","2023-05-26T11:18:01","120","2023/05/26","11:18:01","-15.795747637748718","35.00296049984172","0.0","14","30","64","27","-4128","-3539","-25747","2","150","149.92","113.36","36.57","43.56","20.0","15.71","90552","43.88","DUALSPOT-UV-BLUE-GREEN-RED-IR","404287","531848","904234","29.601670","16.593304","0.032858","419284","704928","766076","26.749684","14.151897","0.032982","493834","728348","814453","25.062240","12.715365","0.035623","523436","776263","866007","22.820304","10.992372","0.040192","495915","744385","954259","17.795098","7.711851","0.083053","71","1183","2601","500","2266","4250","457","2336","4271","561","3787","6784","-1118","841","2341",""
"MA200-0416","28400","85","1","1.10","1.4","2023-05-26T11:18:31","120","2023/05/26","11:18:31","-15.795743823051453","35.002952666254714","0.0","14","30","64","27","-4168","-3528","-25484","2","150","150.49","113.25","37.24","43.40","20.2","15.70","90556","43.69","DUALSPOT-UV-BLUE-GREEN-RED-IR","405441","533313","906804","29.600350","16.598732","0.034919","417348","701619","762576","26.754268","14.162223","0.034593","494461","729251","815562","25.067432","12.726203","0.036530","519622","770541","859726","22.827416","11.004448","0.038962","494390","741976","951254","17.783974","7.712219","0.115832","-68","856","2036","300","2055","4029","380","2416","4515","629","3253","5695","-1372","138","1294",""
"MA200-0416","28401","85","1","1.10","1.4","2023-05-26T11:19:01","120","2023/05/26","11:19:01","-15.795746803283691","35.00296049984172","0.1","14","30","64","27","-4128","-3545","-25662","2","150","149.73","112.96","36.77","43.25","20.3","15.66","90548","43.56","DUALSPOT-UV-BLUE-GREEN-RED-IR","406445","534651","909132","29.605576","16.607800","0.030668","418264","703173","764325","26.762906","14.172692","0.031863","494901","729843","816325","25.074044","12.737389","0.035698","520923","772426","861938","22.833316","11.017643","0.040247","495234","743173","952756","17.775940","7.713470","0.091158","271","1448","2952","566","2110","3848","485","2525","4631","524","3600","6468","-993","475","1601",""
"MA200-0416","28402","85","1","1.10","1.4","2023-05-26T11:19:31","120","2023/05/26","11:19:31","-15.795758605003357","35.00294866645709","0.1","14","30","64","27","-4046","-3442","-25665","2","150","149.73","112.88","36.85","43.14","20.4","15.66","90548","43.38","DUALSPOT-UV-BLUE-GREEN-RED-IR","404186","531650","904052","29.606896","16.612186","0.032235","416218","699727","760651","26.771530","14.178745","0.026507","493386","727626","813886","25.081006","12.744590","0.032499","522784","775199","865140","22.842068","11.027260","0.035925","496317","744731","954804","17.767968","7.715032","0.087067","68","699","1505","566","1217","1950","512","1622","2769","777","2618","4335","-986","592","1803",""
"MA200-0416","28403","85","1","1.10","1.4","2023-05-26T11:20:01","120","2023/05/26","11:20:01","-15.795749962329865","35.00294499984011","0.0","14","30","64","26","-4096","-3464","-25732","2","150","147.77","112.25","35.52","43.11","20.6","15.79","90548","43.25","DUALSPOT-UV-BLUE-GREEN-RED-IR","404646","532227","905063","29.607148","16.615517","0.033416","416689","700521","761545","26.774640","14.184173","0.033827","493019","727046","813291","25.085190","12.749842","0.034196","518070","768123","857286","22.847416","11.035536","0.038635","493780","740811","949795","17.754722","7.716758","0.093939","13","550","1238","205","1132","2177","309","1227","2176","478","2337","4075","-1648","678","2467",""
